ACC-X-Ring1,ACC-Y-Ring1,ACC-Z-Ring1,GYRO-X-Ring1,GYRO-Y-Ring1,GYRO-Z-Ring1,ACC-X-Ring2,ACC-Y-Ring2,ACC-Z-Ring2,GYRO-X-Ring2,GYRO-Y-Ring2,GYRO-Z-Ring2,ACC-X-Ring3,ACC-Y-Ring3,ACC-Z-Ring3,GYRO-X-Ring3,GYRO-Y-Ring3,GYRO-Z-Ring3,TEST
-5.97,-14.8,11.18,-178.47,46.0,-3.52,6.86,-18.37,-3.1,-105.08,-65.33,90.28,-6.08,13.5,11.27,-149.9,5.81,-64.65,1
-6.15,-20.19,3.0,-203.76,31.64,17.77,1.02,-21.2,-9.83,-123.73,-81.15,118.95,-7.97,7.1,14.65,-199.61,23.14,-66.65,1
-6.36,-23.63,-5.65,-179.69,26.07,29.39,-3.85,-19.83,-15.0,-94.48,-91.46,109.18,-8.5,-5.05,16.05,-198.78,25.83,-53.81,1
-5.65,-18.03,-16.32,-154.59,25.63,50.44,-6.6,-11.92,-17.36,-60.84,-104.74,112.26,-9.21,-13.73,12.34,-172.02,54.44,-36.47,1
-7.18,-19.04,-17.28,-115.09,23.63,56.35,-2.48,-10.76,-12.49,-2.39,-109.23,86.13,-11.03,-17.11,2.31,-88.72,84.96,-9.86,1
-14.19,-12.76,-14.58,4.25,3.22,-1.17,-11.82,-4.25,-8.77,17.33,3.08,-1.46,-18.19,-18.55,1.84,-5.76,24.8,0.68,1
-8.61,-18.1,-13.27,78.27,-4.2,-15.04,-13.19,-11.57,-12.51,58.69,59.81,-53.71,-12.32,-14.67,6.67,96.63,-27.54,12.74,1
-8.8,-19.87,-10.58,129.35,-36.43,-18.51,-11.85,-14.99,-14.44,80.42,69.73,-84.91,-11.61,-17.26,10.13,128.71,-24.85,23.58,1
-9.7,-21.54,-4.32,91.41,-41.85,-25.49,-7.1,-20.66,-13.27,33.3,39.7,-85.99,-11.78,-11.29,15.86,104.1,-31.35,32.52,1
-8.11,-21.46,1.45,124.66,-34.57,-10.5,-3.35,-21.77,-10.87,68.65,53.08,-78.03,-10.54,-5.44,18.47,128.86,-19.78,42.72,1
-7.03,-20.19,5.98,113.62,-29.3,1.46,1.08,-21.38,-7.51,72.9,41.41,-57.76,-10.33,2.57,18.93,110.55,-13.28,39.31,1
-6.36,-15.78,10.79,98.93,-21.0,4.1,4.44,-20.01,-3.21,64.5,30.62,-53.42,-9.17,7.17,15.78,104.69,3.61,35.11,1
-6.06,-11.31,15.0,112.65,-31.98,6.1,7.19,-17.39,0.65,67.58,27.0,-59.77,-7.7,12.81,12.44,121.63,8.25,42.72,1
-5.25,-6.85,17.9,84.86,-37.16,5.18,10.29,-15.76,5.15,47.36,8.5,-57.81,-6.33,15.08,10.16,73.05,4.69,46.83,1
-3.77,-5.89,20.11,82.28,-18.9,8.4,13.17,-14.62,7.87,57.28,22.27,-45.41,-4.55,17.39,6.4,57.03,4.35,30.22,1
-2.51,1.23,21.3,70.41,-1.56,14.75,13.63,-10.55,10.76,43.07,14.65,-19.48,-3.08,23.21,3.11,57.42,9.03,15.19,1
-3.28,4.42,20.45,33.4,6.15,9.52,12.83,-9.96,12.09,14.16,6.45,-2.98,-2.8,22.17,0.45,24.76,3.17,-0.34,1
-3.59,4.41,20.0,30.91,2.59,6.3,11.47,-8.62,13.07,15.87,6.2,-3.17,-2.6,19.64,-0.24,27.54,2.88,2.34,1
-3.93,4.81,20.39,-1.07,-2.54,1.66,13.38,-9.44,13.55,-4.15,-4.98,-0.39,-3.2,20.04,-1.41,1.61,4.44,0.24,1
-3.81,4.62,21.49,12.16,-4.39,1.12,11.62,-9.29,13.19,-0.98,4.3,2.44,-3.18,19.53,-0.94,3.32,3.91,-1.71,1
-5.48,-19.42,-12.24,-141.55,18.8,34.91,-14.84,-6.24,-10.14,22.46,9.13,-20.21,-13.48,-22.99,0.1,19.24,-14.26,7.18,2
-6.21,-17.04,-15.19,-94.53,10.01,48.68,-15.12,-10.41,-12.09,82.81,64.11,-84.33,-11.61,-18.01,4.39,139.11,-40.87,26.76,2
-5.86,-11.7,-15.63,-39.65,7.08,54.3,-13.51,-18.22,-15.11,45.7,73.63,-86.43,-8.93,-17.97,10.95,118.46,-43.07,26.76,2
-10.17,-12.11,-15.8,-33.25,2.54,13.96,-4.01,-24.57,-15.43,91.89,71.88,-71.58,-9.72,-6.98,16.91,201.46,-6.98,38.04,2
-11.59,-12.79,-16.53,7.81,-3.91,1.32,-3.32,-19.13,-10.42,102.15,54.64,-78.08,-12.12,1.28,17.33,175.59,10.25,46.92,2
-11.66,-15.8,-16.48,120.36,-6.1,-17.53,2.17,-21.29,-3.89,83.3,33.5,-74.95,-10.53,10.81,14.52,163.82,12.45,55.18,2
-11.17,-22.24,-12.27,96.44,-19.19,-43.16,5.23,-18.83,2.86,53.37,18.21,-54.49,-7.77,17.35,11.69,97.41,11.43,45.51,2
-3.93,-26.35,-3.41,134.81,-44.38,-29.93,9.12,-17.4,5.74,50.2,11.67,-34.91,-6.52,15.59,7.71,56.93,9.18,31.01,2
-7.37,-17.22,0.15,159.03,-27.64,-2.0,9.26,-14.38,8.81,42.43,4.83,-17.92,-5.63,18.63,5.42,36.18,10.84,11.96,2
-4.88,-17.22,8.36,120.17,-42.38,-6.79,10.0,-12.74,10.54,16.21,-2.1,-6.45,-4.51,21.22,4.21,14.94,7.42,1.9,2
-4.09,-10.42,14.02,100.29,-20.8,5.42,11.46,-14.49,11.24,2.15,0.29,-3.86,-4.5,19.74,3.12,7.03,1.9,2.15,2
-1.34,-8.39,18.76,54.54,-22.95,0.24,11.05,-12.1,11.73,4.74,-2.88,-3.47,-4.45,20.36,2.96,5.13,2.64,2.2,2
-2.06,-3.45,19.92,66.85,-1.03,9.91,11.83,-13.45,11.67,8.35,-1.86,-5.66,-4.5,18.1,2.52,5.08,1.42,5.18,2
-1.78,-1.05,20.38,40.23,4.54,4.79,10.76,-12.96,11.52,1.12,-2.54,-2.54,-4.01,18.93,2.42,0.34,3.86,2.34,2
-2.26,-1.7,20.5,14.06,11.33,5.52,11.38,-12.3,12.04,7.37,-1.03,-2.78,-4.06,19.88,2.37,7.52,4.25,0.49,2
-1.15,0.2,21.63,19.92,5.86,3.86,10.37,-12.94,11.65,1.46,-2.44,0.1,-4.06,19.16,2.6,4.1,3.08,-0.88,2
-2.07,-1.32,21.21,-0.15,-3.12,0.05,12.12,-12.45,12.27,9.77,-3.81,-1.51,-3.85,20.55,2.09,7.62,1.95,1.9,2
-2.36,-0.39,21.08,1.71,-3.81,1.61,12.32,-12.27,11.94,5.91,-0.93,-1.81,-3.76,19.21,1.98,3.27,1.17,-1.81,2
-0.8,-0.95,21.52,4.15,-8.4,1.76,11.79,-12.46,11.95,-0.44,-0.54,1.03,-3.59,18.39,2.12,-3.76,0.29,-2.49,2
-0.42,-0.42,21.29,0.78,-2.05,-0.59,11.11,-12.58,11.96,0.24,-2.1,-0.93,-4.02,18.83,1.68,-2.0,0.88,-3.27,2
-9.19,-11.36,-13.76,-18.85,9.96,31.74,-14.34,-7.07,-11.81,10.01,-26.66,38.87,-12.52,-19.46,5.58,-27.59,29.79,-2.39,3
-10.47,-11.8,-13.43,36.08,-6.01,2.0,-14.3,-8.17,-11.39,18.12,11.52,-14.26,-11.73,-19.97,4.64,24.66,-10.89,12.06,3
-9.37,-8.35,-13.49,84.86,3.37,9.18,-12.65,-5.73,-13.53,68.31,30.81,-26.76,-13.41,-12.59,6.96,75.44,0.98,4.88,3
-9.14,-16.35,-13.76,91.11,-16.7,0.39,-13.13,-12.14,-14.23,62.74,42.82,-45.41,-11.11,-22.79,8.18,75.0,-9.13,8.94,3
-11.14,-16.94,-10.9,112.74,-26.56,-9.23,-9.43,-15.47,-15.37,87.84,52.78,-74.61,-11.92,-13.07,11.07,134.08,-4.59,37.01,3
-12.58,-18.41,-2.95,171.68,-51.17,-7.37,-5.56,-19.64,-11.69,126.17,64.55,-96.83,-12.26,-3.45,13.53,208.89,-0.93,64.21,3
-10.63,-16.42,5.86,129.05,-33.25,-7.13,-0.77,-21.2,-4.95,79.25,46.09,-78.27,-11.58,13.65,13.11,215.33,1.9,54.93,3
-7.95,-11.61,14.08,120.7,-32.86,4.15,1.98,-17.28,2.52,82.76,18.12,-60.21,-11.19,15.42,11.99,120.51,14.01,38.72,3
-9.33,-14.53,16.15,33.06,-6.98,-1.32,6.19,-20.8,4.8,34.23,11.57,-31.59,-10.41,13.44,9.55,36.57,1.66,13.87,3
-7.5,-10.63,17.0,77.59,-2.73,3.91,5.83,-18.51,6.85,66.02,27.15,-34.86,-8.41,15.87,6.53,71.87,4.79,16.41,3
-7.27,-2.22,19.02,66.45,-2.54,11.96,6.77,-15.07,10.43,32.91,8.54,-25.05,-7.74,22.39,2.98,51.27,11.04,15.43,3
-5.09,-1.26,20.47,44.19,-5.57,10.01,9.07,-15.5,12.31,24.61,4.69,-19.34,-6.2,22.09,0.75,40.92,6.88,16.8,3
-5.16,2.34,20.82,34.23,-4.54,11.23,10.0,-12.46,13.31,20.41,-2.05,-13.92,-6.14,20.56,-0.38,21.29,10.01,12.4,3
-2.94,3.02,21.1,23.34,-6.84,9.96,9.52,-12.01,13.85,17.58,-4.54,-8.74,-4.74,20.78,-1.33,16.5,7.96,8.5,3
-2.04,1.44,21.3,43.16,-16.7,7.52,8.76,-8.68,14.45,43.41,4.88,-14.79,-4.16,17.82,-2.26,40.48,7.96,15.04,3
-1.09,6.11,21.09,14.31,-17.87,3.96,9.72,-8.1,15.55,15.62,2.44,-7.42,-3.82,19.4,-4.32,18.21,6.74,11.33,3
-1.63,6.13,20.38,-3.61,-11.23,-0.39,11.19,-9.66,15.15,0.44,3.52,-3.32,-3.57,17.43,-4.07,-1.12,1.37,4.1,3
-2.08,6.8,19.94,-2.15,-4.98,2.2,11.52,-9.64,15.39,-7.23,-2.54,1.22,-3.07,18.84,-3.59,-4.74,0.73,-0.93,3
-2.8,6.38,20.26,2.64,-6.35,3.42,10.84,-8.33,15.41,0.63,-1.51,-0.1,-3.37,18.67,-3.78,-2.64,1.95,-1.42,3
-3.41,6.57,19.76,-0.88,-0.29,3.17,10.66,-8.49,15.19,-1.71,0.29,3.13,-3.22,18.84,-4.16,-4.39,4.35,-1.95,3
-3.32,0.32,20.0,-84.62,15.48,-15.58,0.82,-17.56,-10.27,-114.11,-86.77,92.14,-8.19,8.64,14.52,-173.39,6.4,-53.56,4
-4.04,-7.64,18.97,-132.03,20.75,-18.8,-4.29,-19.04,-14.86,-115.53,-99.51,108.2,-9.08,-6.82,14.69,-220.9,19.43,-52.29,4
-4.5,-11.11,15.69,-155.81,5.47,-11.82,-8.95,-15.49,-15.4,-82.28,-81.15,106.93,-8.9,-13.64,10.42,-166.55,53.61,-39.89,4
-5.71,-15.04,7.65,-162.3,17.87,5.86,-3.36,-12.21,-11.24,-18.6,-52.78,64.65,-12.69,-20.75,-2.58,-139.26,74.46,-31.74,4
-6.75,-19.78,-2.29,-192.04,25.83,20.46,-18.28,-9.14,-14.45,-4.0,20.07,-16.6,-13.15,-23.56,1.55,-1.76,-3.42,2.78,4
-6.94,-18.34,-8.56,-158.11,33.89,38.72,-13.01,-12.8,-12.43,33.79,43.46,-46.34,-13.03,-20.04,4.44,70.65,-12.79,12.65,4
-8.89,-17.9,-14.49,-161.13,24.71,55.32,-13.88,-14.69,-14.13,51.86,62.74,-70.56,-12.79,-20.84,8.4,110.94,-30.96,23.68,4
-10.34,-13.48,-19.18,-18.26,3.03,3.32,-7.77,-16.93,-15.1,72.56,66.89,-82.52,-10.7,-12.91,13.28,144.14,-38.53,37.01,4
-8.21,-15.03,-13.86,53.71,-9.03,-5.96,-1.87,-17.19,-11.31,77.2,54.05,-95.8,-9.36,-3.36,16.24,160.74,-21.44,49.95,4
-9.33,-18.02,-13.1,56.49,-11.82,-23.19,2.97,-19.36,-4.82,76.37,15.23,-58.69,-8.71,10.46,14.87,176.32,5.66,58.79,4
-8.95,-23.4,-8.9,113.53,-25.15,-22.41,8.59,-19.41,-1.81,81.74,46.29,-65.04,-7.96,11.1,15.17,119.53,-9.33,41.85,4
-7.53,-16.8,-3.2,160.11,-22.46,-5.13,9.84,-17.46,2.57,79.2,49.8,-54.54,-5.68,17.48,10.94,131.2,-1.07,36.18,4
-7.04,-14.3,6.14,149.32,-49.9,-12.74,10.88,-12.98,7.66,37.55,21.34,-35.94,-3.63,23.39,8.04,60.79,4.1,17.29,4
-2.63,-15.15,13.83,109.52,-46.63,-17.68,11.11,-13.54,8.74,38.67,20.56,-19.34,-4.38,19.69,5.42,51.03,2.73,11.18,4
-3.11,-11.82,16.7,126.46,-16.6,-9.33,11.53,-10.91,11.24,10.64,-1.46,-6.64,-4.44,20.7,2.92,21.92,7.76,10.25,4
-3.58,-2.42,19.55,129.2,-10.74,4.25,13.71,-13.4,11.06,-1.71,-4.25,-3.71,-4.05,18.43,2.56,-4.2,5.76,4.54,4
-3.42,-3.79,21.52,44.58,-8.54,-0.44,12.77,-10.89,11.06,-3.13,-8.98,3.32,-3.23,21.61,2.57,-0.29,3.91,-0.2,4
-2.92,1.01,21.09,53.76,-10.55,10.06,13.29,-11.74,10.53,4.1,-1.95,0.1,-3.17,19.6,3.06,-7.91,3.81,-2.1,4
-2.28,0.29,21.05,0.1,-13.48,6.88,12.49,-10.48,10.83,10.25,-1.07,-2.73,-3.33,19.56,2.72,3.52,5.32,0.15,4
-1.81,1.92,22.23,21.29,-7.96,6.25,13.67,-11.82,10.61,2.64,-2.69,0.49,-3.21,18.96,2.77,-2.1,0.29,-0.1,4
-1.9,-19.36,7.22,-179.1,16.7,30.96,-11.52,-11.58,-13.22,-8.5,-41.02,82.81,-9.47,-19.69,9.56,-97.41,42.97,-22.9,5
-4.22,-22.44,-1.91,-155.18,18.6,41.75,-12.96,-8.98,-11.23,7.96,-7.67,28.61,-12.86,-22.09,5.27,-34.08,24.9,-13.09,5
-5.04,-18.58,-8.17,-120.36,19.04,63.48,-12.49,-12.78,-12.38,11.18,29.49,-27.98,-11.62,-20.22,6.58,42.19,-4.88,0.39,5
-7.68,-16.09,-12.46,-73.58,27.29,48.34,-12.35,-14.42,-14.2,50.98,54.35,-56.74,-10.96,-18.51,11.21,98.83,-10.94,9.38,5
-9.72,-14.96,-14.74,-13.67,14.01,16.65,-6.58,-20.25,-13.99,79.59,76.66,-90.58,-8.58,-15.92,14.06,158.06,-16.89,30.32,5
-8.03,-19.27,-13.17,36.87,3.37,-13.43,-0.81,-20.3,-9.21,78.81,63.57,-105.03,-8.94,-1.72,15.73,166.45,-8.54,48.1,5
-8.06,-20.74,-11.26,90.19,-2.29,-16.75,3.59,-18.85,-4.41,70.41,25.83,-83.89,-9.33,10.67,16.15,149.17,-8.64,51.9,5
-6.95,-23.48,-7.9,163.67,-9.13,-14.5,6.87,-22.34,-1.35,42.97,42.53,-65.62,-7.39,9.9,14.45,101.32,-7.42,43.75,5
-7.41,-22.68,0.36,149.9,-30.86,-23.1,10.2,-15.98,2.68,62.16,34.18,-59.96,-5.98,16.73,10.74,114.36,4.64,41.46,5
-5.53,-16.49,9.42,105.27,-40.92,-14.55,13.55,-12.74,6.19,64.11,25.29,-52.83,-4.35,19.56,6.45,90.09,6.93,35.06,5
-4.07,-13.98,13.82,103.76,-23.54,-13.53,14.92,-12.67,9.17,37.6,24.51,-34.37,-3.24,19.08,4.05,41.94,3.86,15.97,5
-3.19,-8.37,17.56,112.5,-20.26,-4.25,13.23,-10.53,10.97,12.21,18.55,-12.45,-2.46,18.3,1.36,23.88,0.1,1.37,5
-1.84,-5.77,20.0,86.82,-17.77,-3.76,13.38,-8.97,12.02,2.83,5.13,-3.03,-2.97,18.93,-0.05,5.76,2.78,-1.46,5
-1.26,-5.22,21.46,48.73,-12.4,-2.25,14.44,-10.27,12.09,-13.62,-4.88,5.37,-2.39,21.25,-0.2,-6.49,1.07,-5.32,5
-1.4,-1.5,20.73,17.87,2.98,-1.42,13.66,-8.53,11.84,-8.2,-3.47,3.56,-2.6,21.17,-0.34,1.42,0.83,-2.73,5
-1.29,2.49,20.9,2.73,2.49,-0.2,13.24,-9.43,11.51,-0.15,0.49,0.54,-2.95,19.57,0.02,5.42,2.59,-0.98,5
-1.13,1.59,20.85,-19.58,0.68,1.03,12.73,-10.22,11.46,-1.86,4.64,2.88,-3.32,19.25,0.38,4.64,0.68,-0.05,5
-1.42,3.25,20.85,-7.96,1.46,0.88,13.81,-10.05,11.81,-0.73,3.52,1.71,-2.77,18.81,-0.1,-2.54,3.56,-2.98,5
-1.13,2.05,21.37,4.25,-0.93,0.59,14.02,-10.76,11.71,-5.52,-3.37,0.34,-2.87,19.09,-0.24,-3.61,4.88,-1.51,5
-0.03,1.24,21.7,5.08,-2.15,0.59,13.28,-9.47,11.67,-4.74,1.17,1.42,-3.04,20.3,-0.35,6.84,2.49,1.27,5
-7.91,-23.3,-7.22,-141.5,10.84,23.39,-10.46,-13.22,-15.69,-28.61,-39.55,51.17,-5.68,18.5,-1.0,5.42,1.27,1.95,6
-6.7,-19.42,-10.41,-98.68,8.45,19.87,-8.24,-6.04,-11.8,-2.59,-59.86,35.4,-5.36,19.03,-1.06,-2.69,3.32,1.76,6
-6.44,-13.69,-14.43,-50.24,16.46,30.96,-16.95,-6.32,-13.13,1.37,-55.62,53.08,-5.12,19.61,-1.25,-3.42,3.17,3.27,6
-6.39,-12.16,-14.99,-31.84,14.11,12.6,-18.78,-3.07,-11.03,0.68,-9.77,25.15,-4.7,19.71,-0.11,-14.6,4.0,0.29,6
-7.02,-13.67,-16.82,-45.36,14.84,40.63,-13.51,-11.61,-10.85,28.56,46.63,-48.97,-4.78,21.11,-0.64,4.35,2.25,1.66,6
-11.15,-13.69,-17.42,5.08,-4.15,2.64,-12.07,-15.96,-17.37,104.54,102.88,-95.95,-4.58,20.09,-0.22,3.71,1.71,3.17,6
-11.15,-17.04,-15.55,135.3,-18.8,-18.95,-8.74,-16.75,-15.31,112.11,93.46,-92.24,-4.89,18.3,0.0,-0.54,0.68,0.83,6
-10.51,-22.26,-14.31,218.85,-22.8,-2.34,-1.65,-19.75,-9.09,98.44,79.69,-85.45,-4.69,19.34,0.43,-4.83,1.9,4.3,6
-10.32,-24.14,-2.22,161.77,-41.65,2.78,3.26,-18.18,-3.18,134.33,78.66,-87.89,-4.3,17.88,1.35,1.07,3.22,4.39,6
-8.78,-22.01,5.33,149.66,-32.03,6.69,4.46,-12.34,3.91,91.94,40.19,-57.47,-3.92,18.94,0.99,-2.88,5.13,0.15,6
-9.31,-11.66,12.78,155.62,-41.6,10.64,8.34,-12.72,8.6,68.75,13.43,-37.4,-4.03,19.73,0.9,0.15,4.0,2.93,6
-9.07,-4.93,16.36,74.41,-29.05,8.45,8.17,-9.44,11.82,44.63,0.34,-14.21,-3.51,19.64,1.31,0.24,2.25,0.34,6
-6.91,0.09,18.69,72.7,-11.96,17.87,9.63,-12.55,12.72,6.64,10.5,-2.49,-3.86,19.07,1.72,0.2,0.44,-0.15,6
-6.97,6.11,20.11,34.57,2.54,14.55,11.57,-11.21,13.26,-6.64,-0.59,3.08,-4.26,19.48,1.26,0.44,2.88,-1.27,6
-6.97,4.76,19.73,20.12,7.37,5.37,10.84,-11.02,12.74,-0.44,-3.08,-0.54,-3.96,19.24,1.14,0.88,3.13,-0.29,6
-6.72,2.57,20.87,-2.59,3.27,-1.71,10.94,-13.27,11.93,-5.57,-3.96,-0.15,-4.05,19.8,0.67,1.61,1.17,-0.49,6
-5.99,3.19,20.31,2.1,-6.15,0.63,11.45,-12.24,12.36,-0.29,-5.57,1.51,-3.28,18.77,1.98,-0.78,-0.2,0.78,6
-5.98,0.81,21.38,-4.83,-7.81,5.08,11.77,-10.79,12.6,-5.22,-2.29,0.05,-4.18,20.07,0.73,0.88,3.61,0.49,6
-5.37,1.5,20.5,-3.66,-5.37,6.54,11.74,-12.02,12.15,-7.52,-2.34,0.83,-3.37,19.58,1.34,3.22,0.59,-0.29,6
-4.19,2.56,20.62,-9.96,-5.42,0.88,11.32,-11.56,12.61,-4.25,-3.81,0.0,-3.76,19.02,0.87,0.44,1.66,-0.1,6
-3.37,-19.36,8.43,-148.68,10.5,27.69,-13.9,-11.19,-12.53,-2.0,-63.72,77.59,-8.45,-1.96,18.76,-130.13,44.73,-33.5,7
-4.94,-22.65,3.13,-139.65,13.72,34.23,-16.88,-2.57,-7.62,20.7,2.25,46.83,-8.8,-12.46,13.92,-154.54,57.67,-32.52,7
-5.59,-23.59,-0.93,-139.11,14.45,42.58,-16.19,-7.05,-9.88,24.66,36.87,-25.83,-11.24,-25.94,4.09,-100.73,78.17,-11.77,7
-7.69,-19.47,-8.57,-134.77,18.51,54.25,-13.32,-12.21,-13.88,45.75,72.75,-84.28,-13.28,-15.26,3.45,-14.84,39.11,-19.58,7
-10.22,-17.53,-16.23,-100.05,14.6,65.77,-12.83,-16.62,-16.62,88.04,82.37,-118.55,-12.68,-21.3,2.99,41.55,-22.61,8.74,7
-10.77,-8.43,-15.85,-15.48,45.26,47.46,-4.68,-19.64,-11.32,67.09,50.78,-103.52,-13.16,-23.47,7.09,106.54,-42.48,21.29,7
-12.61,-14.67,-14.92,36.43,2.83,-0.49,1.11,-20.49,-8.82,80.52,58.84,-98.78,-10.5,-17.01,14.86,175.44,-25.88,52.1,7
-9.04,-16.88,-16.0,83.45,-13.92,-21.29,6.32,-21.19,-3.83,81.35,54.74,-83.01,-12.71,1.19,17.81,154.78,-11.47,51.32,7
-12.11,-19.25,-13.3,164.65,-18.26,-30.18,8.25,-15.66,1.88,78.76,39.11,-56.2,-11.2,4.71,17.57,150.15,-11.43,58.11,7
-11.65,-18.47,-4.15,155.08,-23.83,-15.48,9.0,-13.81,6.4,54.2,16.31,-33.89,-8.59,8.5,15.56,128.17,0.73,53.42,7
-10.18,-19.66,3.45,138.38,-34.67,-16.46,10.9,-11.93,7.94,11.77,-0.59,-7.42,-8.01,16.73,10.31,111.13,6.1,46.83,7
-7.53,-18.19,9.68,128.56,-30.08,-12.26,12.52,-12.13,8.71,7.13,2.64,-7.86,-7.34,18.29,6.1,72.22,11.96,23.39,7
-3.98,-12.07,15.18,136.87,-33.89,8.64,14.52,-12.18,9.41,-1.27,-2.29,-2.69,-6.25,19.43,4.33,27.15,4.98,8.89,7
-4.52,-7.03,17.61,89.89,-14.55,9.08,13.2,-12.59,8.92,-0.63,3.71,-3.76,-5.53,18.33,2.99,16.89,1.12,8.74,7
-5.01,-3.47,19.25,33.94,-6.74,4.2,12.85,-13.23,8.83,-5.08,-3.81,-0.2,-5.07,18.44,2.31,3.12,1.22,1.61,7
-5.26,-3.74,19.66,9.86,-2.73,0.29,12.76,-13.32,8.84,1.17,-1.22,-4.3,-5.06,18.09,2.7,0.98,-0.83,-0.05,7
-4.94,-1.55,20.75,8.35,-1.42,1.81,13.04,-13.96,9.0,1.95,-5.86,-4.69,-5.2,17.38,3.2,-8.59,-1.22,-0.05,7
-3.76,-2.08,20.7,3.52,-4.59,0.39,13.17,-13.86,8.7,3.56,0.44,-1.61,-5.88,18.04,3.14,0.78,0.68,-0.73,7
-5.04,-2.92,20.03,-12.16,5.37,-1.27,12.56,-12.98,8.65,2.34,-1.37,-1.9,-6.03,19.29,3.19,-3.13,2.93,0.83,7
-3.63,-4.0,20.42,-4.93,6.84,1.61,13.81,-13.31,8.79,-2.59,-0.29,1.03,-5.95,19.62,3.18,1.32,4.25,1.51,7
-6.33,-19.93,-6.89,-119.73,17.77,54.39,5.3,-19.88,-7.93,-46.83,-61.67,83.84,-9.37,-9.89,16.22,-152.54,33.2,-44.29,8
-7.26,-18.88,-11.33,-99.66,-7.86,30.86,0.8,-18.48,-10.45,-52.69,-64.31,107.13,-9.97,-17.15,10.0,-114.45,29.05,-21.24,8
-8.48,-12.85,-14.89,-62.26,3.22,26.56,-8.47,-17.28,-12.73,-36.13,-53.42,113.38,-11.12,-18.1,5.85,-96.58,26.76,-18.41,8
-8.83,-12.53,-15.53,-24.41,-4.74,7.62,-11.87,-13.83,-12.56,-33.11,-44.73,70.85,-12.14,-21.28,4.16,-40.53,12.5,-2.98,8
-9.0,-16.4,-14.77,4.25,-5.81,-12.5,-14.07,-7.91,-11.44,-16.99,-31.3,54.35,-12.77,-22.44,4.84,8.54,-4.98,2.64,8
-9.23,-17.99,-15.01,50.44,-8.11,-25.83,-15.99,-8.02,-10.67,-15.38,-12.21,18.36,-10.49,-21.96,8.02,59.37,-26.9,8.98,8
-8.4,-17.19,-12.56,122.56,-0.93,-28.37,-14.48,-11.75,-10.44,-7.72,9.18,-15.48,-11.86,-18.04,9.07,114.01,-20.8,21.88,8
-8.07,-17.65,-6.34,109.86,-4.2,-26.56,-15.45,-13.23,-12.32,19.19,46.63,-45.51,-11.61,-9.25,16.18,116.89,-19.92,23.49,8
-4.77,-19.71,-2.7,109.57,1.27,-17.14,-12.06,-14.11,-13.43,59.42,69.19,-82.67,-10.38,-7.25,18.87,126.37,-10.21,24.56,8
-3.92,-17.54,2.96,129.0,-11.38,-19.43,-9.41,-15.98,-12.47,46.73,47.75,-70.9,-8.87,-2.98,19.13,148.53,-0.2,31.84,8
-2.96,-17.97,8.51,126.03,-25.44,-21.14,-4.41,-18.43,-11.98,65.09,55.03,-58.4,-8.08,3.96,17.9,131.25,-9.33,40.87,8
-2.13,-15.53,13.68,130.52,-20.21,-18.12,0.01,-17.11,-8.39,81.35,49.12,-67.43,-6.6,13.07,13.38,138.13,-0.68,42.38,8
-0.87,-8.05,18.05,105.47,-27.88,-4.3,4.35,-18.87,-4.43,81.54,46.53,-77.2,-6.69,17.13,8.47,72.7,8.01,29.15,8
0.32,-5.25,20.32,63.67,-12.89,-9.67,7.59,-17.25,0.98,89.21,49.66,-74.41,-4.13,18.16,6.74,61.23,-6.05,20.7,8
-0.63,-2.11,21.32,54.39,3.37,-1.17,9.82,-12.53,5.57,76.51,23.63,-52.93,-4.2,19.21,3.85,43.07,2.44,6.45,8
-1.46,-0.79,20.99,23.34,1.27,2.1,12.03,-13.03,8.96,39.21,21.58,-34.86,-4.68,19.37,2.08,12.89,1.22,-0.2,8
-1.0,-1.99,21.21,6.25,0.15,2.73,12.97,-9.87,10.85,18.36,15.14,-16.02,-5.12,17.61,1.99,-3.27,5.52,-2.2,8
-0.04,-1.14,21.28,6.54,-4.2,4.05,12.15,-9.74,11.67,2.34,4.93,-2.44,-4.48,19.15,1.85,-0.44,5.42,0.73,8
0.52,-1.86,21.67,0.54,-5.91,1.17,12.68,-10.21,11.35,0.68,-0.1,-2.93,-4.09,19.34,2.56,0.73,4.1,-0.68,8
-0.14,-1.3,21.9,0.93,-7.62,-2.39,12.85,-10.17,11.49,-2.59,-1.03,0.73,-4.05,19.38,2.58,7.13,2.44,1.9,8
-4.3,-20.93,5.05,-66.8,16.65,19.97,1.05,-19.61,-7.65,-42.68,-19.38,57.47,-8.76,1.37,18.44,-79.93,5.81,-32.96,9
-3.89,-20.49,1.77,-76.12,10.45,23.54,-0.33,-17.95,-10.05,-44.29,-36.23,54.44,-9.05,2.29,18.92,-78.27,8.5,-28.47,9
-4.53,-20.6,-3.58,-93.6,5.37,33.94,-3.91,-16.91,-12.65,-46.39,-48.54,66.65,-10.34,-3.54,17.75,-103.08,19.04,-30.76,9
-5.76,-19.22,-6.2,-62.4,-0.15,27.39,-6.04,-14.92,-13.63,-36.23,-39.5,48.58,-10.73,-9.72,16.51,-75.0,18.75,-17.48,9
-7.77,-16.81,-9.35,-55.47,2.39,29.74,-9.67,-11.74,-13.52,-20.61,-38.48,46.73,-11.87,-11.24,13.67,-67.87,26.46,-18.21,9
-9.62,-17.32,-12.38,-41.26,10.01,16.41,-12.35,-11.34,-13.62,-13.62,-22.02,32.32,-11.58,-17.81,11.33,-65.19,19.58,-18.55,9
-8.84,-16.78,-13.27,-18.8,6.88,8.84,-13.03,-10.86,-13.84,-3.81,-8.98,13.53,-10.73,-17.86,10.13,-23.05,4.44,-3.47,9
-8.21,-18.44,-13.08,2.59,5.18,-1.07,-12.47,-12.55,-13.37,11.96,10.55,-6.15,-11.4,-20.45,9.47,-7.72,-1.71,-2.54,9
-9.26,-15.77,-11.91,59.52,4.69,-13.62,-11.99,-12.11,-14.59,29.74,27.78,-33.45,-11.72,-16.85,12.07,62.01,-9.91,6.15,9
-8.97,-18.15,-10.57,90.28,2.64,-21.53,-10.11,-14.14,-14.53,51.81,44.38,-58.98,-11.44,-15.25,13.06,100.1,-14.79,15.97,9
-6.83,-20.55,-6.51,80.08,-0.2,-22.8,-5.73,-17.0,-12.25,47.46,46.48,-65.62,-11.46,-9.73,15.15,98.49,-12.6,23.29,9
-6.09,-21.44,-1.89,97.46,-3.27,-27.54,-2.5,-18.41,-10.76,55.66,49.56,-70.12,-10.3,-4.77,16.8,108.74,-14.36,27.88,9
-3.36,-19.73,3.13,87.5,-6.93,-20.31,2.19,-18.56,-8.19,41.55,37.55,-58.4,-9.07,2.59,18.91,107.71,-9.03,30.13,9
-1.88,-19.93,6.98,82.13,-8.2,-12.89,7.33,-19.85,-5.57,51.03,38.13,-54.88,-8.97,5.18,18.49,89.31,-3.76,29.0,9
-0.64,-17.39,12.02,108.11,-7.42,-6.01,8.68,-17.21,-0.97,71.09,40.63,-50.44,-7.62,12.84,14.68,124.32,8.79,31.93,9
-0.19,-12.86,16.15,86.91,-8.2,-2.73,10.01,-15.15,2.62,58.98,28.61,-33.89,-7.07,17.43,10.84,90.04,11.08,19.78,9
-0.34,-8.58,18.39,85.2,-4.1,-1.12,10.79,-13.14,5.04,50.15,20.36,-27.49,-5.22,18.45,8.76,86.87,6.69,19.29,9
-0.34,-7.41,19.98,31.1,-8.2,-3.12,12.34,-14.32,7.25,22.9,7.57,-14.99,-4.26,18.99,7.06,29.0,6.93,12.4,9
-0.5,-7.15,20.31,53.66,0.98,2.29,11.31,-11.26,8.89,34.23,12.06,-11.87,-4.3,18.41,5.22,49.12,5.96,8.54,9
-0.15,-3.72,21.3,35.74,3.37,2.78,12.2,-10.2,10.42,19.34,7.08,-2.29,-4.14,20.71,2.82,41.45,8.01,1.17,9
-1.94,-21.41,6.14,-119.43,11.43,23.83,-5.52,-16.63,-11.96,-33.69,-30.32,48.73,-9.83,-5.66,18.26,-74.17,12.89,-22.41,10
-3.23,-21.98,2.99,-73.58,11.91,24.95,-7.22,-16.18,-13.08,-35.69,-33.35,50.44,-9.23,-10.13,16.94,-92.68,6.01,-22.66,10
-4.01,-22.73,-2.48,-80.76,6.45,24.8,-11.39,-12.1,-13.01,-21.97,-33.35,49.22,-8.3,-13.2,14.27,-72.46,5.37,-16.65,10
-5.43,-21.57,-4.56,-62.35,4.98,20.21,-13.24,-11.56,-13.35,-10.4,-27.64,34.03,-9.99,-16.37,11.98,-47.66,12.3,-6.93,10
-5.21,-22.04,-9.12,-78.03,2.34,17.43,-13.64,-11.36,-12.34,0.1,-4.2,9.96,-11.24,-17.65,10.59,-12.55,12.65,-2.34,10
-6.3,-17.97,-12.25,-62.99,6.98,20.51,-12.34,-12.06,-12.32,21.09,25.83,-18.12,-11.23,-17.61,11.67,33.69,1.76,-0.15,10
-7.75,-15.79,-12.93,-34.81,-4.39,16.06,-11.78,-13.72,-12.73,20.85,34.91,-39.7,-11.21,-15.84,13.36,57.76,-12.79,5.76,10
-9.7,-16.18,-13.01,-9.08,5.86,6.74,-8.33,-17.01,-14.04,49.46,65.14,-71.14,-9.53,-12.35,16.4,117.04,-16.65,18.8,10
-9.0,-17.15,-12.13,36.67,10.4,-0.73,-3.16,-18.64,-12.37,54.98,68.46,-82.71,-9.68,-7.06,17.87,143.07,-12.99,28.61,10
-8.31,-18.53,-11.52,51.81,1.56,-18.7,2.11,-21.11,-9.7,55.03,65.43,-77.44,-8.06,-2.73,18.63,110.79,-2.54,23.49,10
-6.21,-19.97,-7.88,107.23,1.37,-29.1,3.37,-19.32,-6.93,29.25,44.14,-51.71,-7.98,9.29,18.0,109.57,-5.66,25.63,10
-4.76,-20.51,-2.1,124.8,-0.78,-31.98,8.51,-19.68,-4.07,37.89,40.38,-44.58,-6.84,9.36,15.5,81.05,2.29,15.63,10
-2.74,-24.95,1.67,123.93,-4.64,-25.29,9.62,-16.78,0.39,60.06,56.64,-52.05,-5.86,14.76,11.43,116.5,1.95,17.58,10
-2.88,-18.65,7.51,86.08,-7.86,-20.46,12.57,-12.03,4.85,67.04,43.51,-41.99,-6.34,18.08,5.66,89.5,-0.1,6.64,10
-1.11,-19.36,10.14,75.78,-1.22,-10.94,13.8,-9.77,9.23,44.78,47.36,-32.62,-5.94,17.88,1.08,62.26,-3.56,-1.37,10
-1.88,-15.17,14.23,103.91,9.42,-14.7,13.07,-12.22,11.14,9.57,18.9,-13.67,-6.02,19.08,-0.05,25.05,-2.2,0.83,10
-1.48,-7.64,17.64,103.81,8.89,-7.52,12.88,-10.17,11.52,10.25,22.36,-15.09,-5.11,18.88,-1.7,24.02,-6.4,-0.68,10
-1.87,-4.57,20.22,82.96,13.33,-9.23,11.61,-9.48,11.79,8.15,10.4,-5.76,-4.92,16.79,-2.06,3.47,1.27,-1.61,10
-1.77,-2.12,22.26,23.68,-2.64,-9.47,11.67,-10.79,12.24,-17.48,-4.59,-0.63,-5.02,18.44,-1.4,-7.91,1.42,2.78,10
-1.1,-0.46,20.81,32.42,-2.25,-8.3,12.19,-7.91,12.61,20.85,-3.22,-2.78,-4.23,19.73,-3.13,23.29,11.18,8.2,10
2.57,-1.04,20.86,6.98,7.28,0.98,8.08,-5.68,12.18,-7.08,4.79,14.16,-1.69,25.31,-0.49,-23.19,16.02,5.32,11
4.32,-1.67,21.38,8.64,3.03,-3.61,8.61,-14.8,8.16,-166.16,-46.97,50.44,-2.13,22.91,0.3,-113.82,29.83,-33.98,11
3.0,-0.68,20.74,24.66,14.26,-13.82,5.54,-20.68,-1.64,-152.3,-90.33,106.2,-3.77,20.07,7.74,-162.16,31.64,-68.36,11
0.61,6.07,22.53,-6.64,21.48,1.9,0.41,-19.75,-12.66,-136.67,-83.84,107.76,-8.6,10.66,12.33,-190.09,57.81,-64.11,11
-4.75,-0.91,19.92,-121.48,67.14,-10.16,-2.23,-17.1,-16.44,-141.55,-68.9,92.29,-10.35,-6.64,9.0,-241.16,53.08,-72.8,11
-9.31,-11.15,12.23,-189.01,48.63,-7.32,-5.22,-16.46,-17.81,-36.62,9.33,70.46,-15.39,-20.45,9.66,-156.01,47.71,-38.28,11
-6.49,-18.48,2.7,-196.58,42.19,-20.7,-7.52,-8.88,-18.35,-12.26,21.29,24.61,-17.76,-16.11,9.65,-25.24,20.7,-0.93,11
-4.95,-27.38,-5.65,-191.99,14.75,-29.69,-6.09,-14.93,-16.83,95.85,18.99,-27.59,-16.87,-16.93,9.15,72.12,-19.73,42.68,11
-3.05,-24.45,-13.51,-76.51,27.25,0.83,-1.04,-24.49,-20.14,230.47,114.45,-55.96,-10.09,-13.47,7.58,219.19,-75.83,96.53,11
-2.74,-20.25,-13.66,-15.14,-2.39,12.35,-0.53,-23.04,-8.48,238.77,95.07,-62.6,-3.3,9.7,8.44,281.25,-81.3,138.92,11
-3.2,-19.28,-10.09,103.81,-29.69,30.81,5.37,-17.05,8.25,158.2,9.52,-39.99,0.42,25.81,7.98,182.86,-22.8,120.12,11
-2.81,-23.48,-9.16,273.88,-31.64,61.91,7.01,-4.53,14.47,152.93,0.24,-26.56,4.07,25.39,2.57,124.66,-5.91,83.2,11
-6.21,-13.52,3.64,288.28,-33.01,63.92,6.24,-5.19,18.51,89.01,1.95,-7.28,4.65,19.02,-2.67,65.09,-0.59,45.51,11
-6.82,-2.4,16.73,186.38,-62.6,75.59,4.11,-6.1,19.37,10.01,13.28,1.81,4.21,14.48,-3.87,5.76,-0.05,3.91,11
-4.0,8.28,17.64,175.78,-30.71,59.52,5.09,-9.1,19.09,-42.38,11.47,13.96,3.51,16.75,-4.85,-17.38,8.84,-18.75,11
-1.55,9.79,18.61,90.67,-11.57,27.2,6.35,-5.3,18.87,-25.73,1.66,11.28,3.67,18.41,-3.66,-9.28,9.28,-15.04,11
-1.83,9.94,17.52,22.07,4.15,3.37,5.56,-6.98,18.03,-13.87,-2.1,7.91,3.88,19.3,-3.5,-11.52,8.3,-9.52,11
-2.47,6.98,17.02,-32.47,6.2,-3.17,6.58,-4.41,19.32,-4.98,-3.52,10.94,3.87,21.79,-4.48,4.25,14.06,-5.32,11
-3.23,10.11,17.96,-25.39,4.79,0.59,5.43,-8.82,17.58,-37.6,-16.7,16.36,2.72,18.2,-3.62,-28.17,14.84,-20.46,11
-3.77,9.4,17.6,-24.22,-3.27,2.54,6.01,-7.46,17.82,5.62,-12.89,6.35,2.09,17.59,-2.92,4.05,12.65,-10.84,11
-3.49,-21.46,3.23,-179.15,13.72,44.48,9.47,-12.85,13.95,2.98,1.42,0.98,-7.91,4.32,16.36,-151.51,69.34,-70.7,12
-4.28,-19.19,-4.9,-141.46,25.54,56.05,8.52,-12.76,13.54,1.07,1.22,-1.46,-10.54,-4.61,15.43,-143.21,87.11,-58.89,12
-6.03,-20.95,-11.51,-118.51,-1.07,42.97,8.52,-13.06,13.27,-1.42,1.71,0.88,-14.85,-13.8,10.31,-113.87,73.34,-39.7,12
-7.99,-19.44,-11.9,-22.51,-5.03,19.78,8.77,-13.53,14.07,-1.47,-1.32,-0.59,-20.68,-14.83,6.43,-14.5,21.19,-5.86,12
-8.48,-19.65,-10.05,57.81,-0.29,-7.57,8.84,-12.2,13.9,3.76,-2.05,-1.95,-20.23,-12.29,6.84,46.09,-19.92,10.25,12
-8.04,-22.56,-8.56,121.78,-16.89,-30.22,9.33,-12.43,13.62,2.54,-2.05,-1.03,-16.63,-10.22,12.08,105.32,-59.23,33.94,12
-5.99,-23.16,-2.69,179.74,-21.14,-36.57,9.98,-12.26,13.96,3.37,-0.68,-2.59,-11.26,-2.91,14.77,165.53,-76.61,73.68,12
-3.94,-20.73,7.43,207.28,-12.99,-28.96,9.67,-11.86,13.85,0.2,-0.93,0.2,-5.97,9.3,13.79,199.9,-68.55,88.96,12
-2.74,-9.85,14.99,198.14,-10.3,-7.47,9.8,-12.37,14.0,4.0,-0.34,-0.59,-2.58,19.31,9.68,168.36,-43.9,71.14,12
-1.45,-2.37,18.7,127.44,-10.55,6.15,9.08,-13.71,13.43,-2.54,-1.17,1.61,0.07,21.83,6.14,93.6,-19.68,37.01,12
-0.14,-0.72,21.38,45.02,-13.77,-0.39,9.51,-12.4,14.13,4.35,-0.24,0.34,0.17,17.81,1.2,43.02,-7.23,12.6,12
-0.81,5.99,21.44,21.0,-11.72,5.66,9.48,-12.8,13.89,-6.49,-0.68,0.29,1.29,21.02,1.42,-6.49,3.96,-7.42,12
-1.13,-0.03,21.59,9.18,-9.33,2.39,9.76,-12.98,13.75,-2.88,-1.42,0.68,0.85,18.21,0.9,4.74,2.69,-4.44,12
-1.86,2.63,21.17,1.42,-4.3,3.27,9.49,-12.48,13.59,0.78,2.25,0.0,1.28,20.28,0.77,-1.07,5.52,-3.37,12
-2.08,2.92,21.27,2.15,-4.15,0.2,8.86,-12.09,13.83,3.03,1.42,0.34,1.59,20.62,1.73,4.98,2.34,0.44,12
-1.35,0.85,20.97,2.64,-3.56,-0.73,9.55,-12.66,13.56,1.07,0.49,-0.98,1.27,18.39,1.52,3.86,-2.39,1.51,12
-1.29,1.22,21.76,-3.81,-6.49,0.29,9.79,-12.63,13.81,1.95,-1.46,0.68,0.52,18.1,0.99,-0.39,4.15,-1.37,12
-1.24,1.58,20.91,-3.91,2.15,1.27,8.38,-12.88,13.79,-4.1,0.39,0.63,0.99,19.43,1.17,-2.59,2.0,-2.83,12
-1.12,1.25,21.23,-2.15,0.73,0.15,8.93,-13.68,13.42,-4.0,2.59,0.68,1.31,19.11,1.64,-1.42,0.24,-3.08,12
-1.4,0.65,21.23,1.17,-6.1,1.56,8.58,-12.19,13.88,2.88,2.83,2.54,0.85,18.98,1.46,4.83,2.25,-3.17,12
-0.34,-8.77,16.21,-148.34,-10.06,22.85,-1.34,-15.84,-15.89,-73.68,-84.81,75.98,-9.96,2.53,18.79,-103.42,65.28,-56.59,13
-1.38,-20.03,11.18,-156.74,1.27,27.2,-8.18,-13.82,-18.79,-86.47,-97.41,104.79,-11.95,-7.64,13.07,-157.81,93.75,-66.65,13
-0.62,-22.1,4.93,-139.55,4.3,37.35,-8.59,-9.66,-14.02,14.11,-57.03,55.22,-18.71,-23.59,4.4,-54.79,73.78,-11.23,13
-3.64,-19.77,-1.63,-130.57,11.67,62.06,-11.67,-10.92,-12.27,-1.07,4.49,-9.37,-17.97,-12.89,5.66,10.16,-6.01,7.96,13
-8.19,-19.55,-10.72,-164.11,8.74,84.23,-9.25,-12.13,-14.45,73.49,59.42,-36.18,-17.77,-12.32,5.35,93.02,-43.8,20.56,13
-8.93,-15.53,-13.7,-30.42,3.76,57.47,-4.39,-20.68,-16.89,125.39,101.12,-105.66,-16.52,-9.96,6.99,174.9,-71.83,60.45,13
-10.93,-13.99,-10.56,9.47,-9.77,-9.37,-0.38,-22.34,-11.09,146.87,87.35,-111.33,-9.16,14.95,13.1,258.84,-70.02,108.06,13
-9.42,-15.23,-12.13,109.91,-0.29,-16.11,5.56,-18.73,-0.51,138.09,51.76,-66.85,-2.72,27.6,10.0,214.94,-35.35,95.17,13
-10.67,-25.01,-10.43,193.36,-18.9,-49.32,6.85,-16.72,6.52,115.09,49.61,-22.36,-2.79,22.07,3.74,129.05,-21.14,41.99,13
-7.58,-22.65,3.12,210.01,-47.75,-46.14,4.79,-9.44,11.6,46.19,28.13,-5.81,-2.28,23.48,-0.97,75.83,-8.74,7.76,13
-3.16,-12.71,16.48,167.24,-26.07,-11.28,5.11,-13.06,13.83,-14.11,16.7,-3.08,-1.78,16.75,-1.54,13.67,-14.26,-5.47,13
-1.61,-6.84,18.85,151.9,15.33,10.21,4.64,-12.59,15.25,-7.47,1.66,1.27,-1.17,20.35,-2.68,14.16,-2.49,-0.29,13
-3.82,3.85,19.53,84.52,22.12,6.2,6.5,-14.65,15.15,4.98,-5.18,5.96,-1.01,18.19,-3.32,-6.49,12.26,-6.1,13
-5.16,1.64,19.02,9.96,11.33,-14.11,3.62,-13.69,16.63,10.64,-7.13,3.71,-0.59,19.04,-2.51,5.22,11.47,-7.37,13
-6.45,4.26,19.1,11.67,7.28,-1.27,8.27,-8.12,14.67,12.6,6.4,0.63,-1.33,20.41,-3.25,3.17,-0.49,3.47,13
-5.22,0.51,20.5,-8.15,5.96,4.25,6.37,-16.42,14.26,-1.07,0.15,-7.57,-3.06,19.18,-3.09,-8.69,-2.05,1.27,13
-6.96,1.19,20.77,4.78,7.86,12.21,5.12,-15.68,13.73,-22.07,-0.39,-2.44,-1.7,17.76,-2.06,-8.89,-0.59,-5.47,13
-3.36,5.62,20.73,22.85,8.11,2.34,6.52,-15.87,14.31,3.27,-1.22,-1.66,-2.02,17.77,-2.14,-3.71,2.73,2.15,13
-9.15,0.37,20.17,-8.2,-7.96,-10.01,5.64,-15.97,13.46,-3.81,-2.25,2.59,-1.11,18.5,-0.95,0.05,-0.15,-0.49,13
-5.97,2.51,19.36,-12.84,0.49,-6.59,6.29,-14.95,13.72,-0.39,-1.76,-1.66,-1.51,19.25,-1.39,3.42,1.03,2.49,13
-11.35,-16.41,1.3,-246.14,1.56,-11.91,-1.38,-19.05,-11.78,-124.61,-140.62,87.99,-13.66,8.5,5.13,-248.49,79.83,-99.46,14
-8.67,-19.41,-6.24,-179.88,-11.04,-12.6,-5.2,-16.57,-13.87,-100.2,-128.86,56.25,-17.34,-4.06,5.8,-187.6,72.8,-71.68,14
-8.96,-17.16,-12.0,-131.93,18.99,-17.92,-6.22,-13.87,-13.04,-76.56,-97.95,47.22,-19.16,-14.18,3.15,-137.3,49.27,-56.84,14
-7.03,-14.65,-19.11,-78.66,30.57,-27.05,-13.66,-8.36,-12.1,-44.92,-14.94,45.65,-15.93,-20.16,3.57,-85.3,20.51,-33.98,14
-3.72,-11.72,-13.85,-16.5,6.05,-52.78,-17.14,-7.19,-11.82,-1.07,11.72,-17.68,-22.21,-18.7,0.16,-22.66,-19.19,-13.96,14
-3.71,-17.13,-13.71,91.65,-34.67,29.39,-10.85,-14.42,-12.35,43.99,41.06,-44.48,-19.44,-22.09,1.49,27.69,-28.03,32.71,14
-8.13,-20.55,-13.86,136.43,-24.9,35.25,-8.96,-17.74,-15.15,86.47,90.63,-71.63,-19.01,-16.82,3.85,94.19,-54.0,53.66,14
-9.38,-19.35,-14.14,243.41,3.27,56.98,-5.56,-17.09,-15.18,154.64,136.91,-103.08,-17.8,-5.48,7.45,210.5,-59.67,88.28,14
-10.54,-14.08,0.23,260.06,28.17,35.89,0.19,-17.29,-5.87,135.25,134.42,-102.49,-9.24,9.58,6.17,254.15,-93.07,86.33,14
-9.19,-9.97,13.02,170.36,-30.86,11.91,6.85,-17.73,3.43,110.79,45.75,-102.0,-6.01,18.62,8.06,175.54,-73.88,92.38,14
-3.55,-5.41,21.68,54.98,-21.14,-5.08,7.9,-18.45,7.52,61.08,15.09,-27.69,-2.17,22.58,8.51,68.8,-40.92,29.69,14
-3.47,-3.08,22.63,23.44,-31.84,11.33,10.5,-15.64,10.27,26.9,10.45,-6.54,-1.92,19.72,5.11,18.95,-4.69,7.62,14
-5.05,0.13,20.63,27.73,-18.65,9.77,8.7,-13.25,11.19,16.21,-5.32,-8.25,-1.62,19.53,3.18,8.89,-6.4,7.03,14
-4.41,-1.66,20.8,23.88,-15.43,17.63,11.24,-13.0,11.96,22.9,-4.39,-7.91,-2.59,18.31,2.98,16.89,8.64,10.6,14
-3.21,-0.66,21.94,-1.07,1.66,2.44,11.84,-14.76,12.39,11.28,-4.93,2.0,-0.57,21.2,2.85,4.44,0.49,0.93,14
-4.06,0.4,21.25,7.23,1.86,8.74,11.07,-13.73,12.9,7.47,-7.81,5.52,-1.72,20.19,2.08,13.82,10.79,-1.37,14
-3.55,0.89,20.65,6.3,5.62,1.81,9.39,-11.92,12.1,4.78,5.13,3.32,-1.73,21.45,1.5,15.19,2.83,-1.81,14
-2.65,0.66,21.41,1.56,-1.66,2.29,9.76,-12.43,12.38,3.37,2.98,2.93,-1.9,19.41,1.78,4.49,1.07,-4.0,14
-3.36,0.59,21.51,5.76,-9.57,4.83,10.56,-13.15,12.58,3.22,6.69,3.61,-2.13,19.72,1.76,7.42,2.1,0.39,14
-4.26,1.2,21.1,1.66,-3.27,4.93,10.03,-13.03,12.9,-1.07,4.35,2.49,-1.9,18.95,1.15,-2.2,3.86,-1.86,14
-8.56,-17.34,-3.92,-222.61,29.25,28.32,-19.05,-8.93,-13.25,-31.45,-1.86,17.82,-12.74,3.1,11.31,-184.62,89.79,-105.52,15
-10.09,-17.79,-13.85,-176.07,43.21,11.43,-15.64,-12.7,-12.25,-5.32,2.83,-5.27,-17.02,-8.58,5.35,-162.26,63.53,-99.07,15
-8.7,-20.03,-18.35,-47.71,30.27,6.74,-13.16,-13.34,-11.53,31.59,35.74,-12.79,-16.28,-27.92,1.4,-79.0,31.64,-22.8,15
-6.62,-10.09,-11.89,-15.72,7.71,2.64,-11.65,-15.88,-12.87,62.65,64.21,-31.45,-15.33,-8.06,4.54,-0.83,17.58,-4.64,15
-9.16,-14.7,-13.99,5.52,-2.1,1.42,-13.84,-17.45,-16.22,83.94,57.52,-70.21,-18.85,-13.93,2.74,19.19,1.22,9.38,15
-9.41,-17.1,-12.33,37.45,-15.23,8.35,-4.41,-22.16,-8.5,62.06,49.71,-63.04,-16.92,-15.77,3.33,39.4,-12.99,14.65,15
-7.78,-19.18,-11.98,89.84,-24.8,15.82,0.17,-24.2,-7.58,114.01,125.88,-80.96,-16.97,-17.85,4.93,91.5,-21.87,31.15,15
-8.91,-20.59,-8.98,133.89,-83.54,10.64,-2.7,-19.34,0.75,191.45,108.89,-99.37,-14.27,-11.6,11.65,142.43,-30.71,73.49,15
-8.65,-17.37,-1.19,126.32,-52.29,14.4,3.65,-18.76,10.56,45.02,26.32,-35.45,-16.97,-8.12,9.95,91.65,-29.83,63.77,15
-10.75,-17.97,3.81,194.82,-40.77,-1.37,5.55,-19.56,13.21,7.18,0.54,-7.52,-12.71,-0.19,7.99,163.72,-66.36,85.01,15
-10.58,-7.66,9.56,265.09,-68.95,16.85,8.6,-11.85,15.89,13.77,-20.46,-8.79,-6.52,14.81,3.63,236.96,-72.61,115.87,15
-12.68,3.86,15.81,101.66,-61.77,8.64,7.21,-16.6,13.6,-5.08,15.97,-1.17,-0.73,21.71,3.87,60.99,-28.37,74.9,15
-11.8,2.43,19.15,27.05,-15.87,8.45,6.22,-15.17,13.64,-4.49,3.96,-1.03,-2.03,19.26,0.7,9.28,-16.46,24.95,15
-8.92,6.34,19.67,45.61,-14.11,19.29,7.03,-14.88,13.52,-5.57,-0.2,-1.27,-1.75,23.11,-1.39,27.64,-10.89,11.08,15
-8.36,0.32,19.5,-4.69,-14.7,-1.95,5.92,-14.41,13.17,-6.2,0.83,-2.98,-3.13,16.3,-2.02,-20.75,-1.9,-2.64,15
-9.95,3.73,18.63,5.42,-10.69,3.81,7.28,-15.73,13.57,0.05,-0.59,0.83,-2.85,18.88,-2.57,0.44,-4.69,1.03,15
-8.67,3.02,19.7,7.91,-4.54,0.63,6.15,-15.23,13.39,1.27,-2.73,-2.34,-2.31,17.87,-1.84,-2.15,-0.83,-2.1,15
-7.86,2.81,20.38,5.96,-6.15,-0.59,7.45,-14.22,13.56,4.93,-6.93,-1.22,-2.58,19.29,-2.14,-2.25,0.63,-0.73,15
-7.54,2.73,19.57,5.22,-5.13,1.27,7.58,-15.03,13.43,-0.73,1.07,0.49,-1.86,19.48,-1.84,2.44,0.83,-1.86,15
-7.76,1.86,19.63,-2.2,-8.84,2.1,7.02,-14.96,13.43,-1.61,-3.86,-2.34,-2.42,18.5,-1.71,-0.1,0.59,-0.05,15
-0.14,-22.43,0.04,-304.49,0.73,79.64,5.88,-23.42,-17.77,-142.48,-209.28,150.39,-5.56,2.45,8.56,-270.95,141.75,-96.09,16
-8.46,-22.7,-9.29,-196.39,34.08,89.06,-4.64,-16.66,-18.98,-57.32,-147.8,146.34,-13.36,-15.61,9.54,-174.9,141.99,-59.33,16
-9.55,-16.49,-15.99,-130.47,44.97,73.34,-13.79,-9.27,-15.61,-12.5,-88.92,127.98,-16.47,-22.3,-1.97,-123.58,112.79,-47.36,16
-11.85,-14.01,-17.85,-31.79,21.48,23.29,-13.7,-4.65,-11.74,18.8,-6.45,34.03,-20.13,-23.08,-3.83,-28.42,30.76,-5.71,16
-7.18,-19.89,-13.04,62.4,-21.44,-15.97,-9.56,-16.03,-13.19,24.76,53.03,-42.82,-15.61,-22.21,0.13,58.5,-52.98,26.76,16
-5.83,-19.55,-12.65,150.15,-35.69,-34.42,-8.63,-14.01,-16.41,56.59,91.7,-104.59,-17.08,-17.2,2.92,139.84,-73.05,41.65,16
-6.47,-22.56,-3.81,161.03,-42.53,-45.51,-5.7,-17.34,-17.49,56.59,106.25,-117.72,-7.3,-9.43,13.63,148.05,-87.6,58.25,16
-4.69,-21.57,3.1,210.45,-33.79,-27.49,0.07,-20.31,-15.15,116.7,121.83,-109.28,-7.14,-2.4,18.99,192.09,-88.82,79.88,16
-2.56,-15.75,11.18,201.61,-16.36,-13.62,5.93,-21.39,-7.01,119.24,116.85,-82.03,-4.41,6.63,15.27,185.84,-66.99,78.13,16
-0.6,-7.38,17.59,161.67,-8.15,1.61,9.25,-14.46,0.65,100.44,73.54,-53.32,-1.87,17.48,13.31,147.8,-33.2,52.39,16
-1.13,-0.13,19.03,122.51,1.32,6.79,10.34,-9.92,7.14,63.48,47.8,-28.32,-0.46,19.11,8.33,98.05,-15.48,28.96,16
-1.47,3.56,20.17,53.47,6.74,4.69,11.53,-7.28,10.26,27.69,18.21,-9.33,0.61,21.13,4.52,50.44,-1.95,10.89,16
-2.24,3.17,20.35,1.71,3.86,3.37,14.17,-8.4,11.75,1.81,-1.95,1.9,-0.01,18.21,3.07,0.98,4.44,-8.94,16
-2.36,4.97,19.54,28.17,1.81,1.76,12.03,-7.66,12.29,16.65,6.45,-3.08,1.37,21.02,2.94,21.58,-0.34,4.05,16
-2.06,5.24,20.6,10.89,-0.98,0.1,13.24,-7.69,12.81,5.13,-3.47,-2.49,1.03,20.14,2.47,10.4,1.86,1.27,16
-1.1,4.52,20.96,8.4,-1.86,-2.29,13.44,-8.45,12.49,3.86,8.4,-3.91,1.2,18.41,2.4,8.01,-2.2,1.61,16
-0.87,5.02,20.1,5.47,-4.79,-0.88,12.86,-9.02,12.66,-0.29,4.2,-1.81,1.44,17.9,2.72,1.27,-2.1,-0.15,16
-1.29,5.53,20.47,1.22,2.64,1.42,13.93,-8.31,13.02,-0.93,2.2,-0.39,0.69,19.46,1.72,0.59,1.56,-3.96,16
-1.32,5.44,20.2,-2.2,0.68,0.63,12.77,-8.02,12.74,-2.15,-1.9,2.25,1.06,19.86,1.84,-1.22,1.42,-2.78,16
-1.95,4.87,19.95,-13.72,-0.93,0.68,14.04,-9.09,12.61,-8.2,-4.69,1.71,0.72,18.63,1.61,-11.96,3.32,-4.25,16
-2.99,-12.19,13.67,-227.2,16.99,23.0,-1.59,-19.09,-16.79,-45.8,-87.01,106.4,-14.59,-7.61,13.81,-126.66,101.37,-49.95,17
-3.48,-20.38,11.16,-186.38,-2.64,16.7,-7.05,-13.6,-15.57,-34.08,-77.73,90.92,-17.78,-15.44,4.04,-124.02,95.46,-36.77,17
-6.36,-22.93,3.45,-155.37,18.21,34.96,-8.72,-9.67,-11.4,10.06,-13.48,12.11,-21.86,-16.89,0.44,-1.86,26.56,8.59,17
-7.11,-22.61,-4.77,-133.94,32.13,50.83,-6.59,-14.35,-13.28,38.67,66.65,-49.32,-19.78,-14.69,3.16,61.62,-50.39,6.54,17
-8.06,-20.73,-12.18,-96.68,25.83,46.04,-9.48,-13.41,-16.81,91.26,98.49,-90.04,-16.65,-6.48,9.65,146.87,-86.67,44.97,17
-9.95,-17.02,-11.8,6.15,0.24,2.83,-0.65,-19.98,-13.3,92.14,73.97,-75.24,-12.7,-4.12,15.55,122.41,-72.22,49.22,17
-9.96,-21.24,-10.42,99.41,-8.2,-18.99,4.02,-20.1,-7.36,71.53,62.45,-64.16,-10.91,6.02,16.95,131.74,-51.12,55.52,17
-9.83,-18.68,-5.11,137.3,-37.6,-30.32,8.73,-19.9,-2.65,73.0,70.65,-58.4,-7.54,8.13,14.67,112.99,-43.51,49.85,17
-7.19,-20.44,2.86,140.43,-29.3,-5.86,9.79,-16.23,2.4,80.27,64.01,-53.96,-4.39,15.12,12.79,117.38,-38.53,44.09,17
-7.77,-17.35,10.07,108.01,-35.06,-8.11,8.45,-12.2,6.95,56.4,42.14,-35.89,-1.36,20.47,10.32,83.84,-31.1,29.59,17
-5.09,-14.05,14.51,124.66,-20.51,-5.42,12.5,-13.49,9.7,10.55,7.18,-15.09,-1.27,18.5,7.73,16.16,-8.06,12.89,17
-5.41,-8.34,17.43,122.95,-13.87,-2.64,11.82,-10.37,11.31,25.49,9.38,-16.7,-0.14,19.04,6.01,30.81,-8.25,17.63,17
-4.93,0.23,19.26,88.04,-14.26,1.03,13.02,-10.78,12.0,2.29,-4.35,-4.05,0.66,20.2,5.4,5.18,2.69,5.96,17
-3.34,-1.5,20.75,20.95,-13.33,1.76,14.01,-7.86,11.14,14.21,-2.98,-14.21,0.62,18.94,5.44,7.76,-3.03,9.13,17
-3.65,2.44,21.37,42.87,-13.92,4.39,12.59,-8.67,11.45,-1.81,-1.27,-0.1,0.58,18.58,4.65,4.39,2.64,-1.27,17
-2.31,2.96,21.05,5.03,-8.89,4.05,12.98,-10.49,11.54,-9.13,-2.34,1.56,1.18,18.71,5.19,3.03,1.37,4.44,17
-1.78,3.47,22.06,9.13,-14.45,-3.22,13.73,-10.5,12.15,7.91,-2.15,-2.25,1.47,18.49,4.99,5.62,3.32,2.78,17
-1.97,2.29,20.72,-1.37,-5.71,1.22,13.61,-9.65,11.66,9.08,-1.95,-2.05,2.14,18.88,4.7,-3.03,2.34,-1.81,17
-1.75,2.75,21.07,0.44,-3.61,0.44,13.92,-10.02,11.44,5.76,-1.81,-1.37,2.0,19.14,4.63,5.62,2.93,0.68,17
-2.11,2.3,20.67,3.81,-0.93,2.98,13.57,-10.43,11.67,2.05,-1.17,-2.39,1.83,19.41,4.48,4.69,-0.39,-0.24,17
-8.55,-17.72,10.54,-136.67,7.03,18.8,-10.77,-11.87,-11.99,-38.67,-31.69,15.97,-17.79,-24.98,-2.29,-92.68,9.91,-12.94,18
-7.7,-20.12,3.33,-157.96,16.36,21.78,-9.51,-14.15,-11.8,17.68,50.83,-40.97,-18.07,-21.7,0.53,44.92,-36.18,14.31,18
-9.55,-18.97,-6.07,-153.61,6.05,19.78,-7.01,-19.12,-18.46,92.63,149.71,-79.59,-16.65,-17.77,4.62,177.64,-49.71,29.64,18
-9.6,-15.33,-13.56,-111.87,0.05,15.19,-5.24,-19.11,-14.97,123.39,155.37,-104.05,-12.19,2.93,10.59,257.91,-61.04,64.89,18
-8.99,-18.54,-14.48,-49.95,-13.77,3.71,3.84,-19.15,-4.88,95.12,76.46,-87.84,-9.61,10.46,15.52,168.51,-51.22,74.27,18
-9.32,-18.9,-11.74,54.59,-13.43,-14.01,9.52,-17.24,0.11,86.47,69.82,-73.58,-7.52,12.73,13.11,122.51,-41.55,64.6,18
-10.87,-23.52,-12.43,183.3,4.39,-19.48,10.35,-13.22,5.0,56.98,42.38,-46.58,-3.77,20.38,10.25,91.16,-22.95,42.77,18
-12.03,-18.05,-1.82,228.61,-1.9,-29.0,12.8,-11.84,7.74,-3.47,-8.35,-6.05,-3.33,21.53,8.23,-10.06,0.1,-5.66,18
-6.99,-14.18,11.98,159.47,-34.62,-18.46,13.15,-12.12,8.71,3.37,1.32,1.86,-3.65,18.78,7.12,6.98,3.71,-4.3,18
-4.75,-11.34,16.46,140.53,-32.67,-15.38,12.9,-13.62,8.42,-5.91,-5.22,4.49,-3.18,17.0,7.75,-16.5,1.37,-9.57,18
-3.35,-3.81,19.65,115.97,-19.63,-7.52,12.76,-13.41,7.93,-1.95,-4.98,-3.86,-3.49,18.39,8.26,-5.22,-1.66,3.76,18
-4.02,-1.1,19.99,10.35,-1.32,1.27,13.74,-13.36,8.07,-0.73,-4.79,-9.52,-3.75,17.58,7.91,-4.74,-0.73,8.69,18
-2.7,-2.1,20.67,6.25,-0.73,3.52,14.26,-12.59,8.14,0.2,-8.64,-0.93,-2.91,19.26,8.53,1.71,6.59,7.62,18
-3.88,-2.49,20.33,-16.55,-6.84,2.1,12.85,-13.06,7.95,-2.73,3.42,4.39,-3.36,19.02,7.87,7.67,1.95,-1.07,18
-2.55,-2.49,20.78,0.05,-13.28,0.44,12.54,-14.56,7.17,-4.98,-8.54,3.71,-3.39,16.56,8.72,-11.96,4.79,-4.88,18
-2.13,-2.93,21.56,-5.13,-23.29,0.63,14.69,-12.79,7.58,-0.34,-0.44,-1.66,-3.23,17.11,9.11,-3.42,1.42,3.56,18
-1.11,-2.64,22.69,-0.1,-12.4,3.66,13.31,-13.02,7.67,-3.56,0.05,0.88,-3.43,19.58,8.63,5.66,2.98,-0.05,18
0.46,-3.59,21.99,-0.63,-3.81,1.51,13.45,-13.64,7.15,-0.49,3.61,0.39,-2.95,16.85,9.15,2.2,-0.2,0.1,18
-1.19,-4.13,20.33,-16.06,-3.47,2.2,13.45,-12.58,7.3,3.37,5.22,-1.42,-3.2,16.86,8.8,0.44,-0.63,-2.93,18
-1.51,-3.48,20.98,-0.2,-5.66,2.29,14.82,-13.46,8.39,-0.98,-0.24,-1.71,-3.21,17.52,8.69,-4.64,1.95,-0.39,18
-10.13,-19.26,-6.92,-126.9,9.23,35.99,-6.22,-15.59,-15.02,-48.88,-103.66,70.21,-13.43,16.96,12.96,217.43,-32.71,66.85,19
-9.94,-16.7,-14.14,-147.71,20.26,37.35,-12.08,-10.83,-13.63,-55.42,-117.87,84.47,-10.59,12.89,13.19,88.23,-32.71,55.22,19
-11.94,-15.88,-15.62,-20.02,-9.81,10.99,-13.7,-7.93,-11.22,11.82,-26.76,1.86,-4.85,18.93,10.83,101.32,-25.59,54.64,19
-8.56,-13.9,-9.12,22.51,-18.8,-3.12,-13.13,-9.03,-10.77,16.36,8.5,-16.55,-4.78,17.22,8.01,44.53,-5.27,26.86,19
-10.63,-17.12,-11.83,58.54,1.42,-10.64,-10.38,-11.93,-10.85,28.22,48.0,-30.57,-3.34,16.89,6.57,25.1,0.59,10.45,19
-11.42,-21.64,-11.25,184.52,-10.25,-18.12,-9.36,-18.1,-15.75,82.57,128.22,-87.01,-1.9,18.59,5.64,26.46,-3.22,12.74,19
-10.03,-20.21,-2.69,199.07,-23.44,-27.0,-2.64,-18.27,-14.04,95.51,122.36,-116.6,-0.91,19.72,5.45,4.15,-0.29,6.3,19
-9.22,-13.69,7.93,188.72,-16.02,-22.17,-1.23,-18.61,-9.11,89.79,107.76,-90.19,-1.62,19.65,4.57,10.06,-0.73,6.84,19
-8.67,-11.08,15.33,99.22,-31.49,-15.67,7.45,-18.66,-1.48,46.04,49.37,-71.04,-1.63,19.78,3.75,8.59,1.37,7.62,19
-4.68,-5.61,18.96,109.86,-22.85,-3.81,10.31,-15.45,1.91,58.01,47.95,-57.28,-1.25,18.72,3.69,4.59,-0.93,4.1,19
-3.31,-0.95,19.85,58.64,-8.94,-2.93,12.07,-11.53,6.0,21.92,19.29,-29.83,-1.03,19.06,3.5,3.86,3.03,3.27,19
-3.92,-2.19,19.97,30.27,-1.32,1.61,14.31,-12.19,6.52,17.28,12.21,-15.72,-0.52,19.25,3.5,2.49,2.59,3.42,19
-4.47,-0.23,20.09,28.95,-3.56,0.49,14.16,-10.55,8.03,12.35,14.84,-14.26,0.49,18.88,4.73,4.64,1.17,-0.49,19
-3.32,1.78,21.14,9.37,-9.81,2.98,15.43,-10.03,9.46,4.44,1.17,-3.42,0.13,19.12,3.92,5.52,1.07,0.29,19
-4.38,1.0,21.24,11.72,4.88,-2.73,14.53,-11.07,9.81,2.83,15.09,-0.78,0.15,18.18,4.62,2.15,3.22,3.08,19
-5.97,1.16,20.17,10.55,12.35,1.66,13.55,-11.39,10.54,8.54,21.83,4.93,0.93,17.85,4.22,0.1,-0.49,1.9,19
-5.49,1.13,20.32,-1.51,3.22,0.44,13.67,-11.22,11.34,1.56,8.45,-2.1,0.03,18.93,3.37,2.49,-1.86,-0.05,19
-3.93,3.27,20.94,8.98,-5.08,1.37,12.77,-9.79,11.84,10.35,11.28,0.2,0.23,19.41,3.67,4.59,0.39,3.47,19
-3.58,4.55,20.86,9.86,-8.45,1.12,12.15,-9.23,12.73,7.52,10.5,2.44,0.17,18.96,3.22,6.98,1.03,3.22,19
-2.63,3.79,21.17,9.03,-3.61,2.29,12.04,-9.46,12.93,4.35,8.54,3.32,0.73,19.73,3.01,0.63,1.27,-2.1,19
-5.31,-15.06,9.56,-266.75,9.57,-21.14,-0.59,-3.95,-16.08,-37.5,-96.34,9.08,-15.75,-25.65,5.36,-149.8,0.68,-31.69,20
-6.18,-27.91,-4.28,-316.55,-16.5,34.72,-6.91,-4.48,-14.0,29.35,-26.27,-5.47,-16.25,-24.98,3.51,-28.42,-0.44,3.76,20
-5.96,-29.64,-11.93,-197.51,-39.99,-0.2,-3.76,-13.82,-14.65,75.49,92.72,-56.25,-16.82,-13.42,5.31,123.34,-45.7,26.12,20
-6.17,-25.73,-14.37,-109.72,-19.09,-19.43,-4.78,-21.63,-22.6,159.96,167.43,-92.97,-13.4,-10.25,9.56,264.84,-50.54,59.42,20
-6.79,-22.66,-13.56,-32.32,-14.36,1.12,3.51,-19.11,-13.25,116.8,125.34,-112.7,-11.43,5.7,13.06,235.74,-46.78,82.67,20
-7.13,-23.38,-8.74,113.38,3.52,-8.98,5.24,-15.45,-1.8,119.73,93.12,-74.56,-7.42,21.62,10.25,159.81,-28.52,91.21,20
-7.15,-25.72,-9.28,255.96,10.69,1.61,6.92,-11.85,5.15,91.6,53.52,-48.1,-4.32,21.63,7.7,98.24,-36.62,72.51,20
-6.59,-22.28,3.9,222.17,-5.91,-7.47,10.52,-13.32,7.91,11.52,9.81,-14.84,-1.4,17.33,7.94,14.45,-19.63,21.04,20
-7.68,-8.32,13.71,191.21,-7.96,8.84,11.13,-11.24,9.56,13.18,6.35,-9.03,-1.33,18.54,5.07,18.21,-4.54,15.19,20
-5.91,-1.0,16.99,137.94,-16.5,8.69,12.96,-12.04,11.14,-3.42,0.24,-1.56,-0.84,19.8,4.73,0.2,-1.56,4.74,20
-2.58,-1.23,20.25,37.16,-2.25,-0.54,13.76,-11.09,10.99,5.57,0.1,-2.2,-1.18,18.98,4.02,1.81,0.39,2.64,20
-2.55,1.21,20.17,29.44,-4.69,1.32,12.98,-11.74,11.51,1.42,-0.63,-2.88,-0.67,18.89,4.15,1.51,2.49,1.76,20
-3.11,1.14,21.64,3.61,-5.96,-0.68,13.07,-11.3,11.33,2.25,1.66,-2.15,-0.47,19.41,4.35,2.1,2.0,2.25,20
-3.44,0.7,21.68,4.0,-7.91,1.81,12.51,-10.84,11.23,0.34,3.71,0.59,-0.12,19.06,4.3,1.86,-1.17,1.42,20
-3.95,0.98,21.08,1.51,-3.17,-1.66,12.77,-11.58,11.49,-3.42,0.78,3.81,0.09,19.3,4.73,-1.66,2.44,-0.93,20
-2.97,1.47,20.94,4.3,-4.98,1.61,12.38,-10.82,11.63,-2.44,-1.81,2.39,-0.24,19.36,3.7,0.05,5.52,-1.27,20
-2.75,1.63,21.35,2.25,-4.98,0.0,12.75,-11.03,11.94,4.59,-1.22,-4.3,-0.0,19.61,3.83,6.4,-0.05,5.86,20
-2.4,1.76,21.63,0.49,-3.17,0.93,12.35,-12.4,11.15,-4.0,2.2,-0.54,0.4,19.18,4.14,-2.15,-3.96,5.71,20
-3.4,2.07,21.0,-3.13,-0.54,-0.44,12.06,-11.08,11.21,-5.13,3.42,-2.49,2.48,17.99,4.74,-1.27,-18.46,10.6,20
-3.46,1.87,20.63,4.83,-4.83,-0.44,13.11,-10.36,11.52,-1.95,3.96,-1.07,0.65,17.9,3.72,3.56,3.03,-1.22,20
-11.12,-21.38,-13.57,-222.95,21.92,38.33,-7.3,-13.35,-10.99,61.87,62.45,-28.47,-11.91,5.15,15.32,-164.26,95.9,-49.12,21
-9.83,-16.36,-14.33,-47.22,4.25,30.27,-9.78,-24.08,-21.88,159.57,158.74,-71.68,-13.99,-5.77,7.43,-218.6,106.49,-64.7,21
-9.13,-17.94,-9.92,-12.16,-11.18,4.2,0.11,-19.87,-14.22,167.19,153.32,-145.07,-20.73,-28.76,-2.95,-134.81,74.9,-37.4,21
-7.57,-15.09,-9.9,106.74,7.76,8.15,6.76,-23.58,-3.29,141.65,97.22,-108.54,-17.51,-15.75,2.74,-22.75,1.03,6.2,21
-9.07,-18.56,-9.83,257.28,-6.54,16.26,5.68,-16.95,4.0,141.99,39.94,-66.02,-15.7,-18.55,2.61,96.14,-29.39,20.75,21
-0.46,-12.67,7.7,251.27,-127.15,-27.25,8.91,-12.47,9.74,22.12,-15.82,-29.74,-10.39,-21.41,5.6,215.48,-61.62,54.05,21
-4.68,-12.95,14.89,227.83,-73.49,-15.97,14.78,-13.18,10.22,24.17,-5.62,-7.62,-13.75,-0.97,10.77,226.07,-93.36,109.08,21
-4.94,-4.67,18.95,184.23,-25.68,14.4,14.47,-10.56,11.48,15.19,2.39,-1.95,-8.51,11.4,13.53,152.78,-67.24,88.67,21
-5.34,1.84,19.74,54.49,-2.25,12.65,13.15,-10.16,12.1,16.94,-2.0,0.78,-2.55,20.18,9.14,202.29,-52.78,89.84,21
-4.27,0.59,20.17,23.58,-4.15,10.06,11.75,-12.11,12.35,2.15,-4.1,2.25,-2.31,21.14,6.48,52.25,-11.18,21.48,21
-4.45,3.57,20.08,16.89,-4.15,4.79,11.52,-11.23,12.19,0.93,-0.1,-0.93,-2.54,18.42,3.04,19.48,3.86,7.81,21
-6.1,4.34,20.02,17.43,-9.96,13.38,12.31,-11.06,12.28,4.44,2.25,1.37,-2.59,18.12,1.77,6.4,4.79,3.66,21
-5.55,3.26,20.01,0.44,-2.1,5.81,11.23,-10.95,12.27,3.66,9.47,9.33,-2.06,19.68,0.94,10.69,13.13,0.49,21
-6.45,3.95,19.91,2.2,1.76,-3.32,11.89,-12.49,12.71,-12.99,1.32,5.47,-0.89,21.19,0.73,9.47,2.34,0.49,21
-5.33,3.57,20.3,2.98,-3.86,1.46,11.46,-11.46,13.0,-0.63,5.32,2.34,-0.94,19.57,1.01,6.1,0.98,-2.39,21
-4.55,3.54,20.68,1.03,0.59,1.27,11.88,-11.36,12.82,3.71,-1.03,-0.68,-1.4,19.26,1.09,2.59,1.07,-1.12,21
-5.33,3.08,20.41,-12.5,-3.56,-0.68,11.9,-12.2,12.65,3.17,-0.59,0.54,-1.38,19.93,1.01,3.91,4.98,-1.42,21
-5.12,3.62,20.96,1.27,-3.08,-0.24,11.54,-11.84,12.84,-1.03,-1.22,-1.71,-1.72,18.82,1.21,0.49,4.64,-2.54,21
-5.61,2.98,20.65,-0.88,-2.83,0.54,11.61,-11.41,12.86,1.12,-2.69,-1.51,-1.54,19.16,1.18,1.42,2.15,2.0,21
-5.05,2.11,20.67,-0.34,-10.11,4.44,11.61,-11.11,12.74,2.69,-1.42,-1.22,-1.87,19.48,1.3,-4.39,-8.35,-2.78,21
-7.63,-23.09,-6.02,-239.89,1.46,81.4,-6.35,-16.52,-10.96,14.89,30.71,-21.68,-17.82,-16.6,1.09,51.95,-15.23,14.5,22
-8.24,-19.67,-11.47,-87.3,31.3,67.14,-8.4,-19.22,-17.28,72.9,140.09,-64.21,-16.3,-16.57,4.28,181.69,-46.48,30.57,22
-9.7,-15.99,-11.44,-19.43,5.22,8.54,-3.07,-24.4,-18.18,99.27,162.5,-87.79,-13.7,-11.6,12.46,204.0,-79.35,55.52,22
-10.61,-19.94,-8.55,52.05,0.54,-4.0,6.52,-24.67,-9.75,127.83,177.15,-101.46,-11.59,-2.38,10.75,244.48,-63.13,78.86,22
-9.36,-21.99,-10.53,183.35,12.89,-15.77,6.04,-13.48,1.64,114.26,102.29,-63.57,-6.21,22.19,10.32,188.28,-36.77,81.15,22
-8.43,-24.55,-3.14,224.51,1.66,-17.04,11.81,-12.15,8.33,21.78,6.3,-31.69,-6.31,17.27,8.48,28.56,-12.4,29.98,22
-4.77,-18.49,7.38,278.71,-9.77,-12.84,10.38,-11.26,9.35,19.09,3.37,-16.99,-5.28,18.36,6.78,27.29,-7.08,18.8,22
-5.06,-3.05,16.3,220.75,-12.11,4.44,11.42,-13.18,9.52,-2.98,-6.54,-2.69,-4.92,19.16,6.11,-2.78,1.37,4.3,22
-4.25,-1.42,20.2,43.99,-24.46,-0.98,12.81,-13.07,10.02,3.91,-3.56,-7.57,-4.39,18.54,6.54,-3.17,0.2,4.44,22
-5.83,-1.02,19.89,38.13,-15.82,3.86,13.05,-12.8,9.75,4.39,-3.47,-3.81,-4.01,18.8,7.11,0.54,1.9,2.39,22
-5.67,-0.66,20.18,0.98,-12.94,1.51,12.18,-12.49,9.46,5.66,-3.61,-1.32,-3.62,18.94,7.09,5.22,3.76,4.74,22
-4.69,-0.7,21.16,3.61,-13.43,0.98,11.99,-12.27,9.09,-1.12,-5.13,-1.17,-3.48,17.28,7.37,-3.42,3.32,3.37,22
-4.3,-0.47,21.61,3.76,-10.79,3.27,15.18,-13.85,9.14,-8.45,-6.69,-2.1,-3.97,15.55,7.43,-21.14,3.32,4.74,22
-3.82,0.09,21.18,5.03,-5.52,4.15,13.79,-12.37,8.99,-2.0,0.05,-3.81,-2.96,19.11,7.98,0.1,-1.22,6.93,22
-3.2,-0.72,20.95,-1.56,-6.98,1.37,13.62,-13.28,8.23,-6.98,-5.52,4.79,-1.71,19.74,8.74,-0.59,0.29,4.44,22
-2.57,-2.09,21.67,-18.99,-15.53,4.83,13.8,-12.78,8.09,-6.35,-2.49,1.03,-2.76,19.34,8.11,4.05,1.61,6.05,22
-1.93,-0.66,21.42,7.03,-3.17,3.03,14.0,-13.6,7.56,-10.6,-11.47,4.0,-2.41,18.11,8.92,-10.35,4.59,5.57,22
-0.37,-1.4,22.46,-5.66,-5.86,1.46,14.15,-12.76,7.68,-0.73,-5.66,0.93,-2.03,16.87,9.17,-9.33,-1.61,4.69,22
-0.23,-0.85,21.99,5.27,-22.85,3.27,14.23,-11.87,7.48,0.24,-7.67,-5.37,-1.8,17.36,9.21,-0.29,-1.32,3.27,22
-0.81,-1.41,21.17,-9.13,-8.54,4.15,13.38,-9.81,7.89,13.53,-6.45,-12.89,-1.94,17.64,9.4,3.76,0.44,2.25,22
-10.73,-19.13,-11.72,-52.64,8.3,48.34,2.71,-22.69,-15.95,-154.79,-198.44,148.14,-5.0,10.8,11.9,-254.39,134.52,-96.87,23
-10.75,-17.1,-12.09,-40.38,1.81,11.33,-4.72,-23.72,-19.09,-100.2,-189.31,130.42,-12.35,-9.14,2.81,-274.02,123.0,-91.8,23
-11.13,-14.05,-11.3,18.55,9.03,1.07,-6.94,-14.57,-11.26,-24.07,-73.54,65.82,-19.17,-31.01,-4.58,-148.05,72.46,-33.94,23
-11.01,-16.73,-8.9,79.74,10.84,-17.48,-15.23,-10.95,-13.49,-31.35,-31.84,19.34,-15.78,-15.48,-0.84,-61.28,6.54,-21.58,23
-11.71,-20.72,-10.55,179.15,7.03,-33.74,-13.61,-12.29,-11.55,11.08,-0.49,4.0,-17.67,-19.53,-2.51,2.05,13.82,-2.64,23
-8.34,-24.06,-2.96,215.48,-5.47,-39.01,-10.09,-14.39,-11.66,42.33,68.9,-28.12,-17.32,-17.18,-0.39,75.0,-7.08,5.52,23
-5.77,-13.08,10.84,221.58,-17.82,-31.49,-11.5,-19.2,-19.63,85.45,147.36,-67.48,-15.49,-16.16,3.57,181.88,-43.55,27.54,23
-2.49,-5.31,17.62,160.5,-9.67,-30.62,-4.1,-22.9,-19.64,96.44,167.77,-87.4,-12.02,-13.62,9.05,210.64,-59.28,51.66,23
-1.95,-0.37,19.91,93.9,-6.84,-6.2,0.98,-21.67,-10.29,125.44,163.09,-90.48,-9.58,1.29,12.19,262.94,-63.43,99.85,23
-1.85,-0.44,20.63,11.23,-12.3,-1.03,8.5,-15.0,2.68,73.39,97.36,-72.12,-7.33,12.66,11.95,148.58,-48.97,67.87,23
-2.67,0.81,21.15,25.44,-4.93,-1.22,8.09,-11.5,6.84,42.43,37.7,-29.83,-5.19,20.79,10.35,97.61,-26.12,39.31,23
-2.54,0.12,21.13,0.49,0.0,-2.2,11.71,-11.48,9.74,3.71,0.93,-8.79,-5.28,18.03,8.07,13.38,1.42,7.76,23
-2.71,0.76,21.29,10.79,-1.42,-1.86,11.78,-11.45,10.53,16.85,11.38,-6.93,-3.76,18.5,7.72,27.88,-1.32,8.59,23
-2.53,0.77,22.04,13.57,-0.34,-2.73,13.44,-11.67,11.14,0.63,1.37,-1.42,-4.09,18.2,7.6,-1.17,-1.9,-3.76,23
-11.03,0.37,19.4,-11.57,26.95,-5.13,12.54,-11.19,11.17,4.64,4.15,-4.69,-4.72,17.48,6.14,8.79,-5.18,4.05,23
-4.87,1.69,20.39,-1.22,-3.42,-2.88,13.72,-11.36,11.49,8.35,10.84,-2.34,-3.85,17.28,5.69,16.06,1.95,5.08,23
-4.7,0.06,21.2,-2.2,-5.37,-2.69,11.85,-12.32,11.54,-8.25,4.15,2.0,-3.66,20.04,5.67,15.53,-0.24,-10.45,23
-4.04,1.03,21.12,0.29,-4.3,-2.44,11.15,-12.35,11.16,-9.28,4.54,-4.64,-4.18,18.66,4.53,9.03,-3.71,3.42,23
-3.51,2.46,21.31,4.1,-6.64,0.24,11.62,-12.55,11.16,1.12,3.22,-4.35,-3.33,17.84,5.44,-1.37,-2.29,5.37,23
-2.66,2.67,21.09,-0.54,-4.83,-4.49,12.42,-12.4,11.74,-1.95,0.93,-4.05,-2.95,18.22,4.8,4.69,-1.03,10.01,23
4.55,-28.81,5.21,-220.36,-40.23,108.25,4.89,-23.73,-17.17,-91.41,-177.64,108.5,-7.3,-7.66,15.02,-198.05,133.35,-16.36,24
-4.9,-18.75,-3.69,-111.72,17.33,109.33,-0.0,-18.61,-18.03,-4.88,-141.11,107.52,-17.36,-8.96,8.6,-83.11,147.31,-12.55,24
-9.42,-18.68,-10.37,-83.11,14.36,74.61,-5.75,-11.45,-14.77,10.84,-95.75,70.21,-19.76,-15.04,2.34,-82.32,99.66,-5.47,24
-9.66,-19.37,-11.3,-49.85,10.64,22.71,-9.25,-11.65,-15.15,0.98,-35.4,35.6,-17.89,-13.66,3.57,-43.31,33.84,-18.8,24
-8.16,-19.47,-7.93,38.87,3.96,-6.64,-6.4,-15.44,-14.49,27.88,29.54,-14.7,-16.89,-15.03,4.08,43.99,-24.51,21.73,24
-6.39,-21.28,-7.04,147.8,13.13,-26.42,-2.74,-17.17,-16.05,77.78,123.93,-53.42,-16.12,-15.88,2.87,150.73,-58.79,30.27,24
-6.84,-24.87,-2.84,191.8,1.66,-36.08,0.58,-21.33,-18.21,86.47,151.61,-79.64,-13.07,-11.79,11.39,169.87,-85.06,41.7,24
-4.6,-20.13,8.24,221.0,-5.37,-24.76,9.9,-22.12,-8.15,108.4,158.15,-82.32,-10.41,0.68,12.75,196.04,-73.83,55.08,24
-5.06,-10.84,15.12,163.38,-0.68,-5.86,8.12,-14.09,-0.11,96.83,85.99,-51.22,-4.79,19.51,15.29,160.89,-48.44,55.13,24
-4.77,-7.43,19.05,71.83,-3.96,-2.29,10.53,-14.08,5.21,53.42,35.21,-24.17,-3.88,15.14,13.7,71.39,-31.54,30.27,24
-4.58,-4.63,19.59,36.03,-5.71,1.71,10.64,-13.38,7.6,30.47,11.28,-14.75,-3.39,14.66,10.81,31.4,-10.3,13.23,24
-2.34,-2.73,20.85,26.61,-13.87,5.22,12.58,-13.23,8.93,18.21,3.81,-14.01,-1.78,15.91,10.36,18.9,-5.18,13.96,24
-2.05,-1.59,20.83,3.81,-24.22,8.2,13.29,-11.55,9.31,21.78,-3.27,-11.04,-1.54,17.47,9.34,3.71,0.15,15.09,24
-0.83,-0.31,21.84,8.4,-9.08,5.91,14.63,-11.18,10.42,11.33,-1.07,-5.52,-0.85,18.25,8.7,6.01,-0.29,11.08,24
-0.58,0.2,22.21,5.71,-7.47,3.61,13.04,-10.88,9.84,-0.78,-1.66,0.2,-0.64,19.67,8.5,4.69,2.0,4.39,24
-0.23,-0.22,21.38,2.69,-8.06,3.13,13.01,-10.28,9.86,-0.44,-3.27,1.95,-0.5,18.37,8.28,2.1,0.83,2.15,24
-1.21,0.41,20.37,2.93,-4.44,1.95,13.98,-10.18,10.25,6.84,-5.91,-4.88,-0.61,18.45,8.18,5.03,3.22,4.15,24
-0.59,0.1,21.35,0.34,-6.49,2.05,14.77,-9.14,9.99,4.69,-3.42,-2.73,0.26,18.15,8.83,-1.71,1.32,0.83,24
-0.61,-0.57,21.29,-1.22,-3.47,2.44,14.16,-9.83,9.68,1.86,2.0,-2.54,-0.39,17.88,8.22,-1.47,1.17,-2.25,24
-0.22,-1.33,21.31,-4.64,0.54,-0.44,14.33,-11.92,9.85,-0.88,0.93,-0.34,-0.16,18.07,9.18,-0.39,0.63,-1.56,24
-0.57,-24.49,2.23,-298.88,-39.06,85.69,2.7,-15.7,-21.74,-38.09,-178.42,106.05,-13.17,-8.91,11.56,-187.99,128.17,-45.51,25
-4.1,-25.18,-5.34,-214.75,-9.08,74.85,-0.93,-16.46,-18.18,3.81,-153.03,91.46,-17.28,-26.34,-2.58,-198.97,113.28,-30.03,25
-6.72,-23.23,-11.5,-98.58,2.83,89.11,-9.1,-5.36,-12.13,11.43,-27.34,36.72,-19.31,-16.79,-2.8,-46.09,48.88,-7.32,25
-8.93,-15.7,-11.6,-44.92,8.11,27.34,-11.6,-12.18,-15.0,4.44,28.76,-11.87,-15.34,-21.4,1.64,14.45,-19.97,8.94,25
-7.99,-18.17,-11.56,34.67,5.42,-4.74,-7.18,-14.44,-14.53,33.79,107.08,-51.66,-12.38,-16.49,3.14,120.85,-51.61,24.76,25
-6.96,-18.46,-8.86,124.61,12.26,-25.1,-3.97,-19.7,-21.38,70.17,178.66,-85.79,-9.79,-16.05,7.59,196.34,-82.81,42.24,25
-5.57,-25.54,-6.02,203.91,12.99,-33.35,2.1,-18.88,-16.03,131.93,152.1,-75.78,-13.06,-0.79,13.82,249.85,-42.14,76.17,25
-5.56,-20.4,3.89,200.88,10.84,-3.52,5.94,-15.36,-5.13,146.19,132.81,-81.93,-7.09,8.85,11.31,258.84,-48.29,112.11,25
-2.95,-7.34,13.21,226.46,-19.19,-2.69,6.93,-9.19,4.48,90.19,65.38,-43.07,-4.94,20.78,10.75,146.48,-28.66,73.63,25
-2.63,3.34,18.52,136.43,-9.81,9.67,10.93,-10.33,9.4,-22.02,-12.4,-5.86,-5.14,16.14,7.91,-17.48,-1.46,6.1,25
-3.9,0.02,19.46,-21.29,-14.06,-3.32,12.47,-11.64,10.62,3.17,-1.22,-7.13,-4.48,17.78,8.18,8.3,-3.37,5.03,25
-4.64,0.37,22.51,1.76,-11.82,-0.68,12.54,-12.07,10.51,7.91,4.98,-7.67,-4.07,18.2,7.82,7.03,-3.91,5.08,25
-4.46,0.0,21.64,17.82,-12.21,3.37,13.83,-11.86,10.84,8.06,3.52,-11.57,-4.09,17.35,6.94,-1.9,0.83,5.76,25
-4.08,-0.45,20.77,13.38,-13.77,0.93,12.86,-9.3,10.43,10.25,1.27,-5.47,-2.67,18.26,7.37,2.98,-1.66,7.91,25
-1.18,1.18,21.64,12.65,-14.11,5.57,12.6,-11.71,10.76,8.59,1.42,-3.08,-2.23,16.59,6.91,1.76,-0.73,10.94,25
-0.58,0.78,20.94,15.09,-5.37,6.1,13.79,-10.97,11.69,-0.24,-6.59,-0.34,-0.9,19.3,6.64,2.78,-1.61,12.84,25
-0.84,2.98,21.17,2.39,-6.64,5.22,13.09,-10.02,11.5,-0.63,0.1,0.88,-0.86,19.25,6.14,4.93,2.49,4.54,25
-0.7,2.22,21.54,3.27,-7.67,4.74,13.23,-11.27,11.51,7.47,-1.37,-2.49,-1.09,18.12,6.3,7.03,1.76,1.46,25
-1.3,2.05,20.88,7.37,0.05,2.25,13.49,-10.18,11.29,-1.03,-0.44,-0.88,-0.84,19.02,6.25,1.12,1.32,0.78,25
-1.08,1.52,20.81,-3.13,-3.12,0.44,13.74,-9.79,11.62,3.91,1.12,-2.93,-0.9,18.04,6.15,-0.49,1.61,3.81,25
-6.34,-23.51,-1.22,-271.58,-16.36,59.08,-13.16,-11.9,-13.12,-13.57,-17.82,20.31,-16.06,-18.18,-0.28,-31.01,27.78,-14.99,26
-8.96,-24.63,-10.35,-191.02,-8.54,61.38,-10.59,-10.95,-9.99,16.26,19.78,-3.42,-17.07,-14.14,-1.3,23.83,-15.09,7.91,26
-8.37,-16.44,-11.01,-55.62,-1.46,39.75,-4.95,-13.5,-12.28,46.0,104.44,-54.88,-18.33,-17.47,-1.91,114.45,-44.48,8.11,26
-10.23,-18.13,-11.94,-25.2,4.98,15.09,-6.44,-17.97,-18.41,117.09,159.81,-89.16,-18.43,-10.8,4.27,223.97,-37.74,58.01,26
-10.16,-14.31,-10.13,27.1,5.96,1.37,0.06,-21.28,-14.16,107.91,163.77,-99.8,-14.11,-2.72,9.49,228.66,-69.38,81.74,26
-9.98,-20.91,-10.18,116.06,0.49,-30.13,3.23,-17.29,-3.56,114.26,87.55,-62.45,-9.02,14.43,14.52,165.38,-55.03,95.95,26
-9.48,-20.63,-5.51,209.42,-18.46,-27.78,9.64,-15.51,4.44,62.79,20.41,-39.5,-6.47,17.59,13.42,82.52,-18.07,70.41,26
-9.36,-19.7,3.27,221.97,-25.24,-38.92,11.87,-16.01,7.81,26.66,7.62,-35.45,-6.36,17.06,10.44,33.15,-12.94,36.13,26
-6.83,-12.86,14.63,155.13,-23.14,-9.81,11.5,-12.84,8.16,19.48,9.81,-24.37,-4.52,16.81,9.18,27.49,-8.06,20.7,26
-4.17,-5.75,19.93,80.37,-34.13,11.38,12.33,-11.33,9.43,10.84,2.88,-9.62,-3.62,17.47,7.97,16.55,0.05,13.23,26
-3.46,-4.99,20.98,49.76,-26.86,6.1,12.74,-10.27,9.68,-18.75,-12.26,-0.68,-3.87,18.3,6.41,-4.39,0.15,8.69,26
-3.04,-2.89,20.48,37.89,-15.43,1.81,13.58,-10.69,9.65,2.54,-4.39,-1.81,-3.53,17.11,7.4,2.69,0.1,1.51,26
-1.96,-1.1,20.59,19.97,-8.94,2.83,13.9,-11.42,9.47,2.88,-2.78,-1.51,-2.98,17.9,8.32,-0.0,0.34,0.24,26
-2.9,0.46,19.97,-16.8,-6.05,0.24,13.16,-12.26,9.77,6.84,0.39,-0.63,-2.29,18.3,8.33,8.2,0.2,3.56,26
-2.67,-0.9,20.8,-1.32,-2.34,0.54,14.53,-10.72,10.12,1.61,0.15,-0.54,-2.23,18.53,7.06,9.18,0.73,2.88,26
-2.13,-0.82,21.62,1.17,-2.15,-0.49,13.98,-10.22,9.84,-5.81,2.1,-0.1,-0.89,18.33,8.57,8.89,1.07,0.24,26
-1.44,-0.77,21.74,9.86,-2.88,2.64,13.86,-9.45,10.05,-7.62,-6.05,-3.56,-2.12,17.97,7.54,-7.18,11.62,4.54,26
-1.87,0.53,21.42,4.83,-3.71,-1.37,14.14,-9.96,9.53,9.67,0.73,-5.47,-1.62,18.33,7.26,0.39,3.71,6.4,26
-0.94,0.75,21.24,1.32,-5.71,-4.88,14.24,-11.64,9.57,5.86,1.42,-0.05,-0.86,18.21,8.3,-0.88,-0.1,-0.63,26
-1.67,1.38,21.08,0.34,-5.57,-1.76,13.11,-11.39,9.62,1.51,3.22,1.07,-1.67,18.58,7.23,2.93,-2.64,-2.1,26
-1.71,9.06,17.15,-198.29,21.24,0.2,2.09,-21.28,-14.11,-99.85,-169.29,97.61,-11.28,4.87,10.21,-215.72,74.32,-89.7,27
-6.37,-14.32,10.4,-222.22,-0.29,21.14,-2.94,-19.98,-17.26,-65.58,-120.12,74.85,-15.61,-6.72,12.48,-169.29,52.83,-52.34,27
-10.74,-22.66,1.74,-232.42,-9.62,32.91,-8.15,-18.54,-19.12,-88.72,-145.02,74.37,-15.22,-11.35,8.09,-195.36,49.07,-44.29,27
-7.06,-23.38,-1.99,-167.87,-14.01,43.26,-8.76,-13.86,-13.68,-6.69,-54.93,41.21,-19.1,-23.93,0.51,-85.21,45.61,-16.94,27
-6.65,-23.51,-10.01,-159.57,-13.48,44.48,-7.62,-12.45,-12.34,19.09,31.98,-20.51,-18.73,-16.68,1.87,33.11,-15.33,13.53,27
-10.2,-20.12,-12.31,-44.43,5.08,32.76,-3.73,-14.98,-15.53,68.31,115.97,-53.12,-16.36,-17.91,2.7,109.57,-19.68,16.6,27
-8.66,-19.25,-8.86,41.94,-0.49,-13.04,-3.8,-17.52,-18.46,126.95,144.48,-60.94,-17.08,-11.82,9.94,223.39,-13.72,37.55,27
-7.8,-22.6,-8.73,148.05,1.71,-28.96,1.87,-18.96,-10.44,122.95,155.27,-82.13,-16.4,-2.16,13.11,217.14,-65.72,70.75,27
-10.87,-19.61,-2.18,187.11,15.63,-18.99,7.99,-19.72,-4.29,68.6,97.22,-51.42,-12.09,12.69,13.79,124.61,-51.86,55.91,27
-7.66,-13.75,8.74,233.98,-1.07,-40.72,8.68,-15.58,0.61,88.92,51.95,-52.93,-11.03,12.49,12.34,88.77,-22.71,47.85,27
-6.78,-12.85,13.17,154.69,2.34,-27.73,11.16,-12.73,5.12,77.78,27.44,-41.65,-6.88,15.52,10.54,72.51,-11.28,54.79,27
-5.14,-8.78,16.09,121.39,-24.37,-12.4,10.84,-11.41,8.17,27.25,-16.11,-6.64,-3.2,20.82,7.39,50.2,-8.74,10.35,27
-3.08,-3.77,19.13,95.26,-25.83,-4.93,11.85,-12.95,10.4,13.53,0.54,-9.81,-4.21,15.29,4.28,12.11,6.79,3.37,27
-1.52,-1.4,19.96,24.27,-6.88,7.62,11.8,-13.81,10.82,3.37,-9.81,4.25,-3.21,20.75,3.57,-0.98,7.67,3.37,27
-3.88,-1.58,19.34,17.63,0.98,1.27,12.63,-13.62,10.32,8.79,0.24,-1.86,-2.65,18.24,4.24,11.23,2.88,13.18,27
-3.4,-0.74,21.24,-6.3,-1.07,8.25,11.53,-13.2,9.93,-1.07,-4.35,8.59,-2.14,19.21,4.8,-2.44,10.11,-5.76,27
-2.5,-0.27,21.92,12.79,-1.37,3.81,13.41,-11.47,10.72,12.94,-7.91,-7.32,-2.95,18.49,3.72,3.66,3.13,1.32,27
-2.51,-1.65,20.85,-5.27,0.73,9.52,12.91,-12.56,9.61,-7.91,3.13,-2.29,-2.49,20.34,4.06,8.11,-2.15,0.1,27
-2.48,-0.62,20.29,9.18,-4.05,1.17,11.21,-12.74,9.92,-1.56,2.2,1.71,-3.31,20.38,3.39,4.64,0.68,4.44,27
-3.17,-0.38,20.92,-3.42,0.05,-6.01,12.39,-13.45,10.04,-1.42,1.42,-3.03,-3.09,18.57,3.31,0.63,3.13,5.91,27
-3.94,-1.21,7.66,-312.45,74.61,24.9,-7.83,-16.83,-18.13,-108.74,-135.01,105.76,-13.92,-14.62,1.17,-237.5,47.85,-84.96,28
-5.35,-19.48,7.55,-211.43,29.49,38.38,-11.1,-15.13,-14.55,-19.82,-31.93,35.5,-16.78,-32.76,-2.13,-60.01,32.52,-19.04,28
-9.03,-21.05,-2.32,-230.57,-2.78,35.4,-13.01,-9.55,-11.48,4.54,-4.1,-5.76,-16.75,-15.97,-0.61,-12.35,-11.82,10.5,28
-8.89,-21.52,-13.16,-204.49,7.28,29.05,-7.48,-13.81,-11.97,54.78,72.31,-48.78,-16.68,-16.69,-0.57,94.92,-22.56,26.07,28
-11.18,-17.07,-13.89,3.66,4.93,25.34,-7.04,-21.47,-20.45,139.84,184.23,-98.88,-15.41,-18.37,2.82,227.64,-48.44,65.53,28
-9.62,-16.08,-11.24,14.11,-16.11,2.1,0.98,-23.67,-11.09,126.37,160.6,-99.9,-13.61,0.17,8.5,280.96,-49.41,79.64,28
-13.0,-18.47,-11.81,115.58,-9.57,-26.76,5.6,-24.71,-1.73,89.45,99.41,-51.56,-9.73,15.87,9.87,195.61,-53.27,93.46,28
-11.06,-20.37,-7.62,252.1,-16.11,-36.38,8.26,-14.23,5.21,22.12,36.18,-29.64,-5.94,21.59,9.55,91.8,-19.24,50.54,28
-10.6,-15.15,6.26,246.68,-13.04,-43.41,10.09,-14.14,7.4,-37.79,4.79,-2.29,-6.96,16.7,7.12,-9.57,-4.2,2.39,28
-7.45,-14.01,14.74,183.98,-13.13,4.74,9.34,-11.74,9.12,4.93,9.23,-8.74,-5.78,17.97,7.0,29.2,-10.21,6.3,28
-6.09,-8.69,19.09,37.3,-12.3,-1.66,10.04,-14.2,9.4,-15.14,-3.22,1.76,-6.97,18.19,4.58,-5.76,3.81,-3.86,28
-3.57,-6.92,19.56,-35.99,-1.9,-7.81,12.91,-14.01,9.45,15.58,-7.67,-2.34,-5.72,18.49,6.86,8.69,2.2,5.47,28
-3.56,-2.71,20.51,9.81,-0.73,-5.57,9.98,-16.11,9.02,-3.66,2.0,4.83,-5.95,17.98,5.48,-4.15,-3.76,2.0,28
-4.26,-3.0,20.59,-9.03,4.1,-4.2,9.75,-14.97,9.26,3.22,-2.25,-1.22,-5.66,18.01,5.4,5.91,0.59,3.56,28
-3.75,-3.69,21.78,-0.1,-6.49,5.37,10.86,-14.29,9.19,-0.15,1.66,-1.51,-5.83,18.96,4.97,8.15,1.66,6.79,28
-1.96,-3.38,21.11,6.54,2.39,5.37,10.99,-14.97,9.78,5.57,-1.95,0.34,-5.5,17.86,4.91,2.15,1.42,4.74,28
-3.94,-1.78,20.53,8.11,1.32,3.76,11.09,-13.87,9.49,9.81,-2.44,-0.83,-5.18,18.97,4.75,6.64,2.59,5.96,28
-2.23,-2.73,21.42,1.17,-6.05,-0.15,10.48,-14.36,9.47,2.73,1.86,-0.49,-5.03,19.25,4.46,10.5,2.88,3.08,28
-3.76,-2.21,21.39,4.54,4.74,0.44,10.84,-14.95,9.45,0.78,-1.81,-2.98,-4.56,18.22,4.54,-3.61,-0.34,2.88,28
-4.11,-2.87,20.36,-2.73,-2.98,-0.44,11.43,-14.78,9.75,-1.42,-0.34,-1.76,-4.72,20.05,3.93,0.49,3.32,3.42,28
-12.69,-7.8,13.9,-161.91,62.16,-38.09,11.48,-13.35,11.55,0.49,-8.59,5.71,-19.88,-27.94,-1.17,-227.25,68.16,-75.15,29
-8.8,-13.15,8.0,-231.64,19.58,-23.1,11.73,-11.94,11.84,-5.13,-0.44,-0.24,-17.7,-16.47,0.56,-37.7,19.73,-24.66,29
-10.07,-19.17,-9.02,-266.55,13.04,-18.8,11.49,-12.61,11.65,-1.32,1.32,-1.9,-16.92,-22.66,2.99,16.89,-20.7,9.72,29
-10.65,-23.63,-15.49,-136.47,20.56,-10.64,12.55,-12.11,11.39,3.76,2.1,-0.39,-15.0,-16.71,4.6,112.99,-49.95,35.6,29
-7.47,-15.29,-14.88,-46.44,7.57,-3.03,11.19,-12.47,11.17,0.15,2.88,0.63,-10.95,-11.33,11.4,176.66,-85.01,57.28,29
-9.14,-20.48,-13.21,28.71,-8.69,0.93,11.57,-12.89,11.14,-3.27,1.76,2.25,-13.35,-1.81,14.46,183.35,-66.99,70.46,29
-9.68,-19.74,-10.87,119.82,-27.1,0.88,11.45,-12.7,11.62,-2.98,1.66,0.49,-7.26,9.04,13.22,224.51,-53.61,78.08,29
-10.8,-24.96,-7.29,182.96,-30.96,-8.45,11.22,-13.13,11.34,-4.64,2.25,-0.05,-3.39,19.85,9.69,163.87,-37.5,72.36,29
-8.73,-21.84,5.28,195.31,-47.17,-9.42,11.87,-13.32,11.6,-4.35,3.17,1.22,-2.24,21.63,6.77,22.02,-3.27,21.19,29
-8.72,-14.92,9.61,209.72,-21.04,6.3,11.04,-13.68,11.51,-8.25,-0.68,0.0,-1.4,17.84,5.2,-7.28,3.42,2.49,29
-7.22,-3.58,14.64,200.24,-18.31,18.99,10.59,-12.74,11.42,-4.93,0.88,-0.1,-1.26,19.52,5.87,-4.25,2.64,-2.83,29
-7.15,3.61,18.19,62.26,-11.47,9.23,11.15,-13.41,11.52,-0.34,1.37,0.2,-0.48,18.52,6.27,-0.78,1.27,4.1,29
-6.79,-1.1,20.0,10.69,-3.22,7.42,11.5,-13.1,11.59,-0.1,1.03,2.15,-0.7,19.06,6.21,-3.42,0.78,3.71,29
-5.64,-0.05,20.58,-2.83,1.27,5.22,11.02,-13.66,11.52,-0.93,-1.86,1.51,0.33,18.51,6.56,-5.66,-0.63,5.47,29
-4.13,-0.17,21.01,1.9,-7.76,2.25,11.64,-13.63,11.62,-3.52,0.34,0.15,-0.74,17.81,5.89,-0.93,-0.34,3.13,29
-4.01,0.26,21.05,1.61,-8.06,4.39,11.05,-12.8,11.57,0.1,2.0,-1.81,-0.16,19.28,6.51,-1.22,1.07,-0.54,29
-2.81,0.03,21.27,-4.49,-13.28,5.81,10.83,-13.02,11.7,1.07,2.25,-2.49,-0.56,18.8,5.57,3.32,-0.15,6.4,29
-4.21,0.53,20.43,3.56,-7.42,1.9,11.2,-12.46,11.45,1.95,0.0,-1.56,0.9,17.85,6.77,-1.61,3.71,-0.1,29
-3.14,0.61,21.3,0.44,-2.64,2.88,11.78,-13.15,12.05,-0.49,-0.83,0.68,0.63,18.8,5.77,4.93,-1.17,-0.24,29
-2.46,0.02,21.41,1.12,-12.11,1.86,11.14,-12.81,11.67,3.08,0.83,0.15,0.23,18.54,5.3,1.86,1.46,3.52,29
-5.0,1.44,4.04,-482.47,15.67,15.87,-4.07,-12.28,-14.45,18.46,-93.6,78.08,-20.25,-28.52,0.8,-138.77,96.68,-31.93,30
-2.74,-27.36,3.22,-302.0,-7.57,52.59,-5.04,-14.95,-13.33,16.02,33.06,-22.8,-21.17,-18.87,4.2,21.58,-33.45,8.2,30
-7.89,-24.14,-7.54,-229.54,18.36,72.31,-3.6,-20.72,-19.68,134.96,166.46,-90.92,-11.93,-16.22,5.46,215.67,-58.35,43.26,30
-9.84,-20.13,-11.73,-47.22,31.35,59.08,1.51,-22.26,-13.25,143.16,150.63,-112.35,-11.43,2.26,10.71,285.6,-47.17,78.22,30
-10.33,-22.57,-6.69,58.59,-26.86,-28.08,4.09,-18.63,-4.15,111.62,92.09,-77.1,-8.1,16.4,14.24,189.06,-27.69,71.44,30
-10.24,-23.81,-8.41,252.44,0.93,-21.0,8.4,-14.43,4.52,73.83,50.49,-57.81,-6.89,16.83,10.31,104.78,-15.72,50.54,30
-8.09,-17.52,3.14,265.43,-37.4,-18.02,10.07,-12.68,7.47,31.54,16.21,-25.24,-5.32,22.42,8.11,56.3,-6.01,12.5,30
-6.5,-10.48,13.6,183.06,-22.02,-4.35,12.21,-14.31,9.78,16.8,12.3,-5.03,-4.81,18.68,5.07,24.9,-5.86,1.22,30
-3.72,-3.16,18.33,121.58,-25.44,-5.27,11.5,-13.29,9.79,-8.55,-4.25,4.98,-4.3,20.17,4.94,-6.05,1.66,-5.76,30
-2.57,-1.29,20.69,45.85,-9.67,0.49,11.22,-14.9,8.93,-4.88,-1.37,3.17,-3.45,17.46,6.76,-6.84,3.03,0.24,30
-1.96,-1.08,21.29,28.32,8.98,1.32,12.11,-14.01,9.89,-9.18,-7.67,0.49,-3.77,18.82,5.76,0.24,-3.91,4.2,30
-2.88,-0.05,21.53,-15.23,-1.81,-1.17,12.19,-11.78,9.13,-2.54,-1.07,0.49,-4.52,18.44,4.95,0.93,2.34,-2.2,30
-2.59,-2.19,21.59,-2.3,0.54,3.81,12.25,-12.85,9.09,-6.98,0.44,3.17,-3.68,18.57,5.87,-2.49,-1.17,-4.54,30
-3.36,-0.24,21.06,-2.83,0.1,3.71,12.1,-13.52,9.12,0.98,-0.59,3.42,-3.84,18.13,5.96,4.98,-0.1,-0.15,30
-3.31,-0.05,21.29,-5.37,-9.23,0.59,11.69,-13.32,9.35,0.44,-2.88,4.05,-4.89,19.79,5.09,1.86,5.42,-0.63,30
-2.42,-0.07,20.78,-1.12,1.66,-1.46,12.98,-14.16,9.95,3.91,-0.49,2.49,-4.63,19.22,5.62,0.2,5.96,0.83,30
-2.67,-0.98,21.03,-1.95,4.3,1.32,12.22,-12.97,9.75,4.1,-3.61,2.29,-4.55,19.79,5.95,-1.51,6.93,-3.12,30
-3.26,-0.47,21.27,-1.76,0.59,4.59,11.58,-14.13,8.88,2.69,1.37,1.22,-4.31,18.2,6.25,0.1,0.78,-1.66,30
-3.04,-0.66,21.93,3.76,1.51,5.18,11.67,-13.67,8.84,-0.05,1.61,-1.42,-4.34,18.59,6.48,4.69,-0.1,-0.34,30
-3.66,-0.61,21.27,3.12,2.69,4.2,12.02,-13.91,9.13,0.49,-0.2,-3.27,-4.5,18.47,6.58,6.4,-2.34,2.88,30
-5.5,-27.58,-8.75,-234.52,-21.19,89.7,-6.69,-13.61,-14.75,17.82,34.28,-18.12,-13.01,-20.0,7.49,23.0,-13.72,-15.23,31
-8.91,-18.18,-11.79,-36.52,16.6,49.46,-5.62,-18.0,-17.27,76.46,106.2,-77.1,-13.08,-14.66,10.26,175.59,-38.87,38.33,31
-7.99,-19.56,-9.57,24.22,0.78,-17.09,1.15,-20.27,-15.49,48.78,137.3,-100.0,-10.25,-7.61,14.98,201.66,-49.66,59.62,31
-5.56,-22.58,-10.77,44.24,12.5,-18.07,7.32,-16.37,-7.92,100.29,125.44,-79.49,-9.33,4.24,15.86,175.2,-40.77,58.11,31
-5.85,-23.06,-7.58,156.3,9.47,-41.75,7.37,-14.29,-1.8,83.06,61.04,-46.04,-5.34,12.96,15.77,109.13,-24.8,40.67,31
-2.15,-20.8,2.21,189.84,-1.07,-44.97,10.01,-15.82,3.05,46.24,31.64,-23.73,-5.12,14.54,11.81,69.34,-6.4,23.44,31
0.09,-14.81,9.05,188.28,-6.01,-30.08,12.36,-15.34,6.91,19.97,15.92,-11.43,-4.63,18.32,8.75,39.16,4.69,4.2,31
-1.68,-9.26,15.17,124.66,2.25,-11.96,11.71,-15.02,7.78,7.81,3.56,-4.74,-3.21,19.31,9.19,16.5,-0.15,6.59,31
-0.35,-7.71,18.47,74.71,-5.57,-2.64,13.23,-14.35,8.35,3.27,-1.17,-5.52,-3.15,16.91,7.52,-0.2,-2.05,0.68,31
-1.08,-7.41,20.05,34.81,4.69,0.39,12.73,-14.44,7.82,3.81,2.39,-6.74,-2.32,19.2,8.56,10.4,-1.46,5.81,31
-1.02,-5.01,21.21,12.5,-0.83,1.95,12.83,-13.77,8.5,-2.05,2.2,0.98,-2.6,20.17,7.73,9.91,3.71,-0.05,31
-0.35,-4.51,20.97,9.03,-9.08,0.49,12.52,-13.91,8.26,-5.18,-4.69,3.17,-2.71,19.36,7.45,-2.64,4.05,-3.61,31
0.27,-4.15,21.65,9.67,-6.3,-0.88,12.76,-13.71,7.33,-2.25,-3.76,-1.17,-2.02,17.87,8.23,-1.86,0.05,2.64,31
0.5,-3.07,21.36,2.73,2.93,0.2,13.09,-13.48,7.15,-2.44,-2.83,-3.91,-2.73,17.68,7.91,-1.17,1.27,3.81,31
-0.09,-2.95,20.97,-8.35,3.37,1.32,13.31,-13.8,6.89,3.91,-5.13,-1.56,-2.47,17.18,8.61,-1.32,2.69,4.2,31
1.3,-4.14,21.09,-2.15,-6.54,1.46,12.85,-14.2,7.27,-0.78,-6.2,0.59,-2.84,18.03,8.08,-1.66,5.42,3.91,31
0.88,-4.41,20.61,-3.52,-7.81,0.29,13.36,-14.32,6.93,-0.68,-6.01,0.98,-2.07,18.37,8.44,-2.88,6.3,1.86,31
1.14,-4.73,20.8,1.07,-4.35,4.0,14.07,-14.22,6.86,-0.24,-5.18,0.88,-2.17,18.1,9.0,0.49,4.88,3.08,31
0.24,-4.43,21.14,-2.83,-5.42,4.69,13.51,-12.82,6.99,5.76,-2.44,1.07,-1.68,18.06,8.78,-0.63,4.49,1.37,31
0.95,-5.02,20.97,-7.08,-1.9,6.1,13.26,-13.38,7.25,-0.88,-2.1,2.88,-2.19,17.61,8.14,-2.44,5.66,-2.2,31
-6.59,-24.04,-10.34,-150.49,31.3,85.84,-9.98,-19.65,-16.59,-55.57,-117.48,127.44,-13.65,-19.39,0.78,-167.24,108.15,-61.23,32
-10.16,-16.21,-15.0,-45.41,27.05,22.51,-13.55,-6.39,-16.88,10.99,-6.64,51.9,-21.23,-15.74,2.35,-6.15,60.21,-30.71,32
-8.01,-19.9,-11.85,19.92,-16.31,-1.46,-11.18,-12.75,-14.98,14.01,12.45,-17.63,-15.98,-21.59,5.71,-9.67,-22.36,6.1,32
-9.32,-19.13,-12.16,103.91,-21.48,-8.4,-8.18,-10.68,-14.31,81.1,77.39,-57.42,-16.56,-15.74,3.7,76.22,-57.18,33.59,32
-7.62,-24.15,-9.48,198.78,-42.72,-20.65,-4.17,-19.33,-17.75,114.5,121.29,-111.33,-16.24,-16.76,5.53,160.16,-71.09,73.19,32
-6.08,-19.96,3.59,251.56,-54.54,-30.03,3.69,-21.06,-12.15,152.83,134.18,-133.4,-10.58,0.73,10.2,241.94,-74.51,111.77,32
-5.48,-12.95,12.74,189.7,-46.39,-15.09,6.03,-19.42,-2.83,108.54,96.73,-90.19,-8.34,18.22,11.55,171.53,-45.85,89.94,32
-3.3,-5.65,18.51,77.44,-35.55,-4.74,9.67,-15.33,4.98,48.34,30.08,-44.09,-4.6,21.86,10.17,84.03,-18.75,52.25,32
-2.78,-2.79,19.3,38.53,5.76,0.88,12.27,-13.95,8.07,20.17,15.23,-15.58,-3.08,19.25,7.26,27.59,1.46,14.94,32
-1.93,-0.13,20.69,9.42,6.59,3.52,11.95,-12.78,9.51,-2.34,1.22,1.46,-1.97,20.52,5.46,7.08,-0.1,-2.83,32
-1.16,-4.2,20.54,-4.64,-5.37,-4.0,14.85,-15.74,9.48,-3.17,6.25,-11.08,-2.06,17.66,4.48,-0.83,-4.64,-1.12,32
-2.78,-0.71,21.53,7.86,-13.38,-10.11,12.34,-13.9,10.89,-3.13,7.62,-16.5,-2.46,22.4,4.22,13.62,-6.93,9.13,32
-0.79,-2.78,21.78,-6.15,-0.54,-3.71,13.2,-14.77,10.24,4.0,6.05,-4.49,-1.46,18.34,4.91,-10.21,-2.34,-1.46,32
-1.74,-0.59,20.51,9.52,0.34,-2.0,11.46,-12.48,10.7,7.67,1.95,-8.06,-1.01,19.25,4.8,18.65,0.2,4.44,32
-1.55,1.12,21.28,2.59,-3.17,0.2,12.89,-10.76,11.24,4.25,-2.05,-6.74,-0.66,20.09,3.39,4.05,1.86,5.66,32
-0.0,0.61,20.97,3.95,0.49,2.25,12.83,-10.12,11.01,7.28,-2.88,-0.63,0.29,18.28,4.12,-2.98,1.81,-0.68,32
0.3,-0.77,21.12,-18.12,-3.37,0.05,13.17,-12.78,10.14,-6.88,-4.25,1.56,-0.24,19.3,4.29,-8.01,0.93,-3.17,32
-0.81,-0.02,20.86,-2.59,-1.86,0.1,12.61,-12.45,10.06,-5.86,-3.47,0.29,-0.97,18.83,4.17,-1.37,1.66,-1.32,32
-0.04,-0.54,21.64,-3.32,-4.15,0.1,12.93,-12.33,10.03,-2.05,-1.9,-1.22,-1.15,18.79,4.72,-4.69,3.13,-0.88,32
0.49,-0.92,21.71,-9.47,0.05,1.22,13.27,-13.39,9.99,-5.76,-0.39,2.2,-0.61,19.72,4.98,-6.79,3.37,-3.56,32
-2.57,-16.06,5.3,-239.06,-14.16,72.9,4.42,-17.02,-13.36,-124.66,-185.01,108.79,-4.65,11.48,12.18,-242.87,97.02,-70.9,33
-6.34,-23.9,-9.59,-303.27,-40.43,68.75,-5.63,-19.84,-22.19,-150.05,-185.99,138.87,-9.72,-3.29,5.77,-315.09,108.84,-104.25,33
-9.65,-25.64,-16.94,-120.31,15.33,55.52,-5.71,-15.12,-14.21,-20.9,-78.47,94.68,-18.18,-41.79,-6.31,-254.54,99.46,-61.08,33
-13.45,-15.55,-13.9,-0.98,-7.42,2.0,-15.04,-7.66,-13.64,2.93,-5.32,2.15,-20.8,-14.9,2.58,-5.47,-1.46,14.06,33
-7.59,-23.94,-8.09,102.69,-6.2,-28.22,-6.72,-19.0,-12.55,56.74,65.87,-65.72,-12.7,-22.21,6.62,83.79,-47.8,32.18,33
-6.1,-24.01,-8.17,240.77,-9.57,-46.48,-7.51,-26.5,-18.9,122.75,151.22,-103.12,-4.69,-17.41,10.72,217.82,-86.52,70.02,33
-4.11,-17.14,3.06,298.73,3.81,-72.41,-0.75,-25.77,-14.81,148.63,206.2,-107.91,-6.01,0.95,11.94,310.64,-96.63,93.51,33
-3.47,-9.96,12.76,254.74,1.95,-32.37,2.64,-17.41,-1.02,154.59,131.49,-68.99,-2.87,13.31,12.26,222.07,-75.29,83.69,33
-1.31,0.29,18.94,118.31,-21.68,-13.53,7.08,-13.23,9.74,54.25,42.19,-39.94,-2.58,20.66,8.24,98.19,-23.93,42.38,33
-1.35,-0.5,20.62,22.8,1.37,-11.33,8.42,-13.94,12.49,-2.98,23.29,-17.14,-2.48,16.67,5.59,6.98,-5.27,13.48,33
-1.36,3.71,20.59,30.37,3.22,-11.96,7.81,-9.01,13.49,12.11,17.24,-11.43,-1.89,19.42,3.46,25.93,-10.6,6.93,33
-1.98,2.22,20.89,2.34,-1.46,1.9,8.99,-11.27,14.6,10.69,2.0,-2.1,-0.7,18.41,3.09,-4.44,0.98,3.17,33
-2.41,3.89,20.61,-8.55,3.96,-1.71,8.88,-12.18,15.15,-16.7,-3.47,2.69,-0.13,21.35,3.03,-7.91,-1.32,-5.32,33
-1.37,3.01,20.78,-13.72,-5.91,-5.76,7.61,-12.09,14.13,-19.78,2.83,0.1,-0.99,18.49,3.34,-8.5,-4.05,-3.71,33
-0.78,2.23,21.38,-11.43,-16.21,-2.73,9.47,-12.35,13.89,-16.11,-2.15,-3.86,-1.48,18.44,2.92,-9.18,-0.83,-0.83,33
0.18,0.29,21.24,1.81,-11.33,3.37,9.24,-11.76,14.06,11.38,-4.64,-3.61,-1.15,17.93,3.53,-1.22,4.39,2.49,33
0.01,1.25,21.58,0.49,-9.57,-2.25,10.4,-11.75,13.78,1.03,3.27,-5.08,-0.32,19.27,3.6,1.42,-1.03,4.79,33
1.25,1.67,21.2,4.49,-8.35,0.49,9.46,-11.35,13.26,0.29,-0.15,-3.22,-0.37,18.49,3.82,1.37,-2.25,0.88,33
0.35,1.02,20.47,2.73,-6.01,1.46,9.17,-12.21,13.91,8.01,-2.15,-6.84,-0.46,18.03,3.27,-0.44,2.34,2.15,33
1.68,2.88,21.57,13.28,-11.57,2.44,11.06,-10.33,14.97,10.79,-3.76,-9.28,-0.1,20.56,2.47,9.91,3.32,11.96,33
2.5,5.62,19.48,-142.14,5.13,32.67,-2.86,-17.44,-13.78,23.58,54.1,-34.37,-17.6,-18.85,6.47,59.13,-27.64,19.58,34
-0.36,-13.14,12.97,-259.47,-11.96,44.09,-2.84,-18.42,-18.05,78.76,141.75,-78.32,-14.52,-14.87,8.86,155.27,-82.76,47.07,34
-2.79,-20.43,5.06,-235.84,21.53,68.02,-0.58,-17.41,-14.7,151.32,166.26,-97.22,-5.1,7.46,11.45,283.06,-88.67,106.05,34
-3.59,-23.07,-5.17,-180.71,3.76,59.86,6.12,-15.8,-3.57,99.76,97.46,-57.13,-0.93,19.06,15.68,197.95,-55.32,82.57,34
-6.94,-23.02,-11.97,-129.25,4.05,41.75,12.19,-13.43,4.61,59.33,55.96,-41.06,-2.57,17.91,11.57,78.76,-22.31,46.24,34
-9.31,-20.65,-10.75,10.94,1.46,10.06,12.77,-12.0,10.07,42.19,35.84,-23.19,-0.68,17.19,6.56,34.47,-13.92,21.0,34
-8.68,-20.03,-7.33,122.17,15.53,-22.17,11.68,-9.07,13.17,12.16,9.72,-2.34,1.22,19.43,4.44,7.67,-0.98,-0.29,34
-6.03,-23.69,-3.5,249.07,-16.6,-60.55,10.34,-10.7,13.21,1.03,3.42,7.23,0.81,20.77,3.42,6.01,5.76,-7.37,34
-2.84,-17.26,9.96,246.04,-25.88,-41.75,9.9,-12.54,12.85,1.03,-0.34,4.64,0.27,17.3,3.76,1.27,3.17,-3.86,34
-1.67,-12.88,16.53,157.03,-19.14,-13.04,11.88,-13.47,12.15,-7.57,-6.98,-0.05,0.77,19.08,5.06,-2.73,1.37,0.73,34
0.23,-6.65,20.19,118.65,-3.32,-2.59,11.69,-11.71,12.09,0.59,-3.17,0.78,0.62,18.73,5.05,2.88,1.71,3.17,34
1.51,0.73,21.92,72.7,0.93,2.1,11.33,-11.9,12.17,-3.81,-2.49,2.0,0.29,18.72,4.49,-2.59,2.39,-2.2,34
2.81,0.97,22.13,-2.05,1.37,-0.68,11.48,-12.11,12.0,-7.52,-2.39,5.71,-0.29,18.23,4.58,-10.89,6.1,-5.08,34
0.92,3.16,20.64,-6.79,-2.0,1.81,10.96,-13.5,11.6,-0.1,-1.03,0.93,-0.73,19.09,5.44,-3.32,2.1,-2.1,34
-0.65,3.46,19.75,7.42,0.88,4.39,11.45,-12.47,11.7,1.71,-5.22,-0.34,-0.55,18.78,5.32,-5.76,3.03,0.73,34
1.65,0.9,20.5,2.54,0.63,4.1,12.32,-12.64,12.11,7.03,-4.54,-7.91,-0.03,19.83,5.46,4.49,0.0,9.28,34
1.93,1.41,21.13,-2.15,-2.98,3.32,12.02,-10.99,11.97,9.52,1.66,-7.57,0.41,20.67,5.51,7.42,-0.68,6.59,34
1.99,0.87,21.0,-8.06,-3.56,3.13,12.06,-10.09,12.21,10.84,4.59,-7.03,1.48,18.42,4.9,4.74,-3.47,5.18,34
0.97,0.06,20.97,-10.79,2.15,0.68,13.02,-9.98,12.61,-1.37,-4.83,-3.17,2.02,19.32,5.22,-2.54,-1.56,1.95,34
1.34,-0.55,21.02,-3.91,-3.12,1.56,13.06,-8.68,12.58,1.27,-1.46,-7.47,2.74,18.57,4.62,-0.1,-0.05,3.96,34
4.21,-4.55,13.12,-280.52,-17.24,15.53,-8.86,-15.16,-18.27,-35.16,-100.78,78.17,-13.86,-22.01,4.3,-147.85,74.66,-44.19,35
-0.22,-21.03,3.65,-303.37,-11.57,82.37,-7.09,-11.51,-15.91,9.77,10.5,-12.21,-18.82,-15.71,6.72,25.15,-10.79,10.74,35
-4.21,-26.53,-4.11,-234.67,-27.64,86.82,-0.91,-17.73,-15.69,74.61,97.71,-40.19,-16.03,-17.95,6.92,112.99,-32.03,28.47,35
-8.2,-22.96,-10.3,-101.47,8.01,66.7,-0.74,-18.0,-19.68,146.29,167.63,-66.16,-12.29,-9.2,10.0,242.53,-47.41,38.53,35
-8.77,-19.79,-9.55,20.95,0.73,-7.76,1.85,-17.78,-11.0,130.32,158.06,-59.77,-7.83,12.79,12.04,289.7,-70.02,75.15,35
-6.6,-24.27,-6.0,123.24,17.63,-23.34,4.08,-17.34,-0.59,87.5,66.89,-21.83,-6.28,15.52,14.5,137.74,-26.76,44.19,35
-6.4,-23.05,-4.8,227.73,28.71,-41.11,9.93,-14.6,5.33,39.99,31.1,-15.33,-4.34,19.44,10.73,62.94,-19.38,25.15,35
-2.61,-14.95,9.63,209.96,16.89,-46.39,8.27,-14.43,9.23,44.43,12.16,-10.79,-3.36,15.48,7.92,52.69,-19.14,14.26,35
-5.19,-8.93,16.53,138.96,10.3,-6.93,9.25,-15.82,9.8,-4.05,3.03,-12.21,-1.07,19.85,6.02,17.63,-24.32,11.67,35
-1.45,-5.65,18.51,58.84,-2.98,-1.17,11.73,-16.27,9.88,16.89,0.98,-12.79,-1.59,18.71,5.3,9.42,-5.27,14.65,35
-2.12,-4.69,19.46,52.34,0.98,4.93,10.4,-14.03,10.37,16.16,-5.91,-4.3,-0.34,19.42,4.81,11.33,2.39,12.55,35
-0.93,-2.25,21.36,-1.42,-12.89,-13.43,11.37,-13.29,10.42,18.55,-4.83,-3.37,1.02,17.85,4.41,6.45,1.07,7.67,35
-0.53,-3.27,22.87,16.45,-15.87,-0.24,10.6,-15.28,9.08,0.49,-12.4,1.56,0.19,17.49,4.95,-7.86,10.21,0.0,35
-0.55,-1.36,21.93,18.36,-11.47,6.1,11.15,-14.16,9.73,-3.17,-1.42,0.0,0.1,19.82,4.17,6.54,-0.83,3.56,35
-0.36,-1.61,21.19,12.94,-10.4,5.47,12.04,-15.89,9.32,-2.3,-8.35,-0.2,-0.25,17.77,5.13,-3.76,3.56,1.03,35
-1.01,-3.69,20.45,-12.35,-9.23,8.3,11.46,-14.86,9.4,8.89,-4.83,3.71,-0.79,21.47,5.01,12.4,8.89,-0.15,35
-0.16,-0.21,20.51,-3.37,-0.73,-3.08,11.79,-14.97,10.33,12.7,0.63,-1.32,0.49,18.84,5.33,6.98,0.44,4.05,35
0.52,-4.97,21.46,-15.82,-14.31,5.52,11.34,-15.9,9.64,2.98,2.2,2.59,0.28,18.88,5.09,3.32,-0.54,-0.34,35
1.27,-3.03,21.99,7.18,-0.73,7.37,10.43,-14.31,9.54,-0.63,0.49,0.1,-0.04,19.61,4.43,0.98,-0.54,-4.69,35
0.74,-3.87,21.55,6.4,-4.54,4.88,9.83,-14.6,9.43,1.07,0.24,1.22,0.51,18.17,5.51,1.17,0.68,-0.44,35
1.3,4.4,11.3,-302.05,42.14,8.79,-0.07,-11.4,-19.11,-92.29,-148.39,107.86,-10.15,-0.37,10.85,-190.53,129.35,-93.8,36
-0.76,-18.51,14.71,-221.58,8.11,46.83,-5.1,-10.54,-18.29,-27.44,-54.0,56.54,-19.27,-31.74,3.82,-149.56,73.63,-39.36,36
-4.75,-21.54,4.93,-210.4,14.36,31.79,-7.72,-11.4,-15.42,20.17,-0.29,-3.27,-15.87,-14.26,9.76,16.11,-1.56,23.05,36
-5.3,-20.92,-7.64,-238.33,14.21,27.98,-6.92,-13.96,-17.56,82.52,92.38,-56.74,-15.87,-16.22,7.15,117.33,-57.91,26.37,36
-6.91,-25.21,-14.37,-76.17,19.58,19.87,-3.81,-16.32,-16.03,122.7,88.48,-103.52,-15.59,-4.49,12.71,176.86,-85.25,62.84,36
-7.62,-18.5,-10.18,30.62,-15.33,14.06,3.28,-22.09,-12.65,136.23,106.05,-85.4,-10.07,0.47,13.42,169.68,-76.07,63.96,36
-10.02,-21.08,-11.37,146.19,-17.04,-6.93,6.35,-18.92,-3.19,145.56,115.43,-86.72,-6.83,13.78,9.89,189.36,-55.18,83.79,36
-8.29,-19.56,-3.66,172.41,-52.34,-22.56,6.88,-11.25,5.01,105.32,65.28,-39.4,0.07,20.39,9.85,127.25,-43.41,50.29,36
-6.71,-19.61,4.93,203.76,-42.72,-9.28,12.65,-12.96,10.86,42.38,26.9,-31.35,2.27,19.11,7.89,52.83,-16.7,30.91,36
-3.36,-11.02,13.52,220.26,-36.91,-17.24,12.2,-10.35,13.11,32.67,14.75,-20.8,3.04,18.91,5.06,28.56,-9.57,14.45,36
-1.69,0.57,19.74,149.85,-20.26,2.29,11.99,-8.69,14.8,25.05,8.4,-9.47,3.24,19.93,2.22,21.04,-4.25,2.49,36
1.04,0.21,22.71,78.17,-23.63,-3.32,11.09,-7.01,15.07,-5.27,-4.93,-8.69,3.82,18.6,1.4,-7.18,-4.79,0.63,36
-0.66,1.87,21.84,50.68,-15.62,-0.88,11.63,-7.89,14.27,3.12,-4.49,-4.0,3.98,18.55,1.64,-4.83,-3.27,-3.08,36
-1.41,4.62,20.35,27.64,-2.59,0.0,12.11,-9.07,13.35,-9.03,-2.73,-3.12,3.66,17.97,2.6,-11.43,-2.1,-2.49,36
-1.4,6.68,19.12,-6.4,-12.4,-7.42,11.78,-10.1,13.81,-0.88,-3.42,0.0,3.32,18.28,2.88,-2.73,0.59,-0.78,36
-0.61,5.36,19.53,-2.3,-6.15,-3.71,12.08,-9.13,14.18,2.69,-3.08,4.44,3.62,20.28,2.81,1.17,5.42,-2.49,36
-0.04,4.38,19.78,-9.18,-5.62,-2.34,11.81,-9.8,13.9,-8.25,-2.78,5.62,3.52,19.56,3.22,0.15,3.66,-4.44,36
0.2,3.94,20.55,0.44,-7.42,2.49,11.57,-8.97,13.71,-0.0,-2.83,0.0,2.97,18.56,3.21,4.54,2.44,-0.73,36
-0.35,4.8,20.83,-1.95,1.03,4.83,11.69,-9.02,14.61,10.11,1.56,-1.76,3.16,18.64,2.49,5.91,1.81,2.78,36
-0.36,4.04,20.48,-12.26,3.32,0.44,11.89,-10.5,14.43,-0.98,0.54,-1.32,3.05,19.16,2.36,0.98,0.68,-0.73,36
0.94,14.45,16.12,-108.59,-6.1,-11.08,-4.57,-13.64,-15.76,-50.54,-51.12,68.85,-17.09,-27.46,2.3,-139.8,60.79,-42.48,37
-0.31,-3.29,10.77,-364.45,14.55,-9.96,-7.21,-14.02,-17.22,14.45,16.6,-7.62,-16.2,-18.56,8.59,23.53,-10.45,8.5,37
-5.59,-21.1,2.99,-312.55,8.74,34.38,-3.58,-13.87,-15.27,93.95,67.33,-41.85,-14.99,-14.74,7.46,126.12,-36.72,30.91,37
-4.38,-26.25,-4.78,-243.55,-11.28,48.73,0.34,-18.89,-16.73,121.14,112.65,-74.32,-12.15,-6.8,14.03,194.73,-60.84,60.5,37
-8.34,-24.36,-13.21,-109.81,7.52,32.96,3.84,-17.49,-8.69,139.31,107.37,-68.31,-8.72,5.08,15.31,207.13,-39.01,68.12,37
-8.4,-21.45,-10.03,33.74,-3.27,2.93,8.66,-17.51,-0.19,110.89,66.11,-55.08,-6.85,10.44,13.61,124.46,-34.81,71.63,37
-8.88,-19.32,-8.42,135.5,-2.25,-3.27,10.9,-16.63,5.15,99.46,46.24,-36.87,-3.73,18.02,11.43,125.05,-22.07,58.01,37
-4.44,-22.25,-0.65,177.2,-22.71,-28.42,9.42,-13.64,9.23,50.78,15.92,-9.47,-0.1,22.23,9.71,75.29,-6.74,33.84,37
-4.6,-18.37,7.77,200.29,-14.6,-12.11,11.07,-11.66,13.86,32.86,11.18,-4.44,-0.52,20.91,4.21,31.59,3.66,15.92,37
-2.67,-12.19,14.7,156.1,-42.33,-4.83,10.08,-13.97,12.56,-27.0,3.22,4.98,-0.36,20.86,4.83,-1.71,-0.49,-8.69,37
-0.21,-7.15,19.78,138.33,-25.88,-1.03,7.84,-13.71,11.98,-10.45,1.46,2.54,-0.69,16.27,4.32,-6.79,-2.2,-12.4,37
1.01,-0.23,21.82,75.49,-14.45,9.23,7.19,-14.91,12.38,-4.15,1.46,4.39,-0.92,18.94,4.05,5.76,-4.15,-5.22,37
0.45,2.96,22.02,51.12,-8.06,7.86,7.19,-17.03,13.09,-12.06,2.29,6.1,-2.41,18.52,2.61,5.86,-3.56,-10.4,37
-1.43,3.29,21.47,-17.97,-2.93,-3.61,8.5,-14.13,12.62,-13.13,2.54,1.07,-0.39,20.8,4.37,16.36,-14.79,7.76,37
-3.08,0.29,19.99,-10.06,1.12,-5.76,9.5,-14.95,13.76,10.06,11.77,-6.4,-1.53,16.03,2.85,7.13,-10.84,8.98,37
-4.83,-0.1,19.69,-4.69,9.96,-2.83,8.87,-15.28,14.03,-14.6,-0.39,7.71,1.34,20.1,3.23,4.54,-13.38,2.34,37
-4.29,-1.02,21.28,-17.82,13.82,-5.27,5.8,-15.82,12.93,-10.5,1.46,12.21,1.05,16.45,2.96,2.93,-18.12,-14.45,37
0.63,2.1,21.84,0.88,-5.32,-15.92,6.81,-17.22,13.11,-22.46,-5.52,-6.84,0.73,19.91,2.72,0.29,-11.52,5.76,37
-2.31,-0.44,21.14,2.98,0.24,-5.22,7.17,-17.22,13.15,-18.85,2.69,-9.52,-0.47,19.94,2.27,3.42,-18.12,15.19,37
-1.81,1.87,21.86,-10.5,3.22,-5.52,8.76,-12.94,14.15,-4.64,4.98,-9.91,0.58,19.63,1.28,0.98,-12.26,9.57,37
2.19,10.4,19.43,-112.45,45.8,-5.96,-7.05,-16.75,-14.18,-104.0,-54.3,92.24,-12.9,-9.4,12.89,-170.61,58.84,-77.93,38
-8.11,-13.87,7.67,-316.6,27.93,15.09,-9.7,-11.46,-15.79,-64.4,-41.26,84.96,-16.28,-8.84,9.25,-120.56,48.29,-82.71,38
-6.36,-20.56,2.18,-199.32,36.33,33.84,-9.94,-14.24,-16.53,-42.92,-2.83,0.78,-19.63,-18.37,6.15,-45.22,13.48,-33.35,38
-7.7,-22.77,-5.77,-179.3,20.26,6.84,-8.05,-15.28,-18.57,71.92,52.15,-35.64,-16.9,-18.22,8.37,70.07,-35.99,21.78,38
-7.49,-18.27,-12.37,-135.16,22.41,11.28,-8.49,-16.28,-17.37,128.47,77.34,-92.24,-15.28,-12.06,8.87,176.12,-49.27,59.72,38
-10.58,-21.32,-14.34,-49.66,4.44,-12.65,-0.79,-19.11,-9.97,138.23,77.49,-92.48,-13.54,5.82,10.58,213.33,-38.92,95.26,38
-6.32,-22.68,-14.02,85.64,-18.6,1.51,2.38,-19.96,-3.69,121.44,62.89,-71.58,-8.2,14.76,12.04,152.49,-46.92,75.88,38
-8.43,-21.91,-12.27,174.17,-26.71,-2.44,6.38,-20.4,2.91,77.29,25.59,-71.44,-3.94,22.06,9.83,112.55,-39.6,76.17,38
-7.98,-19.19,2.86,188.87,-47.36,-4.44,8.17,-18.27,7.65,53.03,38.72,-26.37,-0.89,17.32,7.12,71.78,-36.04,22.41,38
-9.25,-15.9,8.57,142.38,-25.15,-6.15,6.79,-9.31,11.45,31.54,20.21,-15.53,0.45,21.93,3.02,55.27,-14.94,17.33,38
-6.51,-11.73,16.72,95.85,-21.09,-15.38,7.87,-10.59,11.96,-10.16,-4.25,3.76,1.72,21.7,2.01,8.94,3.61,1.37,38
-2.71,-6.41,20.79,71.87,12.99,-10.99,10.05,-12.77,13.65,11.72,-10.6,-6.64,0.41,17.71,1.43,-1.32,14.7,11.18,38
-1.03,3.81,19.43,96.58,6.64,-1.22,11.56,-11.66,14.02,-5.47,-3.27,-12.01,2.36,19.4,1.6,-4.05,-6.2,10.01,38
0.53,3.43,20.97,13.48,-5.32,-5.47,11.21,-11.66,12.57,-14.55,-1.66,-9.42,1.62,19.0,1.09,-15.97,-7.23,-4.93,38
-2.43,1.49,21.01,13.43,-21.48,8.59,11.02,-12.94,11.94,-9.13,-1.37,5.27,1.91,19.76,2.66,-8.5,-2.2,-6.1,38
-0.71,3.64,21.59,3.71,-18.41,-4.05,12.27,-13.9,12.26,-7.42,0.34,0.54,1.37,18.34,2.84,-3.03,0.44,-0.05,38
-0.97,3.42,20.88,-9.13,-6.54,-6.15,11.26,-11.79,11.66,3.86,-12.99,0.44,1.63,18.78,2.9,-5.32,4.1,0.54,38
2.48,0.42,22.79,-11.43,-2.2,-6.35,11.3,-12.36,11.3,9.52,0.78,-0.73,1.4,19.7,3.48,13.53,1.42,3.03,38
1.02,-0.31,21.85,-11.08,-5.52,-1.81,11.58,-13.75,11.08,2.44,-0.98,3.03,1.78,18.5,4.31,4.69,2.2,-1.37,38
-1.91,0.2,20.48,-4.93,-5.32,4.79,11.27,-13.52,11.51,-4.05,-2.15,4.69,1.21,18.68,3.24,2.98,5.57,-2.34,38
-2.14,0.95,7.86,-358.15,21.39,15.48,9.45,-11.45,12.7,24.46,0.78,-11.87,-3.1,9.11,3.4,-318.36,129.0,-106.05,39
-2.0,-23.76,0.79,-319.53,-33.94,60.69,10.49,-12.04,13.95,2.54,-2.98,4.93,-12.82,-2.49,9.49,-240.67,95.75,-89.01,39
-4.85,-25.97,-9.84,-243.46,0.1,40.14,9.46,-12.65,13.42,-19.63,-3.32,7.57,-17.03,-22.1,5.18,-162.7,90.63,-62.6,39
-6.59,-23.03,-17.77,-93.6,24.32,39.26,9.68,-13.85,12.79,-7.86,1.86,4.39,-19.9,-20.98,6.29,22.85,0.93,8.4,39
-8.67,-24.5,-10.64,59.13,2.44,-9.28,9.52,-12.93,13.17,8.15,9.62,-4.3,-16.0,-13.3,8.24,159.42,-70.85,50.24,39
-6.89,-24.01,-8.82,199.32,0.88,-24.71,8.96,-13.26,13.4,15.04,7.42,-2.2,-13.38,-1.61,9.25,266.89,-62.89,74.76,39
-5.66,-21.36,-0.59,253.86,12.01,-23.78,8.57,-12.09,13.95,7.08,1.32,-6.2,-4.59,15.94,11.43,255.22,-60.11,86.57,39
-1.1,-14.73,12.79,190.48,0.54,-18.75,9.76,-12.89,14.12,4.93,-2.64,-7.32,-1.69,18.67,8.23,160.25,-44.87,70.31,39
-2.48,-2.95,18.69,161.57,-12.84,3.96,9.52,-12.61,13.86,6.69,-2.64,-4.05,0.43,21.01,4.9,59.57,-6.45,33.35,39
-2.16,2.95,20.58,65.58,-20.41,3.22,9.68,-12.26,13.26,3.27,-2.69,-1.46,1.48,19.94,2.11,18.9,-1.9,9.03,39
-1.86,3.48,20.96,16.31,0.39,3.81,9.8,-11.75,13.7,8.94,-4.98,-1.03,-0.07,18.96,0.22,4.2,4.2,-8.2,39
-3.06,3.4,19.81,-8.79,11.33,-2.29,9.33,-11.46,13.5,5.62,-5.91,0.59,-0.37,19.91,0.34,-9.86,-1.56,-10.69,39
-3.91,-0.13,21.17,-22.07,8.15,0.15,9.43,-12.21,13.2,2.83,-4.05,3.61,-0.03,17.03,1.26,4.44,0.54,-7.03,39
-3.75,0.49,21.16,8.3,3.56,-5.13,10.12,-13.62,13.74,3.86,-8.69,2.05,-0.13,19.38,0.7,1.37,-3.32,1.27,39
-2.3,2.06,21.53,5.91,-7.52,-2.2,9.43,-11.82,14.58,5.71,1.61,-3.47,0.39,20.1,0.52,14.5,0.54,0.73,39
-3.8,2.83,20.45,10.74,0.0,0.49,10.86,-14.2,13.68,-3.91,4.2,-4.54,0.57,19.91,0.2,9.42,-8.74,6.4,39
-3.29,3.73,20.75,2.44,-8.06,-3.32,9.58,-11.24,14.2,6.98,0.78,-3.37,0.13,19.07,-0.42,2.25,-2.98,5.42,39
-2.96,4.22,20.49,4.25,-3.32,-3.12,10.62,-10.88,14.13,6.69,0.39,-1.27,0.49,19.93,-0.13,3.37,1.32,4.74,39
-2.15,4.01,21.04,-0.59,-5.71,1.17,9.47,-11.49,14.05,-1.71,-1.03,1.22,1.76,19.6,0.96,2.0,-0.98,4.15,39
-1.66,2.56,21.02,-6.84,-2.29,0.2,10.17,-11.87,14.26,2.73,0.34,-0.73,0.7,20.09,-0.36,2.83,5.37,2.39,39
-1.9,0.77,20.5,-2.3,-4.35,0.54,10.44,-13.67,11.83,-1.32,3.27,-0.05,-1.25,18.83,4.59,0.29,2.29,0.05,40
-1.93,0.81,22.07,-2.34,-5.62,-1.46,10.37,-12.55,11.86,2.44,1.37,-1.61,-0.13,20.42,5.18,2.34,-3.91,1.81,40
-0.46,-0.53,21.93,-5.76,-2.44,1.12,9.66,-13.98,11.74,-4.64,-3.66,-2.05,-0.73,17.39,4.43,-3.17,1.37,0.44,40
-1.81,1.11,20.77,4.49,5.13,3.32,9.88,-14.18,11.87,-4.54,0.49,0.39,-0.37,19.89,4.64,8.59,2.54,-1.22,40
-2.56,1.25,21.28,8.54,-4.2,1.66,10.31,-15.15,11.85,-8.11,0.78,0.78,-0.43,18.97,4.38,4.39,-4.35,-1.07,40
-2.27,0.44,20.88,11.91,5.91,0.93,10.51,-13.25,11.85,2.98,-2.25,0.68,-0.74,20.04,4.07,9.03,0.49,2.59,40
-2.56,2.74,20.93,50.05,2.39,-7.67,10.55,-13.2,12.18,3.76,0.05,-1.81,0.03,18.92,2.33,52.78,-13.23,20.7,40
-0.6,7.99,19.42,-46.09,10.84,3.08,10.37,-14.29,11.97,6.49,3.37,-2.0,2.08,25.85,7.52,-38.33,10.79,-29.05,40
-11.37,-8.64,-22.09,-729.83,23.34,83.15,9.13,-11.22,12.94,29.44,21.44,-11.82,11.44,34.03,-33.39,-568.8,220.85,-196.44,40
0.77,-39.02,-5.1,-108.5,34.23,53.56,-4.93,-1.99,4.15,-55.62,-70.85,42.97,-22.58,-41.9,2.5,-185.64,66.02,-59.81,40
-7.27,-34.49,-6.25,170.46,-8.01,-36.13,12.68,-41.9,-40.41,-466.99,-517.87,113.13,-21.89,-16.93,5.58,138.62,-57.91,45.75,40
-1.61,-15.13,2.09,502.49,-11.18,-121.04,6.37,-21.97,-23.3,23.14,28.91,52.44,4.95,9.61,-15.93,566.5,-177.98,162.01,40
-6.59,26.16,11.56,407.91,19.34,22.66,11.8,-31.47,-21.45,140.09,199.71,-92.63,9.1,39.88,8.5,148.44,-49.61,32.23,40
-2.49,-6.52,20.17,-90.48,12.26,3.08,5.59,-23.85,-18.46,311.23,318.6,-110.74,-1.32,14.06,0.48,-21.63,3.03,-11.57,40
-2.85,1.46,21.17,16.41,-3.81,1.66,2.69,12.91,9.48,138.33,-56.84,-10.99,-0.67,19.77,1.67,18.26,-8.54,14.75,40
-2.36,1.42,20.2,-22.12,-7.81,2.05,8.83,-30.04,10.69,-109.38,-12.94,3.81,-0.66,17.25,0.77,-18.02,1.81,0.1,40
0.59,3.0,20.96,-2.44,-0.34,1.9,10.52,-11.19,13.35,-3.17,-4.25,-5.66,-0.06,19.9,1.63,-9.28,0.0,-0.83,40
-0.09,2.32,21.44,-1.56,-6.15,2.05,11.95,-13.25,12.59,-3.71,-8.11,-4.25,1.14,20.26,2.02,4.15,0.59,5.32,40
0.08,2.47,21.29,3.42,-4.3,3.61,11.36,-11.84,12.23,0.98,-4.93,-2.83,1.2,19.93,2.37,5.08,3.17,4.44,40
-0.4,2.36,20.99,3.95,-1.03,2.2,11.35,-11.8,12.02,5.32,-3.37,1.27,0.58,19.21,2.26,4.59,0.2,1.37,40
-6.48,-25.89,-11.14,-65.19,13.43,21.73,-5.71,-12.25,-17.13,5.81,-3.27,6.84,-12.44,-13.82,11.81,7.37,3.61,-0.93,41
-4.71,-20.6,-8.86,17.82,7.47,14.99,-8.43,-9.19,-16.58,24.85,16.75,12.11,-10.81,-12.62,11.69,23.29,10.94,-6.98,41
-4.32,-16.4,-10.02,18.46,17.38,12.4,-10.14,-6.34,-17.03,29.88,13.13,4.83,-10.4,-13.02,11.81,43.16,16.85,-4.93,41
-3.04,-13.16,-10.56,21.97,13.28,4.44,-6.85,-8.76,-16.97,24.07,10.35,-6.01,-12.77,-14.04,11.21,42.24,5.18,5.91,41
-7.34,-18.38,-9.85,7.18,14.16,-4.59,-10.01,-8.03,-16.71,-23.88,-33.01,4.49,-13.47,-10.72,12.63,-39.6,10.21,-9.57,41
-5.19,-17.06,-8.87,-43.46,-7.57,1.22,-14.37,-8.71,-19.58,-48.73,-132.96,51.51,-10.69,-17.52,3.54,-137.06,53.96,-21.44,41
-6.21,-16.94,-17.55,-113.82,8.3,42.53,-12.72,-7.23,-13.04,-32.62,-69.04,55.66,-12.63,-18.0,0.91,-41.85,68.02,-5.96,41
-5.13,-14.52,-16.49,-67.87,9.91,42.09,-13.28,-1.67,-8.02,29.78,-15.38,58.35,-15.72,-17.78,-6.34,-23.97,86.33,-30.03,41
-12.14,-15.03,-16.09,-69.48,35.94,39.16,-10.88,-10.65,-13.71,22.95,66.65,-45.9,-14.68,-19.54,-2.64,36.57,-44.48,21.68,41
-9.27,-19.46,-16.75,34.81,-11.96,-14.11,-12.52,-18.83,-20.54,82.91,107.32,-103.81,-6.29,-23.03,4.79,164.26,-69.09,82.62,41
-10.63,-23.03,-19.67,164.79,-52.54,-3.32,-4.43,-16.86,-23.19,207.47,199.61,-119.24,-9.51,-16.21,3.8,309.67,-93.12,108.59,41
1.88,-17.05,-9.62,360.4,-42.53,-22.51,-1.15,-13.0,-10.59,214.21,162.55,-113.23,-11.53,3.4,10.92,272.9,-52.0,89.84,41
-4.59,-10.2,3.42,355.08,-34.18,-17.63,5.14,-9.6,3.67,88.09,47.66,-61.77,-3.36,20.56,10.84,116.31,-27.0,69.87,41
-2.62,-1.39,16.69,185.25,-53.56,-1.86,13.42,-14.25,8.36,12.45,-0.15,-25.44,-4.62,17.67,7.65,12.99,-4.64,11.52,41
-1.54,-4.33,21.19,22.41,-27.15,-4.44,10.8,-14.43,8.36,27.83,8.35,-13.72,-3.73,14.6,6.94,8.84,-5.62,11.47,41
-2.28,-4.08,22.09,37.4,-28.37,2.2,12.06,-15.34,8.88,-7.42,-7.32,-2.39,-2.93,17.59,5.97,-18.12,0.59,-0.88,41
-2.32,-2.15,21.02,-11.38,-12.06,0.83,12.35,-14.98,8.1,1.32,-3.12,4.2,-2.29,18.04,6.97,8.45,5.18,3.03,41
-1.42,-2.12,22.13,2.59,-1.66,3.61,11.14,-13.14,8.07,-8.69,-3.52,2.59,-3.52,19.31,6.48,8.3,-2.59,-0.49,41
-2.64,-0.87,21.0,2.34,2.73,-1.17,11.51,-13.19,8.16,8.4,4.35,-4.49,-4.32,18.49,5.93,9.33,-0.44,2.25,41
-3.32,-2.96,21.44,11.57,-4.2,-0.88,11.2,-15.26,7.87,1.17,0.93,0.73,-2.59,17.6,6.8,-1.56,0.29,2.39,41
-9.54,-21.7,-6.69,-159.18,47.31,43.16,11.64,-10.04,3.0,-104.88,-219.82,9.23,-16.61,-11.24,8.58,-147.9,106.54,-90.77,42
-10.47,-17.01,-12.37,-86.13,26.9,21.44,8.65,-18.15,-7.83,-128.96,-157.71,122.31,-19.76,-16.58,4.65,-79.79,54.0,-45.56,42
-9.08,-22.32,-11.31,-41.65,-2.49,-2.69,0.91,-19.01,-14.95,-96.68,-130.42,127.59,-19.75,-17.43,6.68,-18.85,-1.95,-6.35,42
-6.49,-19.31,-9.75,46.83,-16.16,6.1,-5.87,-15.05,-14.79,-51.32,-99.32,113.48,-15.73,-17.72,7.74,18.99,-23.97,16.21,42
-9.27,-20.22,-9.85,153.27,-18.6,-0.44,-12.28,-9.36,-13.97,-27.88,-41.02,58.69,-17.44,-12.33,7.78,150.73,-45.21,56.45,42
-6.89,-20.52,1.38,197.07,-87.26,-16.16,-11.16,-14.17,-14.7,-16.16,0.39,0.68,-11.73,-2.09,13.66,195.12,-69.29,99.02,42
-5.48,-17.33,9.15,208.15,-78.37,-9.67,-10.72,-11.18,-14.97,27.0,28.32,-15.28,-9.56,6.63,12.65,164.75,-58.01,96.29,42
-3.08,-10.28,15.57,142.58,-66.85,-11.67,-7.55,-15.22,-17.59,96.48,98.78,-84.57,-6.24,14.72,12.15,100.05,-41.7,73.78,42
-0.9,-4.14,19.48,91.41,-48.88,-4.44,-0.26,-17.88,-14.65,129.83,106.45,-116.16,-3.11,18.77,9.26,52.05,-20.51,45.02,42
1.69,-2.2,21.02,43.99,-39.6,-4.44,4.04,-19.16,-7.72,121.19,117.68,-88.28,-1.55,17.73,6.24,25.73,-11.04,29.15,42
0.83,-0.1,21.91,39.5,-28.32,0.39,10.71,-16.52,-0.19,76.32,64.31,-71.39,-0.14,19.56,5.15,24.12,-6.15,17.14,42
2.77,1.37,22.37,6.01,-19.34,-0.44,11.24,-13.91,4.87,40.14,31.35,-44.53,0.46,20.13,4.28,4.15,-0.63,-1.81,42
1.11,-0.29,21.34,7.91,-2.25,-1.51,12.78,-13.53,7.41,22.61,16.41,-27.0,0.16,19.13,4.68,10.99,-2.25,-3.76,42
0.68,-1.04,21.95,-14.31,-5.32,1.46,13.05,-10.46,9.13,16.89,6.25,-12.89,-0.26,16.92,4.65,-5.22,2.98,-6.25,42
-0.17,-0.64,21.49,-0.24,-3.12,3.81,14.2,-11.51,9.54,-7.32,0.78,3.71,-0.95,17.69,4.44,5.32,4.2,2.44,42
1.1,-0.5,21.73,-1.42,-1.46,5.62,12.19,-11.48,8.8,2.93,7.23,5.57,0.01,18.77,4.2,0.44,3.27,-1.46,42
1.34,0.69,21.85,6.01,-5.57,1.07,13.09,-13.95,9.12,-5.08,3.91,5.96,-0.08,19.08,3.84,9.23,-0.83,6.15,42
0.5,-0.07,20.97,-5.42,-4.54,2.59,13.37,-13.39,9.75,0.49,2.34,1.27,-0.55,18.67,3.86,2.59,4.64,-1.61,42
0.01,-0.66,21.53,-0.24,3.66,3.66,13.27,-13.25,10.89,10.5,12.06,11.82,0.26,18.67,4.34,2.05,0.59,0.59,42
1.24,0.63,21.04,9.62,-4.69,3.66,12.4,-12.51,10.73,-5.76,-0.98,2.39,0.53,17.89,3.62,1.03,1.61,4.35,42
-1.62,-11.35,19.2,-160.55,19.87,-0.68,-0.44,-21.37,-17.4,-163.13,-137.6,86.04,-12.19,2.59,7.64,-243.7,82.37,-113.43,43
-2.43,-2.51,21.21,-71.14,35.89,17.14,-3.34,-14.4,-17.19,-98.88,-71.44,42.68,-18.53,-12.47,7.34,-146.48,45.31,-64.84,43
-7.25,-11.18,9.78,-256.98,52.05,49.71,-5.02,-17.83,-17.06,50.83,23.39,-29.69,-19.91,-23.07,8.65,26.81,-12.4,12.35,43
-9.13,-24.21,-1.51,-243.6,22.22,49.37,-3.39,-17.55,-16.79,142.68,95.65,-92.92,-13.36,-10.22,10.99,177.1,-65.33,70.31,43
-10.49,-22.09,-8.37,-144.92,20.95,14.7,1.09,-17.25,-9.46,144.87,92.97,-85.69,-5.66,9.06,15.1,213.38,-78.03,97.12,43
-9.22,-26.05,-7.96,63.13,-11.08,-8.45,8.49,-17.9,-4.42,112.26,86.43,-72.36,-5.48,13.01,13.74,162.11,-58.45,81.59,43
-9.68,-21.18,-3.71,196.34,-39.45,-38.62,6.78,-12.89,4.01,100.44,50.93,-42.19,-1.02,23.67,8.55,157.71,-35.74,67.38,43
-6.66,-14.94,8.19,204.83,-32.37,-37.6,6.97,-10.99,8.63,23.0,5.22,-13.72,-0.67,23.51,5.63,45.36,-3.47,22.66,43
-2.32,-11.95,15.59,163.38,-31.54,-34.57,10.14,-13.3,10.44,4.49,0.29,4.39,-0.61,18.7,3.21,10.35,3.61,-2.0,43
-0.59,-2.76,19.27,162.6,-29.0,-12.21,9.64,-15.14,9.4,-18.12,-2.73,8.4,-0.71,17.85,3.95,-16.6,5.81,-11.04,43
-0.22,1.51,19.3,49.27,-15.58,1.95,10.55,-14.37,9.43,-2.83,-0.73,1.37,-1.02,19.14,4.3,-2.78,-2.98,-2.29,43
0.02,-0.21,20.74,8.15,3.22,2.44,9.55,-17.14,9.38,-5.18,-2.2,1.51,-0.44,17.41,4.99,-0.78,6.69,3.47,43
-0.39,-1.0,20.91,-14.21,1.46,1.46,11.01,-15.42,9.7,3.81,-2.69,0.2,-0.57,18.81,4.99,2.64,3.96,0.63,43
-0.79,-1.22,21.61,3.17,-1.9,0.05,9.96,-14.79,9.43,1.51,-0.1,0.34,-1.25,19.48,4.33,1.22,-0.34,-0.93,43
-0.25,-3.24,21.88,-10.6,1.95,-0.93,10.55,-14.91,9.48,0.63,1.37,-2.78,-1.17,18.54,4.52,4.54,1.32,2.39,43
-1.06,-2.43,21.44,-2.64,-0.15,3.13,10.18,-14.61,9.67,2.44,0.93,-0.63,-0.66,19.87,4.36,1.61,0.49,-2.93,43
-0.92,-2.36,20.98,-1.12,-3.22,2.0,10.93,-14.63,9.31,4.69,2.49,-0.34,-0.57,19.03,4.74,1.07,-0.1,-2.34,43
-0.34,-2.21,21.36,5.57,-3.27,-1.37,10.17,-15.01,9.55,-1.27,2.69,3.71,-0.81,19.5,4.4,1.17,-0.1,-0.54,43
-0.63,-2.11,21.35,-0.63,5.13,-0.59,9.92,-15.2,9.2,-3.66,0.88,0.1,-0.87,18.39,4.68,1.22,1.42,0.2,43
-0.26,-3.3,21.28,0.73,3.03,-0.05,10.35,-15.21,9.7,2.83,-1.95,0.83,-0.92,19.42,4.46,0.73,-0.73,-1.66,43
-9.52,-14.57,-10.21,-19.53,21.44,18.16,-10.85,-8.36,-14.64,-8.3,-8.15,29.49,-19.36,-12.64,5.32,-23.0,30.76,-28.76,44
-10.89,-16.4,-10.35,-1.03,11.57,0.1,-11.02,-7.2,-15.18,7.62,11.91,6.25,-17.07,-17.43,5.29,-7.57,8.89,-20.46,44
-8.71,-18.42,-7.96,108.11,-21.68,-9.77,-8.41,-14.96,-15.13,83.89,70.21,-29.15,-16.43,-19.73,5.31,70.85,-40.48,23.44,44
-11.56,-15.72,-8.69,36.38,-2.78,-23.63,-7.99,-10.85,-16.25,-12.26,33.94,-29.98,-17.92,-7.42,11.05,32.08,-37.21,-4.59,44
-10.53,-9.33,-12.93,-107.08,4.49,6.84,-16.57,-0.57,-20.68,-88.97,-92.29,44.29,-12.62,0.15,15.4,-67.14,32.76,-28.12,44
-8.79,-15.69,-16.98,-112.55,21.29,56.2,-8.55,-11.96,-13.65,-32.76,-105.32,72.71,-13.58,-26.49,-4.73,-156.98,99.37,-54.25,44
-15.0,-8.04,-13.92,2.15,32.03,20.7,-11.05,-1.53,-9.04,17.53,11.04,7.62,-23.12,-12.79,-4.47,5.76,37.4,0.78,44
-10.61,-17.47,-14.62,175.73,-35.99,-37.16,-11.43,-15.48,-18.43,131.49,130.76,-91.94,-19.34,-20.74,0.16,137.21,-96.44,54.98,44
-9.17,-28.51,-10.68,196.24,-54.3,-72.85,-3.19,-29.34,-18.38,163.43,150.88,-123.78,-19.01,-18.26,3.48,179.59,-113.67,42.77,44
-5.3,-20.01,4.69,254.44,-66.55,-71.53,1.72,-22.57,-9.15,181.84,144.87,-120.95,-7.6,8.75,7.32,317.58,-95.02,112.4,44
-4.69,-8.79,15.3,207.23,-42.09,-26.42,3.57,-13.27,3.11,145.41,58.54,-71.44,-2.4,23.51,9.43,224.66,-44.04,96.53,44
-3.1,-0.43,21.17,13.72,-17.72,2.34,9.65,-15.11,9.27,-9.72,-15.09,-16.5,-2.9,24.71,8.75,2.15,2.83,13.92,44
0.21,-5.77,21.08,48.1,-3.17,-5.57,7.63,-14.46,8.76,44.63,22.95,-5.32,-1.48,15.47,5.92,45.46,-10.69,11.13,44
-1.12,0.87,20.49,-6.88,-4.1,0.78,9.49,-15.91,10.0,-19.34,-11.38,0.29,-1.74,20.62,4.67,-1.81,4.39,-3.03,44
-3.23,-3.09,20.78,-0.29,-7.96,2.39,12.96,-13.94,10.51,18.16,-6.4,-7.67,-2.02,17.83,4.56,4.78,0.63,8.59,44
-1.46,-0.79,21.83,4.49,-4.2,6.3,10.68,-13.78,10.52,3.27,-3.61,4.98,-0.61,19.64,5.0,-0.63,3.42,-1.76,44
-1.72,-1.08,21.23,7.62,2.93,0.2,9.3,-14.04,9.84,10.45,0.0,-3.81,-1.45,17.9,4.12,11.47,0.59,5.13,44
-1.67,-0.84,21.1,3.81,3.03,4.05,10.26,-14.58,9.98,6.54,-1.27,-3.32,-0.86,18.47,4.04,0.93,2.1,-0.2,44
-0.86,-1.59,21.46,-5.03,2.1,1.61,10.52,-14.09,10.12,-0.05,-0.39,0.34,-1.52,19.81,3.36,1.86,1.86,-1.9,44
-1.52,-1.34,21.55,-0.93,-3.76,0.15,10.61,-15.11,10.24,-2.54,-3.03,1.51,-0.93,19.65,4.15,1.37,2.34,0.29,44
-2.82,-18.13,1.36,-403.03,39.21,51.86,-13.69,-11.42,-17.75,-42.77,-17.19,27.69,-21.25,-23.35,3.72,-78.52,12.5,-34.28,45
-5.5,-22.32,-7.06,-201.71,51.81,74.95,-5.99,-20.63,-18.26,81.4,79.88,-41.65,-18.66,-20.76,6.68,109.47,-48.78,52.34,45
-10.67,-16.55,-11.52,-98.05,36.82,49.76,-0.99,-21.88,-19.9,163.82,138.13,-99.46,-10.9,-14.38,7.17,230.62,-87.6,73.49,45
-12.59,-22.93,-14.66,-47.36,2.34,-2.59,3.39,-21.21,-11.22,197.66,156.88,-108.74,-2.6,8.18,5.98,327.88,-95.07,120.21,45
-9.48,-22.73,-10.7,147.8,-2.54,-12.16,7.67,-11.75,5.6,113.38,33.15,-68.85,-1.31,27.32,8.92,143.6,-28.96,83.45,45
-8.92,-23.74,-5.77,280.52,-40.38,-29.1,12.08,-13.04,9.83,10.11,-4.83,-24.32,-2.18,23.23,4.56,23.39,-1.95,33.06,45
-2.44,-15.21,5.91,309.57,-26.17,-13.57,9.95,-10.79,10.76,28.86,2.69,-3.22,-1.06,21.41,3.9,35.16,9.96,16.7,45
-2.02,0.65,18.33,151.56,-46.09,11.62,10.52,-13.63,10.56,4.05,-5.66,2.15,0.59,17.8,4.11,-3.08,7.23,0.49,45
-0.49,-0.5,22.43,3.42,-23.54,-0.1,11.04,-14.77,10.27,-1.47,-3.96,1.66,-1.07,18.28,3.83,-7.91,4.0,-4.79,45
-1.31,3.73,20.45,24.76,-4.93,7.47,10.88,-14.54,10.07,-1.61,-3.03,0.05,-0.56,19.41,4.24,-5.22,2.05,-0.83,45
-2.81,1.38,21.26,0.2,-1.56,5.71,10.3,-14.85,10.08,1.9,-0.88,-2.78,-0.63,18.84,4.12,2.34,1.12,5.27,45
-2.83,-1.21,21.09,-6.79,-0.29,2.88,11.56,-13.91,10.06,3.22,0.0,-0.88,-0.29,19.8,3.91,4.44,2.88,5.57,45
-2.5,-0.91,21.77,-3.71,-3.81,3.42,11.3,-13.32,10.65,0.54,-3.47,-0.24,0.49,19.04,3.99,2.39,7.23,0.88,45
-2.36,-0.49,21.21,4.49,-1.76,2.73,12.33,-13.76,10.74,3.76,-4.74,-1.42,-0.36,18.95,3.88,-2.69,5.18,0.29,45
-1.48,-0.22,21.0,0.29,-3.12,1.95,11.22,-13.6,10.0,-1.81,-0.78,1.12,0.31,19.47,4.29,1.66,2.25,1.17,45
-0.86,0.43,21.29,0.73,-4.0,4.25,11.14,-14.19,10.37,1.76,-2.29,0.98,-0.08,19.78,3.83,1.03,3.76,-1.66,45
-1.76,-0.31,21.04,-0.15,-2.39,3.52,12.76,-13.47,10.42,7.71,-3.61,-3.12,0.59,19.5,4.36,1.42,0.68,1.03,45
-0.57,-0.25,21.63,-1.42,-3.86,2.59,11.39,-14.32,10.25,-2.3,-5.03,-2.69,1.17,19.3,4.43,-1.22,-0.63,1.07,45
-1.79,-0.58,20.8,2.25,3.81,3.42,11.51,-13.46,9.97,-0.34,-0.1,-3.27,0.43,18.76,4.6,3.12,-3.08,1.46,45
-1.64,-0.31,21.38,7.81,-5.37,3.32,11.55,-13.67,10.37,-2.34,1.03,-1.51,-0.06,19.49,3.37,3.32,2.15,-0.1,45
-3.69,-19.61,-0.83,-356.2,28.76,65.92,-7.64,-15.75,-15.75,2.1,32.23,-24.41,-22.11,-17.51,6.21,34.67,-26.51,3.32,46
-5.04,-23.36,-6.01,-197.71,26.56,67.77,-6.05,-16.74,-22.03,127.73,133.79,-67.53,-13.33,-13.56,10.49,184.33,-69.04,51.46,46
-8.3,-19.56,-12.12,-94.87,25.93,47.9,1.56,-18.94,-16.58,128.12,133.25,-97.46,-8.61,1.71,13.29,231.4,-85.5,73.97,46
-12.3,-24.57,-10.6,22.07,-7.03,-17.72,3.39,-19.09,-6.73,140.97,125.54,-75.73,-3.28,17.74,9.45,280.18,-59.28,82.86,46
-8.13,-23.09,-9.87,203.37,-9.23,-15.58,7.4,-15.18,4.86,76.81,41.94,-46.87,-1.09,21.78,9.56,116.06,-22.41,57.42,46
-6.13,-20.71,0.05,212.21,-21.24,-33.25,10.77,-13.83,8.44,5.86,-1.95,-10.11,-0.55,20.59,6.23,11.43,4.83,15.48,46
-2.93,-14.73,10.39,212.26,-4.83,-25.73,12.69,-13.02,9.42,7.23,0.0,-1.46,0.73,19.96,4.79,17.82,7.23,5.57,46
-1.67,-2.43,18.27,127.64,-18.31,2.83,12.74,-13.37,9.22,-4.83,-3.27,5.37,0.42,18.82,4.95,-2.59,5.32,-4.35,46
-0.21,0.17,21.39,13.96,-8.06,8.79,14.28,-13.94,9.29,1.86,-1.56,-1.27,0.84,18.28,5.63,0.88,1.51,0.2,46
0.4,0.15,21.15,9.13,-0.24,4.98,12.37,-13.14,9.19,0.39,-0.2,-1.22,-0.09,18.69,4.91,0.93,2.59,0.34,46
-0.4,-0.47,20.96,-6.74,3.27,2.05,13.79,-12.15,9.16,8.35,-1.12,-2.25,0.38,18.39,5.22,1.9,1.56,1.27,46
-0.52,-1.8,21.51,-0.34,-1.46,1.42,12.23,-12.68,8.98,-4.05,0.29,2.64,0.07,19.15,4.8,2.34,3.47,0.63,46
-0.85,-0.26,21.29,2.44,-3.81,0.54,12.64,-13.34,8.97,-2.64,1.03,-1.22,0.24,19.0,4.93,3.71,-0.88,2.05,46
-0.74,-1.12,21.03,3.08,-1.27,1.66,13.03,-11.72,9.45,6.15,-0.24,-1.51,0.85,18.96,4.78,4.88,4.39,-0.05,46
-0.21,-0.39,21.28,-1.9,-6.69,1.95,12.82,-13.5,9.23,1.56,0.39,-0.59,0.76,18.9,4.61,0.78,1.27,-0.29,46
-0.04,-0.87,21.38,0.39,2.0,0.98,13.43,-12.78,9.39,5.03,0.0,-1.17,1.52,18.89,4.98,1.12,-1.12,0.39,46
0.95,-0.74,21.72,5.91,-0.34,3.37,12.29,-12.69,9.37,-3.56,-0.34,0.63,0.96,18.64,4.13,0.29,3.27,-0.24,46
0.73,-1.14,21.49,-0.2,-1.86,2.69,12.87,-12.55,9.33,-3.22,1.46,0.98,1.29,18.75,4.38,0.1,-1.07,1.42,46
0.82,-1.55,21.27,1.32,0.2,1.95,12.6,-13.22,9.08,-5.08,-1.27,2.2,1.05,19.14,4.91,0.59,2.39,-2.39,46
0.25,0.15,21.28,0.93,-2.98,0.59,12.96,-13.03,9.38,0.59,0.49,0.98,0.97,18.81,4.66,4.2,1.61,-0.15,46
-5.91,-20.42,-19.88,-96.0,23.68,20.61,5.37,-23.07,-5.01,-263.23,-153.61,75.0,-16.41,-25.42,-1.52,-120.9,96.53,-40.28,47
-5.76,-13.13,-17.05,-30.27,5.22,7.32,-0.64,-19.85,-13.6,-179.35,-131.98,158.59,-20.61,-13.45,0.77,-6.98,41.41,-19.58,47
-7.07,-14.41,-18.38,21.73,-16.06,9.67,-5.08,-18.01,-20.26,-184.13,-142.43,92.14,-19.02,-19.76,-0.71,7.76,-9.77,7.13,47
-6.26,-8.12,-14.9,54.0,3.56,20.7,-9.6,-9.94,-17.09,3.32,-36.43,61.52,-17.45,-9.79,3.34,51.95,1.9,4.15,47
-7.81,-12.38,-17.28,-8.94,19.68,-6.84,-14.9,-5.16,-17.5,-28.76,-2.49,34.47,-15.71,-12.21,1.53,19.87,0.54,-15.23,47
-7.52,-14.45,-17.12,-21.58,-1.46,-13.43,-13.25,-8.56,-15.73,14.4,5.37,-11.67,-17.69,-15.19,1.64,-23.05,-0.39,-10.99,47
-6.6,-18.57,-17.43,24.07,-24.37,4.35,-13.09,-1.86,-14.6,43.75,-5.86,-2.83,-19.08,-22.0,-0.35,-18.31,-5.86,0.83,47
-12.66,-22.22,-22.09,226.37,-169.53,0.88,-13.89,-4.8,-15.91,-2.59,13.48,-2.98,-14.61,-26.96,-0.74,141.36,-119.78,93.6,47
-15.07,-16.41,-8.77,420.75,-8.35,2.69,-15.13,-4.54,-17.05,-24.37,-12.79,-9.18,-7.14,0.69,-9.11,465.53,-124.51,114.94,47
-10.58,10.71,17.04,241.26,-40.62,3.32,-11.22,-10.8,-17.76,23.78,19.34,-21.04,5.14,39.88,-2.22,290.97,-123.34,146.44,47
-8.65,-7.2,19.5,-169.58,-3.47,-19.04,-1.38,-23.73,-21.13,203.17,123.39,-140.87,-4.1,19.19,0.42,-107.96,32.81,-25.29,47
-6.39,-8.72,21.19,79.69,2.05,4.49,-1.08,-18.52,-13.07,333.84,153.42,-112.5,-4.01,15.06,5.46,61.96,-10.16,26.61,47
-4.49,-5.55,19.97,-34.96,7.13,-1.46,-7.76,-3.49,8.45,144.97,-12.4,-36.04,-0.76,19.56,6.19,-15.23,-4.54,-9.42,47
-5.93,-3.76,20.01,4.54,-4.79,1.17,8.31,-36.54,8.85,-98.05,-51.86,-22.12,-4.36,17.87,2.63,7.86,4.0,2.54,47
-5.64,-4.21,20.96,3.08,-5.91,2.39,4.03,-17.45,8.17,55.96,12.99,-12.45,-2.27,19.42,4.07,5.13,4.79,7.28,47
-5.09,-3.78,20.92,13.53,-7.67,6.98,5.22,-21.81,7.86,-21.0,-13.38,9.18,-1.33,18.54,4.33,12.4,1.42,6.74,47
-5.12,-4.21,20.62,-3.61,-2.78,2.1,4.19,-18.27,8.87,-0.49,2.0,-2.1,-1.08,17.4,3.76,-2.34,0.49,1.07,47
-4.86,-2.83,21.15,3.91,-4.49,0.78,6.17,-18.49,9.02,3.76,-2.69,-3.37,-1.88,19.76,3.02,7.08,4.05,5.13,47
-5.28,-2.39,21.04,2.05,-6.79,3.08,6.03,-16.37,9.44,12.94,-1.17,-1.07,-1.62,19.59,2.94,4.64,6.01,5.18,47
-4.22,-3.09,20.87,4.74,-7.71,4.93,5.91,-18.55,9.34,4.3,-0.2,-0.24,-1.25,20.01,2.68,4.59,1.22,2.78,47
-7.4,-20.37,1.55,-406.93,-13.77,-17.48,-2.76,-13.24,-17.61,-77.2,-112.35,40.53,-9.88,0.14,10.24,-218.02,113.28,-83.4,48
-7.39,-20.18,1.69,-214.11,16.65,24.61,-12.95,-5.31,-16.46,-15.77,13.04,-4.35,-15.0,-4.95,4.02,-220.65,106.35,-84.72,48
-6.44,-16.33,-12.97,-210.4,-9.57,29.44,-3.85,-14.91,-16.38,99.17,130.37,-79.49,-16.17,-30.91,2.28,-177.78,35.45,-48.1,48
-5.07,-26.36,-16.25,-136.43,-9.18,2.83,-0.68,-19.82,-19.89,175.2,179.0,-115.82,-17.71,-20.86,4.73,-18.85,-13.28,12.79,48
-8.89,-22.9,-14.59,-23.49,-20.51,-10.69,2.8,-19.94,-9.05,167.28,151.12,-92.97,-16.53,-15.17,3.3,159.42,-84.47,45.9,48
-8.54,-22.36,-13.34,183.84,-15.58,-16.94,9.3,-14.94,3.89,112.74,63.28,-62.7,-10.93,-3.15,9.52,260.89,-130.42,84.42,48
-8.33,-20.65,-4.62,276.71,-52.88,-40.92,11.6,-13.39,8.47,34.28,21.68,-22.17,-3.68,13.48,11.26,235.2,-107.57,97.66,48
-8.36,-14.81,6.59,268.21,-36.57,-23.68,10.56,-12.92,10.03,8.5,11.57,-6.64,0.43,22.36,10.97,131.1,-46.0,58.3,48
-3.73,-7.35,18.63,161.38,-23.44,-4.98,11.97,-12.65,11.52,-0.54,2.73,-6.88,0.77,18.29,7.39,35.79,-16.41,14.36,48
-2.44,-3.58,20.16,43.16,-5.32,-4.93,12.79,-11.93,12.34,-2.98,1.95,-3.71,1.72,18.61,5.91,18.55,-10.84,0.34,48
-2.46,-1.75,20.14,16.31,0.83,-3.81,10.99,-10.91,12.14,5.76,4.69,-1.46,1.21,18.61,3.6,10.6,-4.25,4.15,48
-2.16,0.54,20.68,8.5,-0.59,-3.52,11.8,-11.74,12.04,-4.44,-1.51,1.95,1.76,19.43,3.17,6.88,-4.44,4.25,48
-1.42,2.62,21.69,10.94,-0.93,-1.03,11.9,-10.84,12.22,3.47,2.44,-2.0,2.43,19.35,2.85,5.91,-4.44,-2.59,48
-0.96,2.29,21.37,14.6,-2.59,0.39,11.71,-12.08,12.17,-3.96,-4.49,2.05,1.67,19.58,2.55,-8.74,0.39,-6.45,48
-1.45,1.54,20.83,-6.2,-0.88,-0.2,11.6,-11.58,12.41,-0.63,-3.56,0.68,1.19,20.03,2.18,10.45,2.93,5.71,48
-2.01,2.01,21.1,9.42,-4.98,0.0,12.38,-11.63,12.09,1.22,0.93,-1.42,1.19,18.72,2.51,-1.51,7.28,1.51,48
-1.25,2.27,20.96,-0.78,-7.18,6.98,11.49,-11.48,12.34,10.6,3.42,0.0,1.91,20.2,2.68,1.61,3.56,5.27,48
-1.12,2.6,21.65,6.69,-10.4,5.66,11.01,-11.87,12.8,1.61,6.98,-5.96,2.07,19.93,3.16,-0.24,0.44,1.17,48
-0.8,1.63,21.82,2.1,-6.69,1.22,11.41,-11.52,12.84,-2.1,4.35,0.34,2.35,18.95,2.91,4.39,5.03,2.88,48
-1.11,1.11,20.69,6.05,-4.49,4.2,10.57,-11.97,12.41,-1.27,1.03,2.98,2.28,17.43,2.88,-10.89,0.98,5.76,48
-4.07,-22.31,2.82,-204.39,5.62,34.13,6.61,-8.73,3.03,-158.45,-94.19,36.04,-10.74,0.94,14.96,-172.51,90.33,-77.93,49
-5.12,-22.8,-7.89,-159.33,7.71,40.43,11.02,-19.99,-8.08,-160.35,-158.01,49.17,-15.56,-12.92,10.08,-177.49,80.86,-80.76,49
-6.09,-22.36,-9.04,-38.09,-2.59,23.78,5.37,-19.06,-15.24,-131.35,-118.7,74.95,-16.2,-17.6,11.09,-28.32,33.74,-7.37,49
-7.33,-20.63,-5.78,24.32,-0.83,-1.42,-1.17,-13.85,-18.93,-84.52,-102.78,64.94,-15.17,-12.63,11.01,28.81,-14.89,14.89,49
-4.76,-25.31,-8.42,162.3,7.76,-16.26,-6.61,-11.32,-18.61,0.54,-29.39,22.66,-15.02,-20.0,7.71,156.1,-68.31,53.91,49
-4.2,-18.36,1.75,236.03,6.05,-22.51,-5.43,-12.53,-14.61,22.22,18.85,-12.65,-10.16,5.65,13.63,262.16,-71.68,88.13,49
-3.4,-14.42,11.86,191.55,-14.75,-21.92,-0.97,-19.99,-18.7,120.07,127.78,-38.77,-6.09,10.33,14.55,168.99,-64.31,78.17,49
-2.59,-7.3,17.31,140.14,-16.75,0.73,0.69,-18.46,-15.65,160.01,141.89,-50.44,-4.46,18.42,10.43,102.34,-31.69,51.51,49
-2.54,-3.58,18.8,63.96,-13.23,3.37,5.88,-19.67,-4.49,124.51,96.19,-47.46,-2.76,19.11,8.25,49.76,-10.25,26.86,49
-3.11,-2.41,20.76,35.4,-8.84,4.39,6.4,-15.93,3.51,80.52,50.44,-27.1,-1.27,19.82,6.59,22.7,-0.2,13.38,49
-2.91,-0.54,21.95,26.07,2.88,3.08,7.57,-15.15,8.04,33.64,18.36,-15.23,0.11,21.48,5.84,18.99,-7.08,4.39,49
-2.24,-2.7,21.61,-4.83,-3.47,2.2,8.41,-14.43,10.26,18.85,4.25,-9.57,-1.46,18.42,4.65,2.39,0.05,-4.44,49
-2.78,-2.57,21.26,-2.0,-4.1,5.96,9.33,-14.44,11.43,0.49,3.37,1.03,-0.38,19.15,4.63,-2.3,3.66,0.15,49
-2.49,-0.84,21.15,4.93,2.25,2.59,9.18,-15.97,11.46,-0.44,-1.95,0.29,-0.67,19.43,4.31,3.81,-0.44,-0.54,49
-2.22,-0.93,21.82,2.39,-4.93,1.32,8.21,-15.75,11.31,0.83,-2.15,-0.59,-0.08,18.47,4.69,-1.27,1.86,2.54,49
-2.69,-1.26,20.66,-4.83,0.2,-3.12,9.23,-14.37,11.13,1.86,-2.1,-1.37,-0.71,19.18,3.77,3.91,-0.44,-1.51,49
-1.42,-1.77,21.59,-1.81,-10.16,-0.83,9.18,-14.89,11.29,2.39,-0.78,-0.54,-0.32,19.14,4.79,-0.88,-1.86,0.63,49
-2.06,-1.85,21.27,2.2,-0.54,1.61,9.06,-15.26,11.09,-3.13,-2.88,-1.9,-0.84,19.49,3.84,4.83,3.91,0.73,49
-2.46,-2.16,21.59,-3.71,-3.12,-1.76,9.97,-14.81,11.25,-0.2,-2.54,-2.88,-0.25,19.23,4.77,-0.34,-2.1,-1.37,49
-2.83,-2.4,20.78,1.22,3.37,-2.2,9.97,-13.93,11.59,0.54,-0.34,-2.54,-0.57,18.95,4.81,-0.73,-2.54,-3.96,49
-9.37,-25.48,-10.82,-209.72,3.71,-21.24,-4.88,-14.73,-16.04,41.55,34.67,-14.89,-15.36,-11.72,14.64,49.8,-8.15,4.74,50
-8.07,-22.63,-7.55,64.94,5.81,5.13,-2.99,-18.75,-15.63,78.27,55.62,-60.89,-12.95,-6.28,17.04,115.48,-38.53,48.19,50
-5.86,-21.19,-4.32,31.05,4.83,1.9,3.6,-22.29,-11.94,142.19,107.96,-86.18,-8.42,3.33,13.17,194.38,-51.51,76.9,50
-6.28,-21.68,-5.47,53.95,0.98,3.03,2.74,-15.93,-1.66,168.95,102.98,-78.03,-1.28,18.84,8.1,232.86,-56.69,89.75,50
-8.14,-24.52,-1.92,104.2,-46.19,-6.35,7.62,-14.71,7.18,30.32,-5.52,-11.38,0.45,23.06,7.03,49.56,-2.29,8.89,50
-6.77,-20.65,4.83,197.41,-37.94,-11.47,10.39,-17.07,7.5,24.85,0.24,-9.47,-0.64,17.59,3.51,7.57,-1.12,2.59,50
-6.0,-8.67,14.2,243.75,-56.54,-7.96,7.53,-14.57,7.28,8.35,0.88,5.86,-1.3,18.55,3.67,11.77,7.32,-8.45,50
-5.86,-2.72,20.15,36.23,-6.35,17.43,8.22,-18.61,8.17,-14.65,-13.77,10.01,-2.83,19.5,3.88,-7.57,5.62,-8.25,50
-4.14,-6.33,20.12,7.23,-10.45,2.73,11.91,-20.34,6.44,0.83,-2.73,0.1,-3.28,19.08,4.88,4.83,5.03,-2.83,50
-6.16,-3.58,18.47,9.28,16.02,5.76,8.8,-16.38,7.9,2.44,-5.57,12.5,-2.04,19.42,3.63,-2.98,11.08,-18.7,50
-6.7,-5.07,20.99,-20.51,10.84,4.74,8.21,-18.61,6.94,2.05,-6.05,-2.0,-3.15,18.16,4.04,7.32,5.86,1.86,50
-6.45,-7.3,21.88,-5.37,-2.44,2.25,9.62,-17.11,7.74,5.22,-1.56,6.2,-1.64,20.55,3.47,0.34,8.5,3.52,50
-6.43,-3.15,20.63,7.13,18.6,13.43,8.21,-17.87,7.56,7.71,9.47,6.93,-2.8,18.53,3.44,7.67,-0.29,-0.39,50
-6.22,-5.94,20.32,-3.71,-4.83,2.0,8.09,-18.96,10.01,10.89,2.64,-0.39,-2.87,17.47,3.26,-0.1,-0.44,3.76,50
-5.79,-3.26,21.04,7.57,9.96,6.88,7.7,-20.44,6.83,-1.17,6.2,2.78,-2.81,18.78,3.83,-10.21,-7.86,-8.5,50
-5.9,-5.04,20.11,4.05,2.98,-0.78,6.85,-16.54,8.49,-1.22,0.1,-1.61,-2.99,18.04,2.68,9.08,-2.78,-6.84,50
-8.57,-5.29,19.8,-5.81,-10.4,-0.05,8.57,-19.47,7.73,-4.83,10.3,-4.0,-3.34,20.25,2.37,1.07,-6.49,1.12,50
-6.11,-6.31,20.89,-37.74,3.81,-14.21,6.51,-17.0,7.85,-3.03,3.81,-2.0,-3.01,20.2,2.98,11.08,-6.49,-0.63,50
-7.2,-4.0,18.88,4.15,10.64,-4.25,7.11,-18.29,8.38,-7.62,6.2,-2.59,-3.49,19.37,2.0,4.54,-1.76,3.13,50
-6.21,-4.56,20.93,-10.16,-0.73,-11.23,7.45,-17.81,8.65,-2.83,6.1,-1.76,-2.92,19.37,2.17,2.15,-3.12,1.66,50
-9.71,-17.38,1.72,-448.39,-49.51,46.83,-8.57,-11.67,-15.44,-5.47,-3.96,-3.42,-19.52,-20.02,3.72,-25.83,-7.96,-21.58,51
-6.03,-24.1,-5.95,-288.18,-21.78,85.6,-3.28,-16.23,-14.24,19.53,54.98,-43.16,-17.69,-20.59,4.06,67.19,-38.82,19.14,51
-10.0,-19.28,-13.01,-150.63,29.54,6.98,-2.73,-18.57,-21.84,136.52,175.54,-81.59,-12.77,-9.85,10.12,219.43,-82.81,42.43,51
-9.24,-26.17,-14.8,-38.72,15.33,0.44,-0.16,-18.32,-11.71,131.05,178.56,-60.35,-5.43,15.38,8.28,342.09,-89.21,67.72,51
-8.64,-22.87,-12.67,69.73,0.49,-2.78,2.99,-14.22,-2.95,163.92,115.23,-67.29,-4.35,15.27,3.66,248.73,-52.15,100.39,51
-5.68,-23.48,-11.86,210.45,30.57,-10.55,5.37,-5.85,7.62,-7.81,31.25,-32.96,3.22,29.13,3.93,39.16,-39.26,38.18,51
-5.3,-16.58,4.3,260.06,66.21,-38.48,12.5,-16.35,9.55,-3.17,3.86,4.0,-0.06,13.52,2.33,-29.98,8.2,-8.35,51
-4.14,-11.15,10.41,275.24,0.2,26.9,11.44,-13.74,9.5,-6.15,3.86,-1.03,1.75,19.24,3.94,0.68,-2.88,2.98,51
5.5,11.65,22.74,125.1,-48.44,-33.3,11.64,-14.25,9.28,1.22,8.89,0.29,0.53,17.34,2.56,2.29,-6.35,2.88,51
1.48,-5.39,22.65,-20.61,-10.06,1.95,12.31,-13.04,9.56,3.86,-4.44,2.15,0.98,21.42,2.48,-0.68,7.62,-1.12,51
0.43,1.33,20.94,3.61,-12.79,-6.93,9.5,-14.18,9.72,0.59,6.79,2.64,2.82,19.43,3.91,-2.1,-10.4,-1.81,51
-2.11,-2.09,21.43,-3.81,-6.84,0.05,10.02,-14.76,9.39,-4.54,4.64,-1.22,0.95,17.12,2.26,-2.39,-2.64,-3.32,51
-1.18,-2.22,21.07,13.48,-2.93,8.64,11.53,-15.72,9.62,-1.37,2.78,0.29,1.43,18.65,2.23,-5.62,-2.29,-5.22,51
-2.45,-1.77,21.22,12.4,-2.1,0.68,11.53,-13.47,9.69,4.2,1.37,1.66,1.62,20.17,2.01,3.91,8.11,-0.98,51
-0.92,-2.27,20.56,-13.38,2.49,-4.1,11.28,-14.66,9.34,2.83,3.86,0.83,1.66,19.4,3.28,4.83,-0.34,3.56,51
-0.24,-3.57,21.97,-10.94,-3.66,-2.0,10.23,-15.11,9.45,3.91,0.05,3.66,1.54,18.35,2.88,-0.49,-2.1,-3.52,51
-0.66,-3.21,21.34,0.73,1.17,1.51,10.15,-15.86,9.4,4.49,0.59,-0.34,1.26,19.4,2.9,1.07,-0.15,1.76,51
-0.94,-3.82,21.22,-0.39,0.05,0.49,10.31,-16.42,9.6,3.47,0.39,-3.32,2.3,19.63,3.01,2.69,0.0,4.88,51
-1.33,-3.85,21.06,1.37,1.66,-3.03,10.56,-14.29,9.53,3.95,4.05,-1.46,2.13,19.04,2.61,2.0,6.05,5.22,51
-0.71,-3.31,21.38,-0.98,-5.76,-6.05,10.77,-15.35,9.56,0.83,-0.34,2.49,1.7,19.73,3.04,0.2,4.93,-1.81,51
-1.53,-2.6,21.47,-3.96,-1.17,-1.03,8.41,-17.04,11.86,-3.13,-0.44,0.29,-15.89,-21.09,-1.0,255.42,-76.27,59.28,52
-2.69,-0.36,20.82,3.71,10.5,-7.37,7.63,-16.44,11.91,-4.69,1.51,2.0,-2.08,30.51,-19.03,646.63,-96.04,131.49,52
-2.16,-0.09,21.44,-2.78,-0.24,-9.52,7.19,-16.47,11.85,-3.56,1.07,1.95,0.83,28.81,10.95,-23.97,1.81,-13.23,52
-0.18,-2.16,22.1,15.53,-14.99,8.2,7.36,-14.43,11.74,11.82,11.57,0.49,-3.44,15.39,6.4,0.83,-15.97,3.61,52
-2.63,-3.46,20.91,0.88,2.93,1.22,6.87,-15.69,12.14,5.47,7.18,-0.54,-3.22,22.48,5.01,-2.0,-6.25,-7.42,52
-2.47,-1.92,21.45,0.44,1.56,-0.63,5.02,-12.02,13.58,6.45,-6.54,-7.13,-4.8,18.86,4.29,9.67,-1.56,1.95,52
-2.41,-0.93,21.51,1.32,-0.1,-6.15,-19.42,-13.09,-11.56,-284.67,-236.91,119.58,-4.39,16.56,5.32,-9.03,-1.46,-4.39,52
-2.86,-0.92,20.82,4.78,-3.42,-3.32,5.43,-34.07,-35.48,-248.68,-407.47,32.28,-4.0,18.29,4.34,1.32,-4.69,-2.44,52
-2.59,3.2,22.75,10.5,-5.91,-3.61,-4.56,-18.13,-19.46,75.54,66.06,32.47,-3.35,19.28,3.83,8.74,3.03,3.61,52
-4.59,6.32,5.34,-315.63,83.89,130.96,7.36,-27.01,-22.05,156.3,217.29,-119.87,-3.36,19.91,3.72,4.54,2.15,3.91,52
-0.6,-41.73,-19.48,-470.26,-170.7,73.39,-5.14,-11.23,-13.21,319.29,249.12,-74.71,-3.29,18.28,4.08,-0.59,-2.39,2.29,52
-11.14,-27.64,-19.32,34.67,41.7,9.13,10.82,-13.12,4.1,-147.12,-74.37,-2.54,-2.17,18.77,3.51,7.52,-0.88,3.17,52
-5.9,-26.8,-10.07,310.64,7.71,-92.87,12.22,-16.99,6.01,60.79,19.09,-8.98,-3.15,19.81,3.0,1.71,2.59,-4.25,52
-7.76,-1.68,6.03,456.84,42.19,-64.11,8.29,-16.04,6.82,-18.46,1.81,0.29,-3.14,18.49,2.87,1.22,-1.27,-2.83,52
-2.94,-2.54,21.18,-146.09,-24.22,-14.21,9.05,-16.94,6.95,7.37,7.57,-6.49,-3.09,19.65,3.36,6.59,0.05,3.56,52
-0.74,-9.9,22.0,38.92,-13.62,-1.9,8.77,-18.37,6.92,-2.49,7.08,-2.83,-3.47,19.93,2.34,5.42,4.93,2.64,52
-2.87,-4.18,19.7,-14.89,1.61,-10.3,8.21,-17.83,7.55,14.16,4.93,-3.42,-2.36,20.22,2.64,2.88,4.35,-2.64,52
-2.34,-5.71,19.85,11.43,-3.32,-4.44,8.52,-16.35,7.97,11.52,4.64,-3.42,-3.29,18.42,2.11,1.61,-5.13,-5.03,52
-1.55,-7.55,20.46,5.91,-3.03,-1.56,7.89,-18.02,7.9,3.86,-0.39,2.05,-3.88,18.18,3.09,0.24,-4.25,-2.15,52
-2.11,-6.99,20.68,14.75,-1.22,0.44,8.86,-18.97,8.25,1.37,-3.37,2.54,-2.5,19.92,2.56,8.4,-3.22,3.71,52
-9.49,-20.32,-13.93,-66.65,0.0,25.49,-7.8,-12.03,-15.65,-47.95,-73.54,30.42,-14.8,-20.16,5.66,-117.87,38.57,-21.0,53
-9.12,-16.26,-11.74,-6.2,6.74,6.59,-12.78,-7.91,-15.14,-23.83,-11.28,6.2,-14.23,-17.07,9.25,-10.94,7.71,-9.96,53
-7.28,-17.35,-11.95,29.1,8.45,6.49,-9.83,-11.97,-13.34,5.27,8.11,-8.69,-13.94,-17.87,8.75,10.01,-4.69,1.12,53
-8.29,-23.29,-11.44,205.91,-34.13,-42.19,-1.99,-18.98,-16.3,94.73,140.53,-95.07,-15.97,-26.07,3.53,141.75,-54.98,23.58,53
-10.02,-23.29,-4.53,210.3,-31.69,-46.44,-3.64,-18.96,-18.44,143.12,149.51,-67.14,-9.72,4.51,12.94,269.97,-54.1,38.28,53
-9.59,-20.42,6.32,151.32,-3.17,-24.07,0.04,-21.49,-7.84,103.32,103.27,-52.64,-5.86,17.09,11.07,247.17,-43.65,59.23,53
-3.3,-6.37,18.53,34.67,16.7,-45.26,5.64,-10.18,0.29,11.23,59.72,-32.37,-3.89,28.23,9.44,141.11,-32.62,52.34,53
-2.86,-9.37,19.11,32.32,-4.25,2.1,9.25,-17.41,3.06,26.61,8.89,-4.1,-4.56,18.66,7.5,15.58,0.63,-4.05,53
-3.1,-7.1,19.45,33.64,4.98,-7.13,9.01,-15.14,4.94,21.29,18.65,-10.84,-5.04,20.72,5.3,31.01,-7.42,10.4,53
-2.41,-8.95,19.44,0.29,1.07,-5.18,9.54,-16.78,5.7,3.27,7.91,-2.59,-4.86,20.57,4.91,3.86,-1.03,-3.81,53
-2.61,-7.57,19.82,15.92,0.29,-1.51,8.56,-16.68,6.29,13.28,6.74,-4.15,-3.85,19.15,5.06,13.09,-0.54,2.05,53
-2.32,-7.33,20.14,12.26,-0.63,-0.54,9.47,-17.27,6.87,7.03,11.18,-2.34,-3.69,19.75,4.04,10.01,1.22,-0.88,53
-2.46,-6.27,20.52,23.78,2.83,-1.76,8.45,-16.32,8.38,22.07,15.14,-2.39,-3.58,19.75,2.88,20.51,0.34,3.03,53
-2.08,-4.59,21.61,22.95,-3.81,2.39,7.98,-15.56,9.5,12.21,7.62,-1.17,-3.44,18.93,2.27,14.84,-1.27,2.05,53
-2.56,-5.22,22.24,6.84,2.0,2.59,9.45,-17.31,10.31,9.81,1.76,1.71,-3.64,19.9,1.39,1.66,6.88,-5.18,53
-3.09,-5.57,20.47,-12.21,10.79,0.24,7.67,-17.81,8.8,-6.49,2.34,9.38,-3.05,19.82,2.74,-3.91,-0.73,-12.99,53
-5.06,-5.31,20.69,-9.81,3.17,-2.15,7.51,-18.39,9.11,-10.89,0.1,-4.1,-5.12,19.76,2.19,-5.27,1.71,-3.66,53
-3.25,-4.31,20.99,4.88,0.2,5.13,6.87,-16.21,9.36,3.76,0.44,2.88,-4.09,20.13,2.07,-0.39,4.44,-1.12,53
-2.82,-4.99,20.32,-18.95,0.15,-1.86,7.2,-17.15,8.27,-17.38,-5.42,3.42,-4.32,18.99,2.32,-13.13,6.05,-3.12,53
-3.06,-7.08,20.13,-31.35,0.05,1.66,7.98,-19.02,7.66,-19.19,-11.91,2.0,-5.23,18.73,3.55,-30.76,12.45,-7.81,53
-5.52,-8.35,1.92,-404.1,88.77,45.41,-6.66,-15.86,-8.09,-295.31,-114.75,154.83,-12.46,-16.35,8.28,-179.49,59.13,-58.25,54
-2.16,-28.85,-2.38,-256.79,-14.16,71.34,2.42,-22.75,-14.73,-122.8,-168.75,91.36,-17.3,-22.76,8.55,9.57,16.55,-0.78,54
-6.92,-22.96,-7.37,-149.95,31.64,58.35,-5.25,-18.24,-17.05,-73.34,-98.83,87.55,-14.37,-18.94,8.43,139.55,-34.67,28.22,54
-8.17,-19.15,-14.54,-102.39,35.99,52.44,-9.95,-12.83,-16.74,-30.52,-72.46,69.63,-5.3,-1.47,12.88,289.06,-50.44,83.01,54
-13.03,-23.07,-13.97,18.31,19.19,-0.39,-9.17,-14.05,-14.54,20.7,17.38,-19.87,-4.95,11.59,12.71,199.32,-22.36,92.63,54
-8.4,-25.81,-12.35,160.16,-20.95,-43.99,-3.97,-20.92,-18.53,109.37,139.75,-87.26,-0.38,25.29,5.71,180.32,-15.19,80.62,54
-5.92,-19.93,-2.01,225.63,-42.68,-39.11,-3.38,-20.71,-13.0,153.17,97.66,-118.02,-0.11,20.2,3.65,70.85,-9.77,25.24,54
-3.1,-17.56,8.37,223.05,-48.0,-22.8,7.93,-19.67,-4.81,141.8,83.59,-111.77,0.07,18.35,1.34,36.13,-8.98,3.71,54
-1.8,-9.86,17.62,150.83,-16.8,-14.11,8.19,-17.45,5.55,133.4,50.0,-63.48,-0.42,19.78,-0.68,8.94,-4.2,-5.96,54
2.63,-1.95,19.89,35.84,0.78,-12.55,10.58,-15.92,9.44,65.82,30.52,-16.89,-0.4,18.22,-0.48,-5.47,-2.93,-9.81,54
1.93,-1.54,20.66,29.05,-1.32,-8.45,10.67,-14.21,10.99,29.25,23.73,-6.54,-0.75,19.38,-0.82,1.66,2.44,-0.88,54
-0.26,2.21,20.65,4.1,4.64,-3.91,10.61,-12.93,12.64,-3.71,7.76,4.59,-0.46,19.7,-0.41,-8.55,2.25,-5.57,54
-1.69,0.59,20.36,-3.71,12.21,2.25,10.62,-13.68,13.12,-5.03,-1.22,5.32,-1.0,19.27,-0.47,-7.42,6.01,-4.39,54
0.35,1.16,21.97,-1.32,-4.05,2.44,11.66,-12.34,12.87,-3.66,-1.56,-0.49,-1.48,19.05,-0.23,3.81,-0.68,-1.12,54
-0.29,1.06,21.05,-5.42,7.42,3.27,11.17,-11.82,12.74,1.81,-8.84,4.59,-1.78,19.91,-0.45,3.86,2.2,-0.05,54
0.07,0.96,20.59,-15.97,6.93,1.22,10.93,-13.71,12.46,-7.37,-5.81,4.35,-1.1,19.86,0.29,1.32,0.88,-1.22,54
0.46,0.45,21.1,1.17,4.49,-2.34,10.14,-13.2,11.77,0.73,4.2,1.03,-1.13,19.11,0.17,0.98,5.37,0.15,54
0.5,0.65,20.97,-3.52,0.98,-0.68,10.42,-12.86,12.15,-4.05,-0.15,0.63,-1.25,19.94,-0.28,0.63,0.0,0.83,54
0.38,0.88,21.24,9.47,-1.07,1.9,10.54,-12.37,11.94,-1.32,-2.2,-1.56,-0.26,19.13,0.51,-6.64,-1.46,-0.39,54
0.44,0.72,21.31,5.52,-2.88,4.69,10.05,-12.36,12.34,0.34,-1.37,0.54,-0.98,19.15,-0.35,5.37,3.81,3.03,54
-2.75,9.28,16.39,-174.17,7.23,16.46,-7.02,-12.06,-18.37,-10.99,-27.49,16.99,-4.47,17.29,8.56,9.67,-0.93,-0.34,55
-1.06,-23.66,4.67,-339.5,-27.88,33.69,-1.61,-19.31,-17.12,94.78,80.66,-48.34,-4.6,18.0,8.03,3.95,-0.68,-3.17,55
-4.66,-20.19,-2.88,-179.69,26.17,40.77,7.09,-22.06,-15.55,147.95,159.67,-83.35,-4.87,17.86,8.12,1.42,-0.98,-4.49,55
-5.22,-22.69,-9.39,-135.25,19.97,18.46,1.64,-16.22,-7.8,152.59,128.08,-37.35,-4.76,18.18,8.36,-1.17,-0.05,-3.71,55
-6.25,-22.34,-12.47,-20.61,6.2,11.04,4.7,-13.43,2.15,116.85,41.06,-40.09,-5.0,18.06,8.23,2.25,0.63,-1.07,55
-5.7,-23.75,-8.49,163.72,-2.93,-5.57,7.39,-15.26,8.38,67.63,18.02,-29.93,-4.44,16.72,8.66,1.9,1.27,0.1,55
0.02,-23.25,2.59,260.4,18.21,-17.04,7.94,-13.16,11.17,32.42,-0.88,-16.75,-4.89,18.11,7.93,1.03,3.42,-1.51,55
-8.24,-13.07,10.08,192.33,-6.74,-4.49,9.71,-14.25,11.43,3.03,-8.59,-7.62,-4.67,18.31,8.45,8.45,2.49,-1.46,55
-5.45,-5.6,16.86,143.99,-31.15,8.25,10.46,-14.22,10.78,4.15,-5.08,-2.83,-4.73,17.8,7.97,6.01,1.07,-4.54,55
