ACC-X-Ring1,ACC-Y-Ring1,ACC-Z-Ring1,GYRO-X-Ring1,GYRO-Y-Ring1,GYRO-Z-Ring1,ACC-X-Ring2,ACC-Y-Ring2,ACC-Z-Ring2,GYRO-X-Ring2,GYRO-Y-Ring2,GYRO-Z-Ring2,ACC-X-Ring3,ACC-Y-Ring3,ACC-Z-Ring3,GYRO-X-Ring3,GYRO-Y-Ring3,GYRO-Z-Ring3,TEST
-0.64,-4.43,19.84,168.6,-24.71,10.3,6.89,26.46,-0.13,300.29,-3.71,52.34,6.39,2.12,-17.75,38.23,25.59,17.29,1
1.21,7.87,15.84,211.62,-17.24,33.54,4.46,24.67,1.54,-7.96,13.28,9.52,5.73,2.84,-20.38,28.76,23.05,6.54,1
2.88,11.22,9.72,189.94,-7.28,26.12,2.36,24.49,2.44,-51.47,2.39,-6.25,8.07,0.05,-18.18,-32.13,-8.89,3.66,1
4.9,21.18,-6.79,235.25,29.54,48.44,2.28,18.22,5.83,-170.46,-30.18,21.53,10.1,7.0,-17.42,-98.63,2.49,-10.5,1
7.75,15.93,-3.98,53.76,-22.02,45.51,6.54,5.5,10.73,-270.56,-10.25,50.54,10.99,10.74,-15.1,-143.51,5.62,-43.75,1
4.71,20.84,-6.92,-18.8,0.24,-0.63,6.73,-9.94,7.58,-353.42,-8.94,57.18,7.31,12.04,-9.59,-159.18,10.94,-61.52,1
4.71,23.39,-5.4,-81.1,-5.52,-43.46,8.71,-20.6,5.67,-99.56,-61.72,31.45,4.48,16.85,-3.35,-115.33,13.38,-56.98,1
4.48,23.66,-0.62,-180.62,-6.84,-39.01,7.3,-22.79,2.59,-52.15,-25.24,21.63,-0.33,18.23,2.76,-41.7,8.84,-35.25,1
1.14,15.46,7.06,-225.63,31.79,-46.78,9.58,-19.6,1.06,-18.99,-25.49,-2.1,0.63,21.95,5.17,-11.82,8.2,-0.1,1
-1.31,6.57,15.57,-166.6,65.77,-29.64,9.62,-19.35,0.87,-1.37,-8.94,-7.52,0.85,20.2,4.94,3.81,3.22,8.54,1
-5.18,-4.16,18.77,-168.21,21.29,-13.72,8.45,-16.98,2.4,14.01,4.64,3.03,-1.21,17.16,3.5,9.42,0.34,-2.64,1
-8.2,-8.25,19.63,-41.89,19.53,1.03,7.44,-19.43,1.04,-15.72,-4.98,-1.42,-1.64,17.8,4.29,-16.89,2.93,-7.91,1
-4.2,-8.92,20.81,-33.35,-12.01,3.03,7.96,-18.83,0.98,4.3,4.44,-13.87,-1.27,18.22,4.92,6.25,-10.79,5.96,1
-3.04,-8.88,20.66,-5.86,-11.67,2.64,10.35,-19.68,0.53,6.05,3.91,-16.6,-0.42,19.75,4.97,4.44,-7.18,11.82,1
-4.93,-5.57,18.64,16.36,9.47,2.34,10.64,-18.91,2.21,14.99,4.3,-10.74,1.12,20.12,4.26,9.72,3.96,9.86,1
-6.35,-9.5,18.51,-9.28,-1.37,-3.76,10.72,-16.45,3.2,8.01,1.37,-6.01,1.63,19.47,2.88,11.08,-2.15,8.45,1
-5.43,-8.06,19.23,10.84,-15.23,-6.4,10.32,-16.52,2.79,1.51,-0.59,-4.3,1.74,17.27,3.19,2.0,-2.83,1.12,1
-3.84,-8.85,20.9,13.48,-14.45,-3.81,11.56,-17.67,2.82,-2.1,-0.63,-4.05,1.88,17.89,2.94,-0.68,0.73,3.42,1
-3.92,-6.85,21.01,26.76,-9.47,4.69,11.35,-16.84,2.86,3.95,0.63,-5.13,2.63,19.19,3.15,5.42,0.24,4.3,1
-1.44,-5.14,20.61,-0.34,-11.82,-1.86,11.44,-16.29,2.98,3.32,0.24,-5.76,2.53,18.8,2.77,0.05,0.68,2.34,1
5.06,19.46,-7.62,16.41,1.22,9.23,8.16,-17.91,7.7,0.15,1.95,-1.46,5.16,-2.88,-18.95,-11.77,6.1,1.03,2
4.14,19.77,-8.2,0.63,0.78,-1.37,7.77,-18.38,7.52,-3.86,1.22,1.07,4.08,1.9,-18.98,-52.0,3.71,2.0,2
3.4,21.21,-4.93,-53.91,-6.54,-20.51,7.74,-17.62,7.85,2.78,1.17,0.39,5.6,1.72,-19.26,-117.92,-3.91,-3.66,2
6.64,21.78,-0.0,-68.99,-0.54,-19.38,8.08,-17.4,8.0,5.13,-1.37,-2.34,6.85,7.93,-18.32,-148.73,11.91,-25.73,2
5.89,21.17,6.04,-124.32,13.72,-19.14,9.65,-16.96,8.03,3.86,-3.42,-1.71,2.44,15.49,-12.73,-121.68,5.08,-50.59,2
3.05,9.87,14.05,-168.7,13.77,-31.98,8.57,-17.08,7.98,-2.44,-0.88,0.49,-0.67,15.36,-5.98,-80.27,-5.47,-31.01,2
-4.08,3.0,18.79,-103.56,-1.86,-29.98,8.08,-17.36,8.1,-5.27,0.63,-0.1,2.31,17.82,-2.55,-32.18,2.29,-6.49,2
-3.12,3.95,21.99,-13.23,-9.42,-1.12,7.83,-17.5,7.72,-4.39,0.93,1.66,1.47,20.32,-2.2,-11.96,4.69,-12.5,2
-3.17,3.11,21.1,-9.52,3.71,2.78,7.77,-16.72,7.39,-10.94,-10.89,-8.79,1.68,18.23,-1.46,-10.89,4.88,-7.81,2
-3.91,2.13,20.82,-6.93,-4.44,6.45,8.6,-16.73,8.08,11.08,-2.1,-1.27,-0.14,19.08,-2.15,-5.62,3.96,-4.64,2
-3.32,2.99,20.66,-5.86,-2.54,2.1,8.6,-17.09,7.62,2.44,-0.93,0.1,-0.42,19.78,-1.44,-14.55,1.61,-3.71,2
-2.91,1.38,21.08,-19.87,-4.49,-3.22,8.29,-17.23,7.78,0.78,-1.76,-2.39,-1.3,18.33,-0.69,-12.21,5.66,-1.66,2
-3.31,0.85,21.24,-10.6,-0.83,0.15,8.73,-17.12,8.08,1.32,-0.78,-3.81,-0.47,19.27,-0.54,-4.54,4.39,-0.63,2
-3.09,2.69,21.14,-12.01,-0.44,-1.07,9.32,-17.33,7.74,0.2,-0.39,-2.59,0.48,19.71,0.13,-0.68,3.03,-0.29,2
-2.81,2.26,21.38,2.0,-2.2,3.08,8.76,-16.88,7.91,5.08,1.32,-1.17,0.01,20.18,0.49,-5.96,3.56,-2.1,2
-2.9,0.72,21.37,-6.05,-0.68,0.88,8.67,-16.95,7.97,4.44,-0.93,0.93,-0.21,19.52,0.67,-10.55,-4.88,-6.84,2
-3.11,0.35,21.25,-14.21,1.51,-0.83,9.31,-16.82,8.22,-1.47,-0.59,1.61,-0.64,18.14,1.41,-14.5,-0.63,-5.42,2
-3.03,-1.35,20.69,-11.18,-0.73,1.81,8.91,-17.1,8.38,-5.13,-0.24,3.47,-0.65,19.4,1.83,5.47,2.15,1.56,2
-4.15,-0.49,21.18,5.03,1.9,2.44,8.6,-18.09,7.57,-2.93,-1.76,-3.86,-0.43,19.17,1.58,4.1,1.61,2.59,2
-3.85,-1.36,21.51,4.54,-2.93,3.96,10.05,-16.85,7.57,-3.13,-1.03,-4.0,-0.45,19.52,0.98,-4.54,3.66,-2.93,2
6.97,10.17,-4.29,79.69,-36.13,63.82,3.76,8.22,3.73,-326.03,-33.5,66.11,2.02,25.18,0.04,23.78,4.25,7.91,3
3.98,20.45,-10.12,75.78,30.22,41.21,1.29,-20.3,2.46,-414.11,-13.38,46.44,0.82,17.02,0.37,-1.17,4.83,-3.03,3
7.94,17.77,-10.77,-77.05,-1.27,-4.35,14.91,-24.15,2.95,-17.87,-32.08,-3.03,2.57,18.14,0.29,25.15,-8.5,7.71,3
8.4,23.22,-7.93,-163.87,-13.96,-38.82,9.71,-13.89,7.49,48.44,-3.42,-3.56,1.66,18.25,-0.71,-5.27,0.59,2.0,3
12.04,17.58,0.34,-244.24,-3.12,-22.51,8.73,-18.69,6.82,3.08,-0.54,-0.29,2.38,18.45,-1.22,4.0,5.52,3.71,3
3.01,3.61,12.5,-224.9,68.75,-20.36,8.0,-14.6,8.37,19.14,0.34,-6.3,2.61,18.99,-1.35,11.72,0.2,6.4,3
-8.79,-10.59,18.31,-193.21,-14.21,-18.6,10.11,-17.56,7.63,-5.13,-0.39,-2.54,3.14,19.19,-1.47,7.37,2.49,0.0,3
-1.46,-1.01,23.55,115.28,10.79,28.13,9.63,-16.66,8.35,0.78,1.61,-1.03,2.78,18.4,-1.61,-0.29,3.56,-1.9,3
-0.2,-2.93,21.49,-25.73,-0.59,-0.98,9.85,-17.06,8.93,7.32,-2.78,-6.74,2.49,19.02,-1.82,0.83,2.15,-0.05,3
-1.45,-1.62,20.28,20.17,-8.06,7.52,9.25,-14.98,8.89,12.06,-1.56,-2.0,2.76,19.13,-1.82,2.93,1.95,2.0,3
0.37,-0.23,21.1,-10.64,-8.54,-0.1,9.82,-15.56,8.78,-0.78,-4.39,0.0,1.61,18.65,-2.03,1.32,0.05,-0.34,3
-0.96,-0.12,20.99,9.03,-1.95,1.32,9.36,-15.61,8.4,-3.86,-3.03,-0.49,3.4,18.26,-1.59,2.34,3.17,1.12,3
-0.61,-0.17,21.7,7.18,-5.66,-0.39,10.6,-16.44,8.36,1.81,-0.73,-1.71,3.16,18.76,-1.68,1.17,2.54,-0.39,3
1.29,-0.24,21.84,7.52,-5.96,6.05,9.87,-16.07,8.8,4.3,0.54,-2.73,3.43,18.79,-1.94,3.71,0.29,2.25,3
0.77,0.35,21.33,-3.76,-1.46,0.29,10.61,-15.88,8.57,-0.24,0.39,-0.54,2.76,18.19,-2.32,1.86,1.56,-0.93,3
0.9,-0.06,21.28,-2.05,-4.93,0.73,10.41,-16.21,8.92,2.44,0.44,-1.56,2.92,18.09,-2.38,1.22,1.76,-2.88,3
0.34,-0.27,21.38,-1.22,-1.51,-0.49,10.53,-16.08,9.04,2.83,0.15,-2.15,3.02,18.09,-2.16,1.07,2.39,-1.51,3
0.45,-0.15,21.29,7.28,-0.49,2.44,9.97,-15.12,9.24,1.61,0.29,-0.88,2.49,18.2,-2.87,-4.64,4.05,-2.93,3
0.19,0.09,21.03,-2.69,-3.37,1.46,9.99,-16.2,9.03,-4.49,-0.73,0.78,3.07,19.43,-2.53,-2.83,1.71,-1.61,3
0.51,0.06,21.33,6.1,0.15,3.96,9.95,-15.75,9.01,0.05,-0.78,2.1,3.18,19.26,-1.91,0.93,1.9,-2.59,3
0.72,18.16,5.65,159.18,10.6,25.05,-1.72,20.48,5.66,117.63,-2.2,-0.88,6.74,-4.56,-16.15,52.54,17.72,24.51,4
2.82,15.88,0.23,104.2,-13.18,35.25,-0.18,19.01,2.61,61.77,-7.37,0.29,8.54,-8.32,-15.33,9.57,12.11,23.0,4
4.57,17.02,-5.48,88.57,-22.36,37.7,2.14,28.59,4.68,16.89,-8.4,4.69,8.26,-4.54,-19.6,-13.53,9.86,3.47,4
3.58,20.12,-9.43,91.94,-3.08,30.76,-1.3,18.64,3.67,-67.29,-17.04,2.2,8.21,-7.89,-16.76,-41.65,4.1,7.62,4
6.76,14.55,-10.3,58.54,-14.36,33.59,1.54,19.29,6.56,-157.37,-34.37,3.86,9.28,0.9,-19.35,-121.05,-9.37,-27.25,4
5.89,21.11,-11.58,-13.23,-0.15,1.81,9.02,13.39,9.07,-218.85,-58.4,24.12,6.57,6.67,-18.16,-168.9,-2.2,-66.21,4
7.06,12.97,-11.51,-59.57,-9.33,-9.18,9.96,2.5,9.88,-296.19,-53.47,56.59,9.07,9.32,-15.02,-233.89,-26.03,-67.92,4
7.73,18.56,-8.43,-139.65,-31.54,-30.62,4.78,-16.5,4.23,-300.63,-43.95,98.93,7.68,5.12,-2.76,-232.23,-7.42,-87.79,4
6.05,14.35,0.12,-213.38,-0.29,-40.38,5.87,-21.98,-6.67,-202.93,-115.77,76.46,-3.0,9.14,3.8,-217.19,48.78,-86.72,4
1.58,10.11,6.1,-291.26,20.7,-48.05,3.64,-26.16,-12.27,-87.94,-59.42,37.3,-12.8,6.89,15.23,-118.7,27.29,-46.0,4
-0.74,-2.55,10.32,-340.04,67.92,-29.39,1.61,-21.21,-11.34,6.1,-12.74,-0.15,-10.97,13.23,17.77,16.89,-3.37,0.39,4
-5.91,-13.3,10.5,-301.27,33.64,11.82,1.6,-18.83,-8.07,26.32,12.16,-10.16,-9.43,12.0,13.35,39.21,2.34,12.01,4
-9.33,-25.28,7.32,-127.93,12.4,17.92,2.53,-18.61,-7.13,10.74,8.98,-19.14,-8.56,12.62,12.91,17.58,1.56,16.75,4
-7.97,-22.22,8.51,5.32,3.37,7.57,4.64,-19.17,-6.59,-1.95,4.49,-3.56,-6.42,16.39,14.05,1.51,-1.61,2.0,4
-6.39,-18.04,8.45,39.45,-0.54,3.27,3.08,-19.3,-6.92,-5.62,3.32,-3.17,-8.36,12.48,13.35,-11.62,-2.2,-4.0,4
-6.51,-16.52,9.28,20.65,-8.06,-6.49,3.93,-20.03,-8.58,-18.07,-6.93,3.08,-7.45,12.08,14.44,-33.11,1.12,-9.77,4
-4.34,-19.11,10.99,-12.01,-2.29,-2.83,2.53,-18.99,-9.32,-1.17,2.73,-3.12,-7.58,10.08,16.01,-9.38,-4.88,-4.15,4
-4.61,-19.81,10.05,-7.13,4.39,-4.39,3.68,-18.74,-8.62,7.76,4.1,-6.98,-8.22,10.96,15.63,-0.24,-5.57,0.59,4
-5.2,-20.22,9.79,-25.83,1.42,0.34,4.68,-18.97,-7.67,12.89,4.05,-9.77,-5.95,12.57,15.28,13.87,-0.1,7.71,4
-5.42,-20.9,8.63,-2.83,1.17,-4.39,5.93,-20.49,-6.47,21.29,20.31,-16.94,-5.92,13.16,13.06,35.69,-8.01,16.5,4
-2.6,2.93,18.99,152.34,-15.77,30.27,2.89,11.35,15.62,145.46,2.54,10.6,1.62,15.36,-11.95,113.57,-17.14,12.5,5
-1.09,13.8,12.82,197.66,-21.19,42.53,4.38,17.08,14.84,97.56,-7.47,13.13,2.27,11.89,-16.23,134.37,-24.76,7.18,5
0.42,17.41,8.4,96.0,-22.61,38.43,5.55,24.12,12.31,0.44,-8.94,1.66,3.1,8.75,-17.61,77.1,-6.15,-0.59,5
4.74,19.26,5.32,80.13,-33.54,31.88,4.37,16.54,12.97,-128.27,2.49,-14.16,2.74,4.97,-17.78,71.73,5.08,9.81,5
5.54,23.65,1.79,60.35,-13.77,14.11,3.41,6.46,14.83,-179.98,17.97,-10.3,2.79,4.24,-19.93,34.57,14.21,1.81,5
3.98,24.09,0.53,-44.73,4.35,-23.73,-4.37,-7.78,16.86,-163.62,41.65,10.6,1.3,6.05,-20.22,-36.91,16.41,-3.96,5
4.03,21.01,3.57,-119.48,12.16,-43.46,-4.17,-13.96,17.47,-94.92,11.23,-0.93,1.78,9.91,-20.84,-92.48,10.25,-17.63,5
0.89,14.54,9.5,-150.88,44.14,-57.23,-0.8,-17.81,15.72,-73.97,4.05,-8.01,1.22,12.39,-15.67,-121.44,-7.03,-38.48,5
-8.17,9.27,12.42,-94.29,71.63,-47.75,-1.32,-16.5,13.96,-19.48,3.13,-3.32,0.32,11.18,-11.27,-85.45,-28.76,-33.59,5
-7.44,9.32,17.63,-40.87,20.65,-22.17,-0.83,-17.98,12.09,-35.74,0.24,-5.27,-0.72,15.92,-10.29,-47.75,-14.01,-8.11,5
-7.61,2.99,19.9,-58.11,-6.93,-18.12,-0.5,-17.31,11.7,-10.45,-4.74,-2.93,-3.35,15.14,-9.11,-33.2,-2.54,0.88,5
-7.71,4.31,19.47,-23.19,-2.78,-9.77,0.43,-18.56,12.12,-7.32,2.64,1.42,-2.2,18.78,-7.0,-13.18,0.88,0.34,5
-7.25,1.18,19.89,-42.48,-7.13,-12.65,2.63,-26.36,10.19,-60.45,-13.09,-21.92,-2.23,17.73,-5.24,-18.02,11.38,7.28,5
-7.84,1.6,19.35,-2.88,-2.78,1.32,-2.44,-14.19,11.12,-9.91,8.4,9.03,-1.96,16.02,-5.23,-8.74,4.88,0.2,5
-5.85,1.71,21.1,-5.42,-5.66,-4.35,-1.45,-18.38,10.68,-12.06,0.63,-7.13,-0.41,20.69,-5.5,3.27,-0.59,3.56,5
-16.8,0.37,22.9,-10.84,8.45,-8.15,0.41,-17.97,10.21,-0.93,11.04,-14.5,-3.76,23.28,-5.68,23.44,11.08,20.95,5
-10.26,2.02,16.89,-2.39,30.76,-6.05,1.11,-20.77,10.08,1.22,0.49,-7.57,-2.82,15.98,-4.09,-11.87,-16.6,-11.72,5
-9.04,0.54,18.48,-10.64,-8.4,-5.86,2.29,-17.15,12.09,16.11,2.2,-5.18,-3.34,16.45,-5.48,-8.94,0.83,5.03,5
-7.46,1.32,19.65,6.74,-15.09,-8.89,1.77,-17.56,12.31,-6.59,-3.96,8.94,-3.04,18.33,-5.0,4.39,-3.81,14.06,5
-7.41,-1.02,21.32,12.11,-17.09,4.49,1.28,-18.19,12.73,2.83,-7.28,1.56,-1.65,19.53,-4.24,-5.62,6.84,8.84,5
0.43,20.9,5.27,133.4,-25.24,50.15,-1.36,19.29,14.3,-69.87,-28.37,-2.73,-0.68,6.42,-17.76,81.1,0.93,-14.89,6
2.27,21.39,3.73,68.02,-16.5,21.68,1.08,7.68,15.65,-212.3,-43.16,4.88,1.12,5.07,-18.58,55.52,0.34,-5.18,6
1.97,24.95,1.23,28.47,-5.47,8.69,4.33,-11.41,15.83,-306.35,-44.78,23.73,2.2,5.38,-21.04,16.75,15.77,-6.3,6
1.13,24.51,3.89,-55.18,2.29,-13.67,6.6,-13.83,14.33,-117.53,-17.87,23.39,3.6,8.82,-20.54,-47.17,74.41,-16.11,6
1.32,17.8,8.57,-138.77,9.23,-20.65,5.88,-14.77,9.98,-100.68,-4.93,15.14,6.66,11.05,-16.84,-128.86,27.15,-53.61,6
-0.76,8.18,13.21,-167.72,23.29,-27.64,5.78,-19.88,7.3,-26.32,-6.3,8.59,5.69,9.2,-12.68,-108.01,-8.06,-34.13,6
-3.16,4.54,17.29,-124.66,9.18,-29.39,3.88,-20.8,6.09,-8.11,7.67,5.32,4.25,17.45,-7.52,-73.49,14.01,-19.34,6
-2.26,1.52,19.69,-98.0,4.15,-19.09,5.16,-21.0,6.67,10.3,0.0,3.22,2.08,18.35,-2.45,-77.59,8.89,-12.5,6
-3.74,-9.63,19.35,-85.69,-2.59,-11.52,4.43,-21.37,6.54,12.65,13.72,-1.37,0.42,18.07,0.65,-49.37,13.38,-18.8,6
-5.11,-8.53,20.03,-18.31,3.17,-7.76,4.29,-18.86,7.86,4.44,-0.44,-3.22,-0.13,19.62,3.02,-0.24,-3.22,1.12,6
-2.87,-9.63,21.26,-17.53,-21.44,-3.42,3.48,-19.29,7.82,10.94,6.1,-2.29,1.58,21.42,3.74,8.01,0.54,6.05,6
-5.67,-9.64,18.93,-0.98,6.64,-5.71,3.0,-17.68,8.33,21.09,6.93,-3.27,-1.28,17.07,2.18,16.94,-6.15,-2.54,6
-5.68,-5.4,19.6,11.62,2.15,3.56,3.62,-18.37,9.04,6.01,-2.39,0.1,0.94,20.13,1.61,10.16,-1.12,0.59,6
-4.3,-6.88,20.31,14.01,4.1,0.1,4.37,-18.04,9.77,7.76,2.25,-2.44,0.64,19.19,1.59,13.38,-7.13,2.0,6
-4.98,-8.4,19.84,14.06,5.37,-6.35,3.82,-18.58,9.5,-0.0,-1.07,-1.03,1.18,17.92,1.06,23.0,-12.65,2.54,6
-4.54,-5.28,21.2,-4.2,-0.44,-3.66,3.4,-18.89,9.12,-1.86,0.49,-0.88,1.62,19.65,-0.09,7.37,-0.73,0.24,6
-4.27,-4.95,20.88,4.64,-1.56,-0.73,4.37,-19.01,9.02,1.86,3.17,-2.1,0.8,18.96,-0.44,8.4,-0.44,1.27,6
-4.54,-4.69,20.55,-4.88,-1.76,-2.34,4.08,-18.35,9.0,3.27,-1.95,-1.81,0.62,18.88,-0.65,-2.3,0.68,-0.93,6
-4.39,-4.79,20.74,-1.51,0.98,-2.2,5.54,-18.1,9.61,3.27,-2.44,-1.51,0.81,19.0,-0.55,-1.81,-1.42,-0.98,6
-3.89,-5.17,20.64,-7.28,-4.98,0.49,4.02,-18.69,9.29,-4.05,1.27,3.03,0.05,18.01,-0.49,-3.27,-2.59,1.22,6
0.62,18.64,8.23,48.68,-22.71,23.73,0.01,7.8,18.48,90.48,-4.25,4.98,1.95,7.79,-17.85,44.19,15.87,13.82,7
3.44,18.21,9.38,2.64,-16.16,6.69,-0.84,7.65,19.07,-1.71,3.37,5.03,2.59,6.79,-18.89,21.44,31.1,10.6,7
4.97,22.87,8.31,-24.32,-16.31,1.32,3.15,13.86,19.63,5.96,-1.03,9.42,6.36,8.41,-19.73,-13.43,32.32,-8.25,7
2.32,25.49,7.22,-110.21,12.16,-9.37,3.68,14.87,17.4,-95.61,-14.99,14.5,8.94,14.77,-18.43,-90.43,38.04,-28.61,7
3.45,14.99,12.71,-154.0,40.87,-15.53,5.45,-2.59,16.58,-233.64,-21.09,13.96,5.79,16.63,-14.53,-121.14,30.03,-39.21,7
-1.9,1.98,16.83,-137.26,45.12,-48.58,1.7,-17.44,13.4,-111.33,16.16,7.76,3.86,14.83,-6.83,-61.96,-15.23,-30.71,7
-3.18,-2.15,18.3,-97.02,13.48,-29.3,1.66,-19.26,10.26,-80.18,12.35,8.45,1.62,14.78,-3.11,-56.49,-11.08,-21.87,7
-5.63,-4.19,19.85,-21.48,-1.51,-11.04,1.4,-19.45,10.35,-26.86,-1.37,-4.35,1.47,16.15,-1.71,-24.71,-2.88,-1.95,7
-4.37,-3.46,21.0,-9.52,-5.42,-3.47,2.81,-19.3,10.77,-8.84,-1.76,-2.54,1.97,18.84,-1.33,-1.9,-1.17,0.68,7
-8.6,-6.05,23.59,-18.07,-17.09,-16.31,4.89,-24.69,11.54,1.37,-9.42,-4.83,6.08,22.53,-1.75,11.62,-3.47,16.36,7
-6.88,-4.61,19.74,-9.42,21.83,-5.27,0.71,-20.47,9.23,-0.0,1.51,2.88,2.52,16.85,-1.08,-0.15,-5.81,-10.16,7
-5.53,-4.56,19.66,-1.47,5.66,1.81,2.01,-18.03,10.02,3.08,-2.78,-1.32,0.83,17.5,-1.88,-2.44,3.27,-2.73,7
-4.82,-4.56,21.07,-2.73,-6.74,-2.88,2.4,-19.86,9.79,-6.98,-1.17,-1.22,1.48,18.78,-1.48,-2.0,0.73,3.86,7
-4.21,-5.5,20.77,-6.1,-2.1,2.2,2.89,-19.25,9.57,0.78,-3.47,-0.1,2.0,18.44,-0.98,-0.59,4.44,-2.73,7
-4.77,-4.78,20.69,0.93,-2.98,2.34,2.25,-18.67,10.07,2.15,-3.52,0.0,1.11,18.68,-1.68,-0.29,3.71,0.2,7
-4.83,-5.06,20.61,-4.2,-2.2,-0.98,1.95,-18.88,9.71,0.93,-1.71,-0.2,1.92,18.62,-1.36,2.88,1.32,-0.98,7
-4.32,-4.53,20.31,-14.75,-0.68,-2.05,2.68,-19.76,9.43,-1.61,0.1,-1.46,1.53,17.54,-1.41,-7.96,2.44,-1.03,7
-4.16,-3.92,21.15,0.29,1.51,-1.32,2.23,-19.17,9.44,-1.22,-2.64,0.88,1.97,19.06,-1.48,-6.25,0.59,-3.86,7
-4.54,-4.91,20.49,-0.98,1.03,-0.49,2.09,-18.97,9.24,3.47,0.73,-1.76,1.33,18.27,-1.53,-1.76,1.32,-1.71,7
-5.01,-5.0,20.47,1.71,4.88,0.98,2.93,-18.51,9.56,0.88,-1.86,-1.95,2.24,18.68,-1.08,-1.81,0.39,-1.61,7
2.56,18.92,3.86,147.41,-18.9,41.21,2.3,10.6,12.35,244.09,36.52,32.42,1.22,4.72,-17.02,67.77,-42.09,-45.8,8
1.41,22.44,-0.59,97.66,2.64,26.42,-2.07,21.11,9.66,98.63,23.78,23.97,-2.1,3.57,-19.39,71.09,-0.1,-24.07,8
2.81,19.64,-2.45,34.42,9.86,14.94,-1.36,16.78,9.52,37.01,9.52,17.72,-2.74,1.08,-19.84,44.43,9.62,-9.28,8
6.08,19.39,-3.94,30.76,1.9,10.6,-0.42,19.39,7.33,39.79,8.2,17.82,-2.06,-0.01,-19.62,26.07,9.91,-12.01,8
5.0,19.36,-6.76,22.07,8.01,14.55,-1.39,20.51,4.11,28.17,5.42,22.61,-2.8,-3.66,-20.37,15.48,8.94,-12.79,8
8.01,16.77,-6.42,17.09,1.32,19.38,1.0,19.52,4.18,26.46,4.49,20.85,-2.41,-3.95,-20.46,17.72,17.87,-7.67,8
8.48,21.2,-7.95,-8.64,-15.87,-2.1,1.77,24.22,4.28,-15.77,-4.3,-11.96,1.7,-1.38,-18.99,-4.83,8.11,7.91,8
5.76,19.03,-5.0,-89.45,-1.86,-52.2,-0.4,16.03,6.69,-112.79,-2.29,-30.71,-4.04,3.14,-22.14,-59.72,48.68,-19.92,8
2.3,21.27,-1.53,-95.07,-12.3,-43.99,0.1,19.51,9.51,-96.29,-20.56,-19.48,-0.34,2.98,-21.36,-102.59,19.53,-28.91,8
0.25,19.17,0.08,-123.63,8.64,-63.13,-3.72,15.57,8.49,-163.82,4.54,-50.73,6.41,9.94,-14.86,-113.97,1.46,-35.79,8
-0.13,12.76,10.82,-184.62,13.53,-52.15,-1.49,-0.86,13.75,-316.99,-24.51,-36.47,1.53,11.73,-14.36,-130.57,-12.99,-34.08,8
-4.27,8.56,17.16,-189.6,12.65,-64.6,1.86,-25.32,7.05,-309.23,-2.1,-30.18,0.57,19.52,-7.64,-125.0,-13.67,-35.69,8
-9.19,-7.1,18.63,-147.75,-0.15,-40.28,2.79,-21.96,6.06,-58.45,-10.45,-0.93,-2.28,16.63,-0.89,-82.13,-15.87,-33.06,8
-9.11,-7.77,17.27,-34.57,20.46,-21.63,-0.04,-20.66,3.93,-21.0,-3.37,2.59,-2.11,17.98,2.94,-17.77,-10.5,-7.81,8
-9.84,-7.7,18.09,2.34,1.71,-2.88,-2.41,-21.55,4.46,-2.2,5.66,-5.32,-3.31,16.19,2.02,3.52,-1.07,6.25,8
-5.68,-5.13,20.3,-13.53,-20.36,2.54,1.06,-21.37,3.82,-27.2,0.68,4.79,-2.13,22.87,2.28,-11.38,9.62,-3.71,8
-9.61,-10.65,17.81,6.98,-5.22,3.08,0.56,-21.02,3.08,1.9,6.3,2.69,-2.63,19.64,3.42,11.47,-9.18,4.83,8
-9.89,-8.29,17.57,15.09,-3.12,5.71,0.72,-19.66,4.43,10.89,5.57,-7.08,-2.89,18.43,1.33,16.36,0.1,6.2,8
-9.75,-7.74,18.06,2.05,-4.88,-8.54,1.06,-21.63,4.43,11.28,12.99,-11.77,-2.91,19.4,1.66,9.86,-6.74,8.2,8
-8.96,-7.24,18.18,23.88,-6.88,-3.81,1.05,-20.09,5.36,13.38,1.03,-20.61,-1.21,20.29,1.65,19.48,-11.08,12.65,8
-3.19,-3.61,21.25,97.36,11.23,45.41,0.28,10.12,10.57,317.14,14.94,21.48,0.13,3.7,-21.47,123.78,-2.93,16.89,9
-3.46,8.6,14.68,182.96,11.33,51.61,-0.06,23.87,2.98,166.99,1.46,-9.37,3.04,1.11,-16.87,79.39,3.81,19.92,9
-2.75,13.34,6.85,187.65,-0.78,72.66,2.47,24.23,3.41,152.1,-12.35,23.24,1.01,0.78,-23.51,55.32,49.71,5.96,9
1.59,21.67,0.22,170.41,-38.57,44.82,-2.9,18.48,1.31,-57.13,-4.83,-13.67,2.6,-0.59,-18.27,-38.82,24.95,-4.2,9
2.29,20.67,-4.37,109.28,-29.35,7.62,-3.24,19.56,3.92,-89.4,-32.37,-15.19,5.77,3.6,-17.32,-54.54,22.22,-1.86,9
4.56,30.77,-10.39,120.85,7.23,22.46,0.62,23.68,7.99,-131.59,-65.43,15.87,4.31,6.21,-23.19,-116.31,52.83,-19.38,9
2.81,18.14,-8.53,-19.82,6.98,-5.71,0.7,10.05,12.94,-239.94,-22.31,-0.73,5.96,9.87,-18.85,-151.86,32.23,-31.54,9
2.2,18.59,-4.91,-85.74,-17.58,-17.19,2.09,-3.85,12.33,-321.44,-11.77,-2.29,8.29,13.67,-11.86,-119.68,10.11,-36.67,9
2.91,23.67,-1.53,-144.04,-16.46,-9.28,2.55,-29.43,7.15,-231.3,-19.38,-20.17,4.19,14.3,-6.21,-99.95,3.66,-28.42,9
0.82,17.9,6.47,-170.17,28.27,-26.07,6.06,-17.18,9.21,18.21,-7.71,2.49,3.22,18.26,-2.45,-1.42,4.54,-5.52,9
1.2,8.3,13.17,-182.81,45.41,-26.86,4.69,-18.41,7.83,-8.55,-6.74,4.49,4.87,18.28,-0.28,-2.64,-4.79,-6.3,9
-5.04,0.4,17.35,-159.47,28.37,-46.19,7.84,-18.39,9.38,60.45,-26.03,8.79,4.23,27.19,-1.35,38.43,19.87,-10.64,9
-1.9,-4.14,21.28,25.63,-17.19,13.38,3.49,-18.44,8.32,-1.27,-5.57,-6.3,4.05,18.9,-1.81,-0.15,-1.17,1.03,9
-2.33,-4.53,19.89,-19.09,-4.3,2.0,2.89,-19.0,6.25,9.13,5.57,-0.34,3.67,17.52,0.13,2.98,-14.65,-0.68,9
2.78,-3.24,23.96,18.95,-33.5,17.43,5.02,-19.61,8.08,0.44,-1.61,0.39,3.11,19.18,-1.87,2.93,4.74,2.25,9
-6.25,-2.11,19.26,-10.94,-6.74,-2.98,4.39,-17.91,8.11,10.3,-6.25,-3.81,4.16,18.8,-0.99,8.45,-3.37,1.95,9
-5.95,-6.61,18.95,1.81,14.21,-7.86,4.69,-18.87,8.72,0.49,-4.0,-9.72,2.5,18.33,-2.49,1.9,4.05,8.4,9
-2.97,-4.18,21.54,-0.0,-5.13,2.0,6.83,-17.91,9.1,2.83,-3.81,-4.1,5.24,19.42,-2.09,3.66,-1.12,1.51,9
-3.85,-3.67,20.25,12.3,-8.35,7.76,5.85,-17.87,8.56,-2.78,-2.69,-2.25,5.4,19.91,-1.85,0.49,2.39,0.05,9
-2.48,-4.09,20.96,-1.66,-20.12,-1.61,4.57,-19.39,8.32,-0.54,2.59,-0.39,2.87,17.96,-2.03,-4.69,-1.32,3.76,9
-0.59,-6.36,21.29,114.45,-0.49,34.81,1.33,7.29,11.11,303.42,15.92,10.84,-0.87,4.53,-19.56,114.55,-20.61,-16.85,10
-0.99,6.9,15.46,159.96,7.47,32.47,1.08,24.88,8.37,123.49,0.34,-2.49,-1.45,3.96,-19.91,85.84,-7.86,-10.5,10
2.24,13.96,8.55,194.97,-19.92,35.89,-0.79,17.41,7.86,63.13,5.27,5.18,0.25,-1.02,-18.84,42.63,-0.49,-6.98,10
3.15,20.22,1.09,154.3,-56.01,20.02,-0.29,21.79,6.89,-25.39,-2.25,0.44,-1.46,0.81,-19.65,-11.87,4.98,-0.24,10
5.67,19.43,-1.35,77.54,-3.17,11.67,2.37,22.83,10.05,-67.92,-21.92,22.36,0.7,3.46,-23.53,-65.92,46.39,8.45,10
5.4,20.08,-3.42,56.79,-7.08,17.68,2.81,17.66,9.7,-183.2,-4.15,9.62,1.71,7.74,-22.05,-133.84,20.95,5.42,10
4.56,21.42,-3.23,-21.83,3.81,2.64,5.99,6.54,11.6,-226.17,-21.04,8.11,0.75,9.57,-15.37,-143.95,23.14,2.64,10
5.74,24.77,-0.84,-75.63,8.89,9.81,7.1,-5.68,10.22,-242.19,-27.15,-21.87,0.09,12.77,-10.05,-119.97,18.55,0.49,10
5.66,17.86,2.73,-174.32,21.83,-6.98,6.45,-23.59,11.21,-93.12,-25.88,-17.19,1.82,14.09,-6.69,-71.29,10.74,13.77,10
4.63,11.56,9.24,-201.56,33.11,-31.59,4.67,-16.17,11.36,-10.4,-4.54,-0.2,7.03,17.62,-4.22,-7.81,-2.93,5.37,10
1.13,5.55,14.59,-158.35,32.23,-34.08,11.06,-13.34,10.82,44.24,-4.83,20.56,2.3,21.69,-6.09,-46.05,10.06,-21.39,10
-2.03,-2.59,20.53,-84.03,-17.14,-11.08,7.34,-15.11,10.42,-0.39,-14.75,5.76,4.0,19.36,-4.53,-10.6,12.89,-12.21,10
-4.54,-1.85,23.35,-9.67,28.96,-0.88,6.52,-16.1,9.12,1.66,-6.59,-0.29,3.7,19.07,-3.31,-1.47,5.62,-4.2,10
3.77,-1.98,22.67,-0.05,39.7,5.27,6.3,-16.62,9.6,3.22,-5.37,2.15,3.47,20.11,-3.34,7.37,11.13,-2.15,10
-0.97,0.19,20.73,8.3,-3.81,16.41,6.09,-16.48,9.95,4.3,-5.71,1.07,4.3,19.53,-3.92,4.39,8.15,-3.71,10
-1.76,-3.31,20.48,3.22,0.44,5.76,6.37,-16.73,10.12,-0.68,-3.08,-2.44,3.73,18.86,-3.98,2.69,4.25,0.15,10
0.03,-2.16,21.09,11.87,-1.27,8.59,6.64,-17.51,10.29,-4.59,0.0,-1.61,3.13,19.31,-4.41,1.32,3.76,1.07,10
-1.09,-1.47,21.21,8.69,0.83,7.37,6.09,-17.23,9.38,-2.98,-2.69,-1.37,4.26,18.57,-3.55,-3.08,4.0,-0.49,10
-0.35,-1.87,21.0,2.78,-5.66,1.76,6.41,-17.95,9.44,-5.03,0.88,-1.51,3.37,18.83,-3.74,-1.03,3.71,-1.17,10
0.74,-1.5,21.54,0.63,-7.47,1.46,5.84,-18.39,9.35,-7.03,3.47,-1.42,4.27,18.92,-3.56,-0.15,2.49,0.83,10
0.03,-0.11,21.25,-7.37,0.0,-0.39,6.35,-1.27,13.35,-217.09,1.86,13.38,2.59,17.69,-4.0,0.78,0.59,0.88,11
-0.09,-1.13,21.23,-6.35,-2.83,1.27,5.2,-14.8,9.23,-236.82,4.44,5.81,2.58,18.2,-3.59,-4.69,1.37,0.54,11
-0.57,-0.41,21.4,5.62,-2.15,2.73,4.11,-20.36,7.52,-41.99,9.23,4.35,1.65,17.84,-3.19,4.1,0.88,0.54,11
-0.16,-0.51,21.29,1.27,-2.1,0.73,6.0,-19.56,8.2,-20.95,-0.88,-15.38,2.09,18.13,-6.37,86.72,-9.03,6.88,11
-0.51,-1.24,21.18,-9.42,-0.68,-1.66,6.24,-31.63,5.7,-44.87,5.86,-15.38,-0.74,9.62,-14.86,159.81,-46.24,12.26,11
-1.48,-2.77,21.96,-2.34,2.44,-4.44,5.78,-18.24,7.2,-34.86,12.5,-9.23,1.44,7.0,-19.14,147.61,-42.77,-11.28,11
0.08,-5.89,21.87,96.44,-18.07,3.42,6.28,-20.55,7.71,-4.1,-2.54,-1.37,1.22,2.21,-15.97,91.55,-22.56,-41.6,11
-2.34,5.99,10.99,241.45,8.84,6.45,5.88,-19.26,6.88,-1.76,-1.46,3.17,1.65,0.56,-19.63,67.72,29.69,-38.96,11
5.7,18.81,3.64,214.65,-41.6,25.73,4.31,-19.53,6.86,7.52,5.71,2.34,1.69,-0.74,-20.89,15.14,2.64,-4.2,11
3.75,18.23,-2.37,133.45,-7.62,19.38,4.53,-19.85,6.96,8.15,3.56,2.1,0.17,-0.31,-19.52,-56.1,33.59,11.87,11
10.27,18.43,-7.18,121.97,19.92,70.46,6.37,-19.89,8.04,6.49,-2.05,2.05,2.69,4.7,-21.98,-117.72,36.47,-2.98,11
8.41,20.6,-10.41,-33.64,-1.12,-0.1,6.24,-18.33,7.25,2.05,1.07,2.34,4.32,9.68,-18.44,-96.0,-0.2,-23.88,11
7.9,21.58,-5.13,-103.96,8.4,5.71,6.37,-17.79,6.86,1.81,-2.25,3.22,4.04,11.34,-13.41,-122.85,-5.76,-23.34,11
8.57,17.09,1.06,-131.45,11.82,17.38,5.95,-18.28,7.01,0.29,2.88,4.1,2.85,13.13,-10.53,-91.89,-8.94,-16.21,11
8.31,16.08,6.64,-141.6,44.38,-27.54,7.1,-19.37,6.78,-4.3,0.98,-0.49,1.52,14.04,-4.89,-75.88,-12.01,-6.1,11
4.82,10.42,11.24,-154.49,58.94,-27.73,6.3,-18.93,6.42,-5.47,-3.71,2.49,1.27,15.66,-2.06,-23.93,-10.55,3.81,11
2.13,6.86,15.11,-131.54,49.95,-21.68,5.83,-18.89,6.51,0.44,1.51,0.93,2.68,20.02,-1.74,-8.45,-2.54,12.79,11
-1.4,-0.72,17.64,-145.75,39.21,-44.19,6.51,-19.54,6.51,1.32,0.15,1.27,4.37,25.47,-2.14,23.1,23.39,-1.17,11
-5.71,-5.82,20.01,-25.88,1.37,-15.62,6.28,-19.66,7.08,-2.1,1.37,-0.68,3.83,22.91,-2.02,17.97,6.3,8.84,11
-1.16,-4.32,21.18,-36.23,-16.8,-13.18,6.24,-19.43,7.05,-6.2,-3.42,-0.63,2.55,20.49,-2.96,9.62,7.28,2.83,11
0.27,10.61,14.24,166.36,-37.84,21.09,3.81,-6.74,13.66,156.2,22.95,-22.31,2.19,10.48,-13.51,112.3,-2.25,8.74,12
2.13,14.77,8.04,179.1,-38.38,22.85,5.59,-0.64,15.68,216.45,2.15,-29.49,2.73,5.83,-17.76,116.99,-23.88,11.96,12
4.36,17.8,2.13,132.13,-50.63,8.06,4.68,13.45,8.8,268.65,-6.84,-25.68,-0.29,1.61,-18.93,87.6,-23.29,12.94,12
4.77,16.05,-3.29,104.35,-14.55,1.03,0.96,16.49,3.6,113.28,9.38,-25.93,2.31,0.13,-15.28,77.44,-20.12,-8.89,12
7.93,25.8,-8.08,51.95,-9.13,20.61,6.74,30.35,1.23,88.67,-3.81,17.43,-0.1,-2.88,-21.66,20.21,16.89,-6.45,12
4.46,23.87,-10.13,-25.68,1.42,-0.68,1.77,28.74,0.78,-28.91,-3.86,0.44,0.19,-1.42,-23.88,-46.78,16.75,6.2,12
5.75,22.73,-6.36,-104.35,-0.73,-8.54,2.43,23.8,3.25,-116.16,-14.31,22.71,4.43,4.28,-21.66,-99.32,21.34,8.89,12
6.51,16.35,-0.79,-210.55,27.93,16.26,3.13,11.92,5.71,-226.03,-8.54,62.11,5.79,8.19,-16.83,-156.3,37.89,-10.3,12
4.59,7.95,9.85,-172.75,40.67,-0.59,6.06,-1.2,10.34,-272.51,-16.55,34.42,4.71,9.07,-10.94,-101.27,15.87,-18.8,12
1.3,6.52,15.43,-149.07,36.82,-7.37,6.57,-11.93,10.26,-232.32,-24.32,26.07,2.9,13.33,-8.35,-104.54,14.26,-12.94,12
-0.94,-1.81,19.23,-117.29,17.53,-7.76,5.52,-17.91,9.19,-65.97,-12.79,22.66,2.11,16.05,-4.95,-57.23,-2.1,-16.16,12
2.3,-5.32,22.9,-96.78,-15.82,-7.42,9.78,-23.8,5.99,-67.38,-12.99,12.3,1.57,19.84,-1.1,-45.02,17.24,-3.91,12
0.32,-7.74,20.25,1.07,0.34,8.25,-0.08,-21.78,6.06,-64.7,30.52,-11.77,-1.91,17.02,-1.02,-23.68,14.94,-9.72,12
7.67,-10.66,19.85,-3.22,-14.5,10.55,9.81,-13.99,3.86,15.38,0.88,15.77,1.3,17.76,0.15,-43.12,9.08,-28.17,12
-3.57,-8.43,18.5,16.8,7.13,0.54,7.15,-18.01,4.34,-7.72,14.06,-4.59,0.73,20.82,0.86,9.47,-1.07,4.49,12
-3.69,-10.14,18.5,3.47,10.6,2.2,7.61,-20.07,4.47,-6.49,-0.1,-5.03,0.98,18.9,0.83,-2.83,9.08,2.34,12
-0.81,-9.53,20.0,17.68,0.49,4.59,6.43,-19.47,4.75,-1.17,-2.25,-0.24,1.84,20.54,0.6,4.88,4.1,1.32,12
-0.45,-9.03,19.28,8.2,-0.39,5.03,7.81,-18.43,5.69,1.86,-4.69,-3.22,2.7,19.35,-0.02,6.49,4.2,2.98,12
-0.49,-8.91,20.23,3.47,-5.37,1.22,6.46,-19.21,6.09,3.22,1.81,-1.81,2.16,18.98,-0.62,8.89,-3.17,4.64,12
0.27,-9.35,19.76,-1.12,-0.24,0.73,8.15,-17.58,5.59,-3.52,0.73,0.63,3.2,19.27,-0.17,4.3,2.88,-1.61,12
-1.34,6.21,12.43,165.58,2.98,23.34,3.63,15.66,7.18,72.02,-15.77,-16.75,-0.48,0.17,-17.58,76.32,7.32,7.57,13
3.14,14.63,7.14,166.16,-30.42,46.68,3.63,17.75,2.96,98.39,-10.74,9.18,1.37,-2.27,-19.16,57.86,22.75,-4.05,13
2.3,18.43,1.3,115.38,-37.35,19.63,5.06,25.7,-0.51,-3.13,8.84,8.11,0.17,-3.6,-20.96,-11.47,3.71,-6.98,13
5.93,16.09,-1.85,75.24,-30.96,21.39,4.31,18.22,2.31,-37.3,6.01,10.5,0.24,-3.56,-18.46,-36.82,4.35,-1.9,13
6.77,16.36,-5.1,66.94,-22.75,28.71,7.09,24.96,6.0,-88.67,-1.12,35.45,1.41,3.38,-22.62,-74.95,23.05,0.98,13
7.89,21.75,-8.3,-9.96,11.67,0.54,8.98,15.44,8.94,-190.28,10.84,38.57,4.21,6.35,-21.27,-141.06,6.45,-5.42,13
7.36,15.8,-6.11,-38.87,8.79,-0.1,8.4,4.88,14.24,-175.59,18.65,51.81,1.76,13.08,-17.36,-124.07,6.49,-16.16,13
9.58,24.15,-2.14,-86.18,9.08,17.92,7.41,-1.97,13.76,-180.32,16.26,34.86,-0.03,16.43,-13.05,-108.64,-2.49,-10.21,13
9.54,18.26,2.05,-154.83,48.0,-6.93,4.5,-18.16,5.65,-246.48,21.39,6.84,-2.57,15.23,-6.04,-88.33,-10.5,-12.26,13
6.86,14.36,9.25,-131.15,70.31,3.03,6.57,-19.14,8.17,-9.47,-4.15,-5.03,-1.89,17.01,-3.22,-21.97,-1.56,11.52,13
4.53,11.86,13.01,-118.85,60.6,-10.74,7.04,-17.67,7.94,-12.94,3.71,2.05,0.55,18.41,-3.0,-19.87,-11.28,3.81,13
-1.73,-0.49,15.91,-136.47,68.6,-23.68,14.25,-19.52,5.24,90.97,-47.75,-12.45,5.03,33.51,-3.07,58.64,40.63,-28.47,13
-5.38,-6.35,20.65,-40.43,-23.68,-13.57,3.71,-19.5,6.75,2.49,-5.22,-1.9,0.88,22.4,-2.54,21.68,10.64,1.95,13
-0.91,-3.61,21.05,-12.79,-1.51,-3.37,7.01,-17.46,8.07,5.37,-6.69,0.39,1.72,18.61,-2.98,9.72,-5.52,0.24,13
4.69,-12.09,22.09,-26.66,-122.95,27.05,7.12,-18.62,7.25,3.81,-5.27,0.98,0.55,18.8,-2.45,1.71,4.25,-2.05,13
-6.23,-4.99,19.81,33.98,32.81,11.13,6.64,-18.46,7.8,-1.71,-5.32,0.0,0.78,20.09,-3.47,2.29,6.54,-1.27,13
-1.17,-6.37,21.19,4.83,7.52,2.93,5.87,-18.18,7.77,-2.39,-4.69,-2.83,0.78,20.08,-2.86,1.17,4.1,1.46,13
-1.87,-6.86,20.71,-18.6,2.54,-3.17,6.47,-18.47,8.37,2.1,-1.86,-2.39,0.78,19.58,-3.15,6.98,-0.29,1.71,13
-2.22,-4.25,20.94,4.35,-0.59,5.13,5.23,-18.58,7.48,0.49,0.29,-0.49,1.09,18.6,-3.12,2.2,-3.08,0.15,13
-1.23,-4.91,20.7,2.78,-5.86,2.29,5.95,-19.24,7.17,-4.35,4.69,-0.73,-0.23,19.17,-3.31,-1.66,2.59,-1.07,13
2.73,0.0,20.33,115.23,-18.31,4.54,5.43,9.05,11.87,230.71,9.23,-36.52,-2.76,15.5,-9.76,96.0,-12.5,-21.92,14
3.51,9.36,15.48,192.33,-38.09,19.73,2.92,17.58,5.01,160.89,-7.32,-20.7,-1.62,12.4,-14.26,107.03,7.13,-10.45,14
2.33,12.62,9.07,158.06,-23.29,17.14,6.73,17.88,3.2,88.53,-21.83,5.81,-0.75,7.4,-16.4,82.37,-6.93,-23.73,14
7.95,15.51,4.31,115.38,-61.28,-12.79,4.03,19.57,-0.33,-7.23,0.93,14.06,-2.98,5.46,-18.73,110.99,-4.54,-9.72,14
5.01,17.44,-2.98,119.29,-27.98,4.1,6.84,22.77,1.11,23.93,-2.54,17.48,-0.4,-1.05,-16.89,74.9,1.66,-21.73,14
9.16,16.57,-5.85,80.62,-29.1,27.44,7.66,18.34,2.25,-96.88,1.95,18.31,-1.78,-1.43,-19.81,44.78,22.31,-13.67,14
6.04,14.54,-7.43,-25.34,3.08,9.62,13.72,22.93,5.64,-106.74,-6.88,59.52,-0.09,-3.92,-18.07,-15.87,7.28,-4.69,14
9.0,19.8,-8.19,20.85,2.83,15.53,10.82,9.61,11.45,-142.04,37.74,29.98,-1.48,-1.53,-23.26,-9.57,15.97,-2.25,14
9.08,17.43,-5.2,-93.16,3.42,1.07,8.9,4.32,12.25,-186.72,39.26,42.77,1.26,1.59,-19.96,-55.37,12.84,16.6,14
13.87,22.91,-1.11,-91.7,18.16,47.27,6.36,-5.6,11.16,-258.59,20.7,38.96,4.68,7.26,-23.35,-93.41,46.39,35.21,14
11.0,14.44,4.51,-112.21,61.52,-6.59,4.41,-23.27,9.51,-105.96,17.33,37.01,3.22,8.55,-17.41,-110.74,-13.23,-5.71,14
9.1,9.13,9.3,-152.39,72.85,-3.81,5.17,-16.22,10.34,-20.8,-1.37,3.47,2.84,11.24,-13.78,-134.42,-11.82,-18.95,14
4.94,5.8,14.42,-154.69,82.28,-2.54,7.24,-18.32,8.85,-19.48,-5.08,4.93,1.27,14.7,-9.16,-104.2,-2.73,-17.09,14
-0.11,-2.56,17.08,-131.15,78.71,-16.46,8.18,-14.81,7.46,61.91,-12.16,12.74,-0.41,12.76,-4.29,-74.51,-17.53,-20.56,14
-0.36,-1.96,20.16,-2.59,-4.93,4.1,5.84,-18.09,6.53,-2.93,-7.08,0.59,-1.22,17.01,-3.48,-17.87,-2.25,1.61,14
0.77,-5.57,20.35,-46.44,-1.56,-2.93,5.8,-19.58,5.6,-5.32,1.81,-0.59,0.26,18.63,-2.22,-21.63,4.0,-0.39,14
8.77,-10.42,20.47,-24.02,-79.54,11.62,5.11,-20.24,6.34,-3.17,3.37,1.9,-2.77,24.1,-3.83,-41.06,28.61,-12.74,14
-3.16,-6.0,19.51,2.83,16.55,8.98,5.69,-20.36,6.21,-2.25,2.59,0.34,-0.88,22.18,-0.69,-0.54,6.69,3.17,14
-0.82,-9.8,19.16,-10.25,9.47,0.24,4.84,-19.58,6.71,-4.05,-3.66,0.24,0.06,18.17,0.99,-2.34,-2.88,0.93,14
0.38,-8.4,19.96,0.2,-0.98,5.22,5.61,-19.07,6.53,-4.44,-0.49,-5.81,-0.32,18.9,0.18,-2.05,-0.05,-2.69,14
0.24,-8.2,20.17,2.49,-1.76,1.71,7.62,-21.34,6.56,-1.32,18.75,-0.93,-3.02,19.02,-1.86,3.71,-1.07,-1.66,15
-0.03,-7.99,20.09,-5.18,-0.49,1.76,2.78,-27.07,7.94,20.7,27.59,0.68,-3.14,17.17,-2.56,36.96,-21.29,-10.74,15
-0.65,-6.96,20.51,4.3,2.54,1.66,5.59,-20.95,9.69,121.24,19.73,-5.57,-2.13,19.03,-7.35,99.66,-12.7,-20.51,15
0.99,-10.28,21.4,-6.3,9.28,-25.78,2.5,-10.44,11.3,234.77,27.0,-1.9,-4.11,13.66,-12.6,136.47,-14.31,-52.44,15
-6.31,-11.92,22.38,63.23,7.96,-4.98,1.08,3.44,8.49,342.14,0.93,-9.77,-9.74,6.99,-18.15,105.37,19.92,-59.67,15
-0.64,-4.59,19.91,147.8,-8.11,16.7,-1.87,29.21,2.28,195.51,-13.43,-23.24,-6.43,4.0,-17.67,121.44,-3.37,-5.52,15
-0.95,7.55,11.35,262.16,-10.64,37.3,2.52,22.61,5.91,56.64,-10.21,2.59,-7.76,0.29,-20.69,28.37,14.4,-10.64,15
-0.02,18.59,0.09,231.3,-29.74,1.37,2.42,22.73,5.36,-63.62,0.83,2.25,-6.9,2.4,-20.0,-50.05,-4.39,13.62,15
5.7,21.14,-2.2,97.7,-53.66,8.06,2.94,23.97,5.09,-166.94,4.39,-6.2,-11.08,2.67,-23.7,-131.84,-4.44,34.62,15
2.77,23.99,-5.29,57.32,-6.4,9.81,3.39,5.0,6.47,-309.72,-4.49,-13.43,-8.16,6.31,-17.35,-165.67,-4.69,51.37,15
3.52,21.96,-4.41,-65.28,7.47,-6.45,2.07,-17.52,6.66,-312.16,-14.6,14.36,-4.34,14.83,-8.1,-130.47,9.52,41.65,15
5.35,23.68,-4.87,-161.38,-5.52,-33.84,1.96,-21.0,8.36,-87.4,-30.81,-5.27,-3.53,16.88,-0.58,-86.62,16.94,35.99,15
4.38,8.71,5.19,-242.68,7.76,-26.66,6.19,-24.97,9.7,-40.72,-27.29,-6.45,-0.25,22.83,-1.64,-12.5,25.24,32.86,15
-4.71,5.59,13.02,-174.27,67.68,-10.4,11.93,-27.71,12.28,66.41,-41.7,-7.08,12.22,24.3,-6.47,33.25,-30.76,75.98,15
-5.26,-10.82,18.02,-139.11,-17.97,-18.07,2.4,-19.11,5.88,-32.86,3.96,5.66,3.79,15.16,0.64,-0.34,-16.06,-15.72,15
-1.33,-8.83,23.71,-47.07,-22.36,5.47,2.85,-18.64,7.46,12.11,-4.49,3.22,-2.14,16.93,1.14,0.1,3.91,-7.76,15
12.46,-11.94,20.98,-29.05,-149.71,32.23,5.39,-17.97,7.8,-0.49,-6.2,1.86,0.11,20.73,-0.94,13.57,15.04,-0.05,15
-5.76,-5.83,17.87,12.45,66.16,11.33,3.93,-18.63,7.34,6.45,-3.22,0.44,-0.29,19.95,0.04,6.15,-3.52,-1.9,15
0.25,-11.71,18.72,0.1,-1.46,7.28,4.9,-18.45,8.22,4.74,-8.69,-2.39,-0.13,18.8,-0.3,8.5,7.23,0.15,15
-0.13,-6.5,20.69,-4.25,-16.75,5.22,6.08,-19.71,8.48,0.44,-0.05,-2.83,0.61,19.99,-1.87,8.5,3.37,4.15,15
4.92,8.09,15.06,149.12,-49.02,4.05,4.76,15.78,3.23,13.38,-22.27,-14.7,-2.09,-4.23,-18.83,35.16,7.23,3.91,16
3.64,12.65,2.96,208.06,-49.02,37.6,6.23,22.5,1.35,21.78,-7.91,-1.61,-1.89,-1.46,-19.95,8.89,8.5,2.64,16
9.86,18.14,-2.93,110.11,-87.7,-19.92,4.52,19.5,0.76,-14.7,2.44,-1.46,-2.44,-3.97,-19.66,-15.67,-2.49,-2.0,16
6.18,16.06,-5.6,38.67,-29.64,5.37,4.9,23.02,1.69,-11.47,-1.51,17.58,-2.99,-0.77,-20.3,-17.63,4.93,8.84,16
9.01,18.84,-6.88,8.35,-11.23,7.42,6.14,18.86,4.47,-78.56,-1.9,20.36,-3.57,2.23,-19.33,-62.4,14.21,19.63,16
6.49,16.47,-7.46,-14.01,0.24,-3.22,6.76,12.38,7.23,-142.72,11.23,17.58,0.1,4.4,-17.52,-103.71,0.98,27.73,16
7.67,20.1,-6.48,-8.01,5.57,17.87,8.0,11.15,13.02,-132.72,-0.93,51.51,1.59,10.62,-18.95,-87.5,23.63,15.53,16
7.27,18.27,-3.38,-71.19,13.62,11.67,8.08,4.83,15.81,-182.86,-14.36,33.2,1.2,12.28,-16.79,-100.73,17.19,11.28,16
9.08,13.08,0.92,-121.34,25.78,5.47,12.21,-13.42,15.41,-244.09,-2.2,16.55,1.68,18.14,-12.23,-56.25,6.35,0.83,16
9.89,15.96,6.08,-121.24,24.32,25.78,9.6,-10.25,14.24,-23.88,3.42,27.25,-0.71,15.62,-9.06,-56.1,1.81,-10.79,16
8.2,12.72,11.53,-133.4,34.96,24.8,4.5,-13.07,9.82,-77.2,8.89,22.31,0.43,14.64,-3.68,-53.71,-4.1,-4.88,16
10.48,5.82,19.7,-97.71,33.3,17.29,17.96,-38.43,5.12,-133.5,-32.28,-10.6,-6.3,20.18,-2.66,25.98,7.03,55.27,16
2.95,4.07,18.53,-64.55,33.84,-3.47,8.28,-16.15,9.15,-48.39,29.05,15.53,3.54,15.3,-1.54,-10.79,-23.19,-9.33,16
2.31,1.37,16.98,-65.87,40.53,-3.17,6.4,-19.28,7.68,-11.72,7.81,5.47,-0.44,17.74,-2.24,-9.08,2.25,-3.52,16
-16.75,-4.47,30.23,-99.56,71.83,-58.94,6.39,-18.82,7.58,-3.61,-4.59,-0.49,1.7,18.57,-1.96,1.66,6.1,-2.05,16
4.61,-4.34,21.33,23.49,45.75,0.78,7.64,-17.94,8.51,1.17,-6.79,-3.71,0.34,18.49,-2.54,0.68,5.71,0.29,16
3.79,-6.36,20.18,-30.32,-10.11,-7.96,6.9,-17.64,8.46,1.86,-2.15,-1.66,1.78,18.86,-2.75,3.17,2.1,1.95,16
0.99,-5.36,19.95,0.05,-4.83,2.44,8.48,-16.82,9.0,3.37,-1.56,-1.17,1.97,18.91,-3.34,0.15,2.1,-1.71,16
1.85,-5.29,20.65,4.15,-5.66,5.18,9.1,-18.59,8.87,-8.4,-1.37,-0.34,1.77,20.02,-4.1,1.81,7.81,0.05,16
2.96,-5.19,20.57,4.0,-6.79,1.37,7.49,-17.76,8.12,-2.59,-2.93,2.54,2.37,19.83,-2.25,0.49,-2.39,-1.61,16
17.21,10.74,2.58,-171.83,97.95,-0.73,8.72,-15.22,15.93,-138.72,13.33,-1.81,1.78,17.32,-9.72,-1.07,1.03,-1.86,17
4.83,9.74,11.69,-61.67,80.37,-13.13,14.18,-20.53,13.66,52.05,57.18,-36.04,-2.24,10.18,-11.05,78.76,-42.82,-18.16,17
6.09,8.21,16.53,-84.08,47.41,4.15,-0.49,-6.34,10.05,331.54,67.19,-44.34,-0.46,14.29,-18.01,153.22,-41.36,-27.64,17
4.85,4.97,20.01,-6.59,14.31,-2.93,1.51,22.53,-1.56,337.11,14.75,-13.62,-3.78,5.54,-19.35,146.0,-3.66,-58.69,17
2.48,-3.23,18.31,96.19,-13.53,-72.71,3.71,20.48,-1.08,97.85,-14.01,24.51,-5.18,-4.11,-19.08,70.36,59.52,-49.95,17
2.17,23.26,1.83,323.29,-49.32,-7.57,9.32,34.4,-3.93,59.57,-5.86,31.93,-4.56,0.91,-21.98,-3.66,52.49,-1.81,17
8.9,12.27,-4.28,171.97,-50.34,9.67,3.5,23.8,-4.64,-217.38,2.25,86.18,3.2,3.82,-20.81,-202.25,77.15,61.87,17
4.43,15.41,-8.79,69.14,-12.84,27.05,12.04,2.2,8.47,-297.41,0.44,78.03,6.59,8.68,-19.84,-180.47,21.14,2.29,17
10.63,26.89,-11.75,-11.96,24.95,13.72,10.42,-2.35,12.7,-218.26,40.72,38.96,2.98,11.9,-12.19,-130.52,-30.47,-39.31,17
6.3,20.89,-11.36,-200.59,71.58,57.91,3.01,-16.61,6.14,-300.15,36.62,34.33,-0.38,15.28,-4.62,-108.79,-19.43,-34.33,17
15.04,7.41,3.14,-215.92,64.89,39.65,8.35,-21.87,9.39,-9.03,-3.96,11.38,-2.27,18.37,-3.95,-16.65,2.59,0.0,17
7.85,4.83,12.21,-184.33,82.47,-23.14,5.06,-18.99,7.37,-6.54,8.94,-7.23,2.18,17.98,-1.07,8.74,-26.42,-0.88,17
-0.84,-2.46,17.51,-161.52,107.32,-12.4,6.98,-16.31,9.02,20.61,-2.15,-2.73,2.4,17.28,-2.75,14.01,0.63,3.27,17
1.28,-6.3,22.9,-53.76,-33.2,-7.42,6.4,-17.4,10.34,-20.41,8.11,-7.28,-1.66,18.63,-4.49,0.63,-11.52,2.15,17
-1.37,-3.67,20.48,1.07,-1.37,-14.16,6.97,-17.22,9.7,-7.81,2.93,6.15,0.42,19.29,-3.05,-12.79,-16.21,-11.13,17
2.0,-3.64,19.49,15.48,-5.57,5.18,9.12,-14.41,9.03,100.1,-10.89,23.73,2.31,29.35,-5.24,42.58,33.64,-32.47,17
1.89,-1.2,21.62,-10.79,-8.06,-11.91,5.34,-17.91,8.98,-1.51,-4.69,-4.49,0.53,20.46,-2.91,17.92,2.44,0.83,17
2.43,-2.3,21.1,-9.96,11.82,-4.79,7.12,-16.54,9.68,4.3,-6.3,0.44,-0.24,20.59,-3.93,7.96,0.24,0.68,17
12.56,-6.37,22.53,11.33,-60.16,8.2,6.46,-17.43,9.21,0.49,4.05,2.98,0.05,20.47,-3.91,3.17,-2.88,-1.76,17
-1.49,-0.8,19.77,10.69,3.96,2.88,5.12,-17.44,10.1,10.89,4.69,-0.1,-2.26,18.0,-3.84,8.11,-5.13,-5.13,17
4.72,12.9,8.89,173.97,-47.12,23.49,5.17,-3.32,13.98,214.36,-0.93,-19.09,1.58,18.52,-9.32,98.05,5.52,-6.84,18
7.81,17.87,2.12,160.74,-54.59,4.25,5.95,10.38,9.4,290.33,4.05,-21.83,0.78,13.74,-14.53,136.43,2.25,-3.91,18
8.08,17.53,-1.47,81.2,-27.54,18.21,6.51,20.39,6.67,89.55,-18.31,-4.0,-0.03,5.81,-17.72,119.53,5.03,-13.62,18
9.42,16.73,-3.75,44.29,-18.51,12.74,8.48,17.84,4.67,62.21,-11.57,1.07,0.05,3.87,-18.33,101.12,-6.79,-10.84,18
8.76,17.03,-6.83,27.98,1.61,14.31,7.9,20.41,1.88,39.31,-2.39,12.5,-0.7,0.25,-19.04,62.74,16.7,-16.89,18
9.46,18.81,-6.95,-29.3,12.84,1.86,7.38,21.44,1.65,-35.11,8.64,9.86,-0.24,-1.61,-18.49,27.05,5.27,-14.45,18
11.4,23.8,-4.27,-88.43,38.87,15.48,9.84,24.82,3.57,-112.01,14.45,27.1,-0.06,-3.74,-20.28,-4.79,4.35,-14.94,18
10.49,15.6,2.23,-148.1,63.33,-3.52,10.06,13.42,8.42,-191.6,34.96,15.97,-0.69,-1.78,-21.32,-39.26,4.05,3.13,18
12.9,11.21,8.33,-128.27,73.73,1.81,9.54,0.45,11.67,-191.06,22.41,45.21,-2.77,3.59,-22.88,-111.18,29.98,20.07,18
0.14,9.16,12.51,-93.6,99.02,-11.82,4.64,-3.29,14.03,-170.12,15.28,27.15,-0.95,8.01,-18.4,-123.24,29.93,30.52,18
-1.9,3.64,19.52,-89.36,45.51,-19.58,2.94,-21.65,10.61,-180.27,6.01,-2.34,1.4,13.13,-14.29,-144.29,16.31,-45.21,18
0.41,-2.66,21.74,-41.6,-8.11,-5.57,0.84,-17.41,11.78,-7.72,15.04,-13.53,-3.94,10.67,-10.2,-98.44,-0.05,-35.11,18
6.57,-3.89,22.6,16.36,-6.15,0.73,7.59,-11.36,8.19,30.47,1.42,5.62,-1.07,16.9,-6.68,-67.92,-6.2,0.0,18
-0.03,-2.88,22.34,-17.63,-3.56,3.81,7.62,-19.7,8.98,-3.17,-8.5,7.47,-7.37,18.79,-4.17,-12.84,28.22,7.08,18
-2.8,-4.19,19.99,1.76,18.46,-2.29,3.22,-17.86,7.0,-2.05,3.71,3.91,-2.43,19.39,-4.66,-18.21,-20.31,-5.08,18
-2.01,-4.0,20.61,1.27,1.32,7.42,4.21,-18.96,8.65,3.61,-4.49,2.54,-0.06,19.52,-4.03,-15.19,5.13,-4.93,18
-2.05,-3.8,20.59,-4.44,-5.03,0.98,4.92,-18.76,8.95,-2.98,-4.49,-2.88,0.12,18.6,-2.73,-5.91,1.17,-7.81,18
-0.55,-3.62,21.47,0.05,-3.12,1.76,5.16,-18.51,8.86,4.0,0.44,-1.17,-0.14,18.58,-3.36,-0.78,6.15,-4.59,18
-0.76,-3.16,20.97,-2.1,4.44,-2.0,3.99,-18.8,8.32,-1.51,4.79,-1.61,0.43,18.49,-3.26,-1.51,3.71,-0.44,18
-1.72,-3.96,20.97,0.29,-4.35,1.27,4.41,-19.39,8.4,-1.71,-1.12,-1.42,-0.19,19.57,-3.62,2.44,-0.05,-2.73,18
2.44,-2.6,22.28,106.1,-41.5,1.71,4.38,12.75,3.99,163.23,-7.57,-38.09,1.2,10.69,-15.29,104.98,6.2,-18.21,19
4.12,3.09,18.89,120.41,-38.96,8.74,5.82,25.18,-2.94,183.89,-16.8,4.83,-1.34,4.76,-18.3,99.46,17.82,-15.04,19
5.25,8.47,13.38,154.64,-42.24,17.68,10.0,24.41,-2.17,-12.06,11.82,20.75,-1.3,-1.92,-16.58,107.42,-10.35,-32.71,19
6.86,14.97,5.52,145.31,-50.34,20.95,9.45,18.67,0.69,-83.35,16.36,20.07,0.3,-2.64,-18.02,88.77,33.11,-11.28,19
6.13,11.36,-0.93,105.91,-47.66,-9.72,12.63,21.36,3.92,-131.45,40.19,44.48,-0.71,-2.82,-21.55,-28.37,15.04,-12.45,19
8.31,19.74,-8.88,150.2,-36.77,18.6,8.65,9.6,11.66,-123.19,46.63,13.23,2.84,-1.92,-20.09,-74.9,12.94,3.13,19
12.52,19.38,-9.25,22.17,20.31,23.44,6.6,8.13,15.71,-124.37,32.42,-1.46,5.38,7.38,-21.4,-104.15,20.56,-4.1,19
10.27,14.22,-8.8,-75.63,28.66,1.81,4.92,1.52,16.4,-146.88,24.12,-1.03,2.53,5.99,-18.48,-102.69,-31.59,-30.32,19
15.57,18.69,-2.9,-95.75,42.04,9.77,6.84,-7.87,13.39,-208.01,3.42,-1.12,-0.04,10.54,-16.4,-80.03,-28.52,-6.35,19
10.56,12.9,1.91,-115.82,67.29,-6.35,7.7,-19.72,11.03,-83.25,-5.37,-3.47,1.27,13.26,-12.46,-68.7,-36.72,-3.91,19
5.97,15.14,7.8,-98.39,49.46,-29.49,8.8,-26.1,13.97,-5.66,4.64,-10.16,-1.11,14.71,-9.93,-62.06,-4.3,-1.86,19
5.37,13.14,11.84,-92.19,33.45,-32.67,4.21,-18.23,10.52,-44.04,9.52,6.4,-0.42,16.98,-7.45,-47.75,-0.2,4.79,19
2.89,8.06,15.75,-103.81,35.94,-14.06,5.21,-17.43,9.06,-3.03,3.08,1.81,6.69,21.46,-6.61,38.57,1.71,38.04,19
1.68,3.04,18.39,-80.22,26.81,-14.55,5.94,-17.72,9.71,-1.56,-8.15,2.2,2.5,17.74,-3.91,-4.74,-14.01,-10.35,19
-8.67,-1.18,27.76,-43.41,3.08,-39.21,5.96,-17.42,9.96,1.86,-7.32,-0.88,-0.49,17.74,-4.21,-4.35,-4.3,-5.81,19
0.95,0.95,21.93,-1.07,48.1,0.0,7.95,-14.02,10.64,1.37,-7.86,-10.79,-0.87,18.0,-4.5,-5.42,4.35,0.0,19
0.8,-2.53,20.78,-20.61,-4.83,-5.08,7.76,-18.53,8.65,-28.47,-8.84,-2.73,-0.37,19.16,-4.28,-0.54,9.62,-4.2,19
-0.22,-1.71,21.28,2.59,-7.28,1.22,7.1,-18.22,8.17,6.84,-0.49,2.2,-0.9,19.56,-5.02,-1.47,6.88,14.31,19
-0.1,-1.94,21.09,-4.88,-1.66,3.81,7.04,-18.28,7.98,-2.05,-4.79,-1.17,-0.21,19.94,-4.31,-25.44,2.93,-6.69,19
0.25,-1.46,21.05,-4.0,-3.22,6.15,5.89,-18.55,7.92,3.32,1.12,1.07,-0.06,17.69,-2.99,-4.2,3.08,-4.69,19
1.49,11.65,9.7,167.53,1.07,39.16,1.31,-4.96,13.37,183.84,10.79,10.5,-2.56,10.86,-12.72,95.26,8.35,-39.99,20
1.91,15.68,5.48,116.31,-49.12,29.3,3.5,8.72,12.02,239.7,-13.96,-4.69,-2.28,2.09,-16.4,81.01,13.57,-12.6,20
6.38,19.76,1.21,93.12,-21.97,27.49,6.59,17.96,10.42,146.53,-19.97,2.73,-1.42,2.97,-19.3,61.13,25.54,-14.06,20
8.03,19.78,-1.4,63.23,-26.71,25.78,6.76,17.63,8.5,73.93,-19.53,-0.05,-0.87,1.44,-20.31,50.68,23.14,-1.27,20
7.98,18.25,-4.13,34.23,-6.88,16.5,6.61,19.92,4.97,49.46,-1.9,6.59,-1.7,-1.7,-20.41,15.28,11.96,-13.96,20
9.38,21.8,-6.96,19.68,-8.64,15.53,7.81,24.21,3.79,34.23,-5.62,7.13,0.67,-1.26,-21.47,-1.17,9.91,-6.74,20
8.33,20.83,-4.75,-62.11,16.89,-17.33,6.65,22.45,4.24,-79.35,15.14,-1.66,-1.26,0.94,-21.55,-55.32,-14.21,2.83,20
6.71,18.03,-0.57,-107.57,23.39,-27.64,5.98,17.14,7.19,-132.13,18.31,4.2,-0.04,2.88,-17.97,-95.65,-29.39,23.63,20
7.93,11.26,5.85,-141.46,37.4,-12.4,5.1,5.77,11.5,-182.57,16.94,23.39,1.15,7.34,-16.32,-118.95,-32.67,10.3,20
5.79,8.59,11.08,-153.66,73.05,1.9,2.8,-1.63,13.7,-208.2,27.25,63.53,0.75,13.36,-12.22,-116.46,-13.72,-19.82,20
-5.69,0.99,18.85,-166.26,57.96,-34.57,-2.26,-18.79,8.34,-337.5,22.51,15.48,-3.87,15.22,-6.64,-72.71,-27.29,-4.64,20
-6.91,-4.15,21.35,-108.2,-19.78,-18.7,4.69,-21.54,8.97,-4.54,-8.06,9.86,-5.49,15.43,-4.21,-51.61,-1.07,13.23,20
-1.01,-2.98,22.37,-15.97,-6.88,1.86,-5.97,-23.37,11.92,-76.61,16.02,-18.31,-1.76,20.28,-3.02,-9.28,-0.24,7.13,20
2.57,-9.7,21.36,-52.44,-22.95,-18.8,3.01,-17.23,5.74,12.35,-0.68,6.93,-2.28,23.03,-0.78,-10.84,10.06,9.38,20
-5.67,-3.6,20.68,-26.61,-1.9,-2.05,3.71,-22.62,4.13,-47.41,-8.98,0.15,-3.29,18.35,-0.17,-22.02,22.51,17.92,20
-4.31,-10.53,20.11,3.17,-6.79,9.67,5.08,-21.8,4.26,-0.83,-4.88,2.49,-2.59,17.22,-0.11,-6.64,9.96,2.73,20
-4.47,-8.33,19.5,2.39,3.32,4.54,3.5,-20.43,3.92,-6.15,-2.0,4.59,-1.4,19.96,0.51,4.59,5.76,-6.3,20
-4.96,-9.14,19.2,6.1,0.34,6.79,3.37,-20.21,4.36,1.07,-5.71,0.98,-2.06,18.75,0.71,3.86,8.35,-6.15,20
-4.31,-8.35,19.87,5.52,-0.2,11.18,2.96,-20.52,4.93,7.91,-5.52,5.71,-3.07,19.63,-0.59,4.78,16.8,-9.91,20
-4.57,-6.88,19.66,12.4,-3.08,6.69,2.48,-19.48,5.23,6.84,0.0,-1.37,-3.58,18.71,-0.75,8.89,11.04,-5.32,20
3.91,-2.06,21.31,120.95,-27.29,-34.86,5.73,15.07,8.91,219.24,-9.37,-27.64,0.13,3.53,-16.84,78.76,-4.69,2.69,21
4.43,3.87,15.27,132.28,-43.21,-19.82,6.52,16.37,7.6,72.41,-13.48,-19.48,0.48,-0.28,-18.21,38.82,0.29,-8.45,21
4.48,14.11,6.54,169.58,-31.45,19.24,4.85,16.86,4.38,75.78,-1.61,-9.72,1.12,-0.69,-18.35,48.39,-0.34,-8.59,21
7.77,16.1,2.53,94.29,-55.18,-4.88,10.72,27.96,1.9,74.61,-9.72,21.83,-0.77,-1.28,-23.55,-5.57,25.24,-11.82,21
7.56,17.4,-1.85,68.26,-22.07,-2.44,7.35,22.22,0.74,-22.71,9.52,5.03,0.09,-1.8,-21.47,-38.82,1.66,-5.76,21
7.72,16.16,-4.55,54.64,-17.58,7.03,6.66,18.52,3.51,-29.83,-1.42,9.13,0.77,0.65,-19.23,-27.69,10.89,7.08,21
11.53,24.31,-8.49,37.35,-11.28,22.75,7.96,16.74,6.87,-70.85,-12.11,41.94,3.35,4.15,-19.28,-63.13,37.01,9.03,21
6.94,17.87,-7.51,-24.27,16.41,-4.05,10.34,14.18,9.27,-164.11,9.08,26.66,3.74,7.56,-17.95,-111.72,10.21,14.11,21
7.36,17.01,-4.08,-26.47,8.11,6.1,10.73,5.15,13.03,-191.16,16.99,46.39,5.59,11.37,-15.48,-133.74,0.49,-14.65,21
10.71,17.27,-0.7,-71.05,12.79,28.61,9.24,-1.12,13.9,-193.26,20.46,31.49,3.45,12.71,-11.37,-107.37,1.27,-16.41,21
9.76,19.45,2.44,-142.48,25.49,-22.17,8.86,-23.32,11.49,-200.05,9.42,7.91,2.89,14.95,-7.27,-30.62,3.32,-1.56,21
10.67,12.38,9.28,-140.38,53.08,7.57,6.94,-16.73,9.31,37.35,8.11,13.87,4.45,15.42,-4.28,3.66,-26.12,-19.29,21
5.79,8.25,13.97,-132.96,61.67,-5.71,7.23,-7.64,11.51,6.69,-12.01,13.82,1.25,16.46,-4.31,-34.52,9.96,-23.14,21
1.74,-1.34,18.98,-74.37,60.89,6.84,10.48,-21.4,12.43,113.28,-27.44,-6.15,3.72,27.51,-6.82,48.44,28.22,-2.69,21
3.71,-7.0,18.31,-21.14,-0.29,-2.15,8.15,-13.09,13.23,-18.36,-9.96,-6.98,0.65,23.34,-6.38,11.62,-6.1,-19.04,21
6.65,7.4,18.41,6.69,-23.97,12.35,8.91,-17.34,10.37,16.11,-7.23,2.98,1.86,19.05,-2.99,14.11,-14.16,-2.44,21
13.21,-6.08,23.31,40.04,-114.11,16.26,8.33,-15.39,10.86,2.39,-1.12,7.86,-0.03,17.18,-3.05,0.93,8.25,-8.01,21
3.75,2.18,20.6,-10.69,15.28,10.69,9.15,-13.92,12.61,6.05,-0.54,1.66,-2.47,16.43,-4.07,-2.73,13.43,-7.28,21
3.96,-5.41,19.18,-19.63,16.36,1.9,8.77,-14.55,12.14,-1.86,0.49,0.59,-2.16,19.87,-4.44,-0.73,2.39,-3.66,21
5.89,-0.88,20.11,-3.96,5.76,5.37,8.24,-15.27,11.99,1.03,1.95,0.59,-1.32,17.11,-4.01,10.99,8.79,6.4,21
4.81,7.76,16.41,116.41,-17.58,1.22,5.38,-0.83,13.59,213.09,13.72,-15.48,-1.73,7.18,-16.31,93.21,-7.52,-26.27,22
4.54,13.67,7.62,172.36,-28.96,11.38,4.88,10.44,8.09,242.82,-3.52,-14.06,-1.37,4.27,-17.6,109.42,-3.22,-29.54,22
7.92,14.46,1.08,143.31,-55.62,11.33,6.19,19.36,3.11,140.09,-16.21,1.66,-2.88,-0.45,-17.78,63.82,23.1,-39.6,22
8.36,15.6,-4.47,100.63,-31.93,23.78,7.62,19.47,1.51,65.48,-17.09,-0.34,-1.13,-2.76,-19.15,48.19,17.14,-7.67,22
9.61,15.95,-6.62,46.09,-34.72,15.97,9.56,24.29,-0.03,33.59,4.79,19.82,-3.01,-2.7,-22.51,-14.55,21.24,-16.89,22
10.65,19.6,-9.31,26.12,13.53,17.38,6.66,17.45,0.04,-81.74,20.26,10.25,-0.78,-1.8,-19.16,-59.13,-1.32,1.66,22
9.62,14.44,-8.34,-68.46,33.79,-6.05,8.09,22.72,4.0,-71.24,10.16,30.27,-1.42,1.14,-21.67,-82.57,24.95,14.84,22
9.79,17.84,-5.36,-59.28,36.04,15.43,11.32,13.01,9.31,-139.7,5.62,44.34,5.46,8.79,-21.83,-87.65,25.63,28.71,22
15.35,14.58,0.42,-133.64,13.33,22.56,9.07,10.93,11.28,-101.9,37.01,40.28,5.93,12.81,-18.26,-106.4,-6.1,-11.77,22
14.49,17.08,4.35,-97.61,73.0,3.32,8.6,0.85,12.87,-200.49,23.24,3.76,-0.45,10.33,-11.19,-81.15,-12.79,-1.66,22
8.38,9.33,10.8,-122.36,39.6,-12.01,5.85,-14.77,7.57,-264.7,16.99,-1.07,-2.14,12.45,-6.16,-81.4,-10.89,-2.93,22
3.06,2.4,15.56,-129.35,75.78,-12.16,9.29,-16.94,11.16,-0.0,-9.23,-0.54,-3.4,15.22,-5.92,-35.06,4.74,12.16,22
-0.43,-0.14,20.08,-37.94,-0.68,2.64,14.88,-23.49,13.07,-32.52,0.68,-27.0,2.22,20.73,-7.3,20.85,12.79,55.32,22
-1.4,1.42,25.66,-8.15,-26.32,-2.1,7.44,-14.11,10.1,-19.97,2.64,6.98,3.84,15.28,-4.59,-19.58,-8.06,-12.84,22
3.16,-2.53,19.24,-4.2,52.15,4.35,6.98,-17.54,9.96,-1.66,2.98,2.15,-0.24,17.5,-5.4,2.0,0.05,-1.51,22
3.62,-1.89,20.59,-8.35,-2.59,-6.93,7.75,-17.03,10.75,-1.03,3.96,-0.63,0.51,17.93,-5.54,5.13,1.32,1.76,22
4.51,-0.95,21.2,-2.34,-9.28,1.32,7.86,-16.21,10.65,3.71,1.46,0.54,1.71,17.29,-6.22,-2.1,5.22,-3.52,22
3.86,-1.36,20.51,1.22,1.07,4.3,8.59,-15.36,11.23,6.45,-3.03,-0.49,2.87,18.37,-5.47,8.79,-0.93,1.46,22
3.77,-0.57,20.45,7.67,-3.17,1.86,7.17,-15.59,11.23,0.78,-1.17,-0.59,3.09,18.67,-6.84,7.37,3.22,0.1,22
3.7,-0.13,20.37,7.23,-1.42,-5.27,8.37,-15.84,11.47,2.83,-0.54,-0.24,1.33,17.52,-6.94,0.39,-1.51,-1.81,22
7.19,10.48,10.57,161.03,-61.47,-9.42,5.82,-4.88,14.58,176.56,21.88,-36.57,3.18,10.86,-15.55,132.96,-24.71,-0.98,23
6.86,14.91,3.8,124.61,-36.38,11.28,5.94,7.34,10.48,246.63,-14.4,-4.3,1.35,4.02,-16.91,76.12,1.9,-11.87,23
8.01,14.0,-2.05,103.03,-36.77,9.33,5.96,15.34,6.94,116.31,-15.82,-20.26,1.75,-0.48,-17.5,79.93,6.35,-13.48,23
9.1,13.28,-7.03,77.1,-30.13,8.15,7.2,16.3,1.27,116.41,-7.37,-8.64,1.36,-3.87,-17.66,63.92,3.56,-18.16,23
9.04,14.86,-10.66,47.61,-2.1,0.88,6.22,21.2,-3.57,70.26,2.1,-1.76,2.12,-6.58,-18.28,32.62,7.62,-11.82,23
9.33,17.52,-10.63,-25.68,7.76,29.2,10.42,22.76,-3.47,-20.17,-38.87,41.6,1.16,-5.22,-20.98,-36.57,48.05,2.49,23
11.19,15.81,-8.27,-56.59,31.79,51.32,10.62,19.8,-0.31,-61.47,-11.96,53.56,1.76,-0.42,-21.41,-63.18,69.82,7.57,23
13.28,14.34,-4.06,-76.71,33.84,17.58,14.02,17.55,2.55,-86.23,13.67,38.13,4.47,0.37,-20.4,-75.34,12.3,0.24,23
14.24,16.23,-0.3,-83.74,73.73,16.99,12.92,15.1,6.7,-101.37,42.04,55.57,4.59,6.7,-19.34,-83.98,23.05,-33.4,23
13.1,9.02,3.96,-171.39,67.14,3.47,12.72,4.99,7.12,-219.34,43.95,46.97,7.18,6.26,-13.33,-120.07,2.2,-27.98,23
9.3,2.28,12.35,-132.72,96.14,27.1,7.47,-7.41,9.97,-250.49,18.46,64.16,5.61,10.81,-9.6,-97.12,13.77,-41.75,23
4.97,5.66,18.79,-51.32,41.02,23.05,12.31,-17.32,11.95,-79.74,-20.95,34.38,5.22,16.39,-9.09,-50.68,20.46,-13.57,23
9.4,-3.64,19.12,-59.03,19.92,10.69,10.92,-14.18,9.83,-43.9,-4.88,31.79,5.91,17.94,-5.77,-41.89,7.81,-13.53,23
-0.57,-4.75,24.56,-75.93,-27.25,-25.93,13.29,-30.64,8.28,-37.35,15.77,-5.81,7.08,19.36,-4.96,25.15,-12.79,35.69,23
4.04,-5.05,19.22,21.78,50.2,19.29,9.64,-14.26,6.88,-41.06,7.52,14.21,4.89,16.75,-2.29,-12.35,-1.27,-17.68,23
4.16,-7.11,19.23,-11.52,-0.68,-9.18,7.98,-16.79,6.89,13.48,3.47,4.98,3.52,18.21,-2.59,3.32,-3.37,-3.86,23
4.03,-4.34,20.29,-7.08,-0.44,-0.44,9.07,-17.82,7.28,-9.47,1.51,0.54,2.66,17.83,-2.99,-2.98,3.81,-1.9,23
4.53,-5.19,20.18,-1.17,11.96,-2.88,8.29,-17.9,6.68,-7.67,4.05,8.98,4.08,19.06,-2.32,-7.81,-0.49,-7.52,23
2.85,-5.67,20.06,-0.24,5.22,2.29,7.84,-18.5,6.74,-2.05,-0.88,7.03,2.68,18.67,-2.31,-3.32,4.74,-8.3,23
2.6,-6.09,19.81,6.3,2.25,-1.07,7.71,-17.73,7.02,7.57,1.71,0.29,2.6,17.95,-2.04,3.91,-0.68,-5.57,23
1.38,-5.94,22.48,101.9,2.64,-11.52,2.9,0.73,16.19,106.98,-6.79,-28.47,2.81,4.38,-17.24,66.26,15.58,0.05,24
0.27,-0.92,16.07,167.63,-8.64,-5.91,1.07,8.22,12.8,175.2,32.08,-42.33,2.71,1.41,-18.32,124.22,-0.39,17.48,24
2.84,15.34,10.32,204.2,-17.04,7.76,1.04,16.75,9.44,120.41,8.89,-17.48,3.78,-2.13,-18.08,64.36,9.03,3.86,24
3.1,14.73,6.03,112.45,-8.3,35.5,-1.5,19.0,6.63,64.06,8.64,-18.55,2.19,-6.3,-18.03,40.53,6.45,13.96,24
6.49,17.83,-0.15,145.26,-44.58,20.85,0.53,27.36,5.17,3.91,-5.18,2.49,1.55,-6.57,-21.26,-18.31,11.47,-7.23,24
7.64,16.66,-4.73,90.62,-27.64,25.2,-0.24,17.41,5.91,-65.82,-16.36,13.77,1.9,-3.88,-16.84,-49.46,11.28,-14.75,24
5.93,16.89,-8.12,67.87,-28.52,17.87,3.02,17.12,11.36,-71.63,-58.69,64.84,6.78,-0.71,-19.05,-78.13,43.02,-28.47,24
6.87,19.09,-11.24,2.59,14.26,3.17,4.21,12.4,11.4,-149.51,-32.47,78.71,7.99,5.37,-17.32,-101.32,24.17,-34.23,24
6.97,14.77,-6.97,-52.88,11.23,-10.94,7.39,-0.47,15.01,-161.82,-41.11,88.82,9.88,8.66,-15.65,-128.52,-2.69,-61.82,24
9.11,17.81,-3.88,-77.59,26.17,18.12,11.03,0.76,13.23,-108.59,-12.21,53.56,7.78,16.98,-10.46,-59.81,1.76,-29.74,24
9.03,20.7,0.53,-134.62,40.43,-0.24,10.25,-16.32,9.01,-157.08,-34.03,52.39,6.82,17.48,-5.66,-85.4,4.64,-33.89,24
7.99,13.39,7.97,-146.58,59.72,-10.06,9.58,-18.23,4.17,-91.41,-22.41,37.4,4.14,16.62,-0.6,-74.46,-3.61,-28.37,24
5.92,17.4,13.82,-93.85,31.88,-22.66,10.19,-20.08,3.69,-50.88,-22.22,19.92,1.91,18.41,2.05,-42.29,4.59,-14.55,24
3.77,1.6,18.54,-121.34,56.05,-9.33,11.59,-9.89,2.8,62.35,-7.28,17.82,4.98,23.38,4.69,15.77,1.66,-26.86,24
0.55,-5.4,19.49,-125.05,34.62,-13.48,9.92,-19.22,0.58,-4.59,4.74,9.47,1.06,16.58,4.54,-21.97,-13.18,-17.48,24
-4.08,-5.74,20.86,-46.48,11.47,2.98,7.03,-17.83,0.46,-12.3,4.88,6.79,-0.34,19.65,5.09,-4.98,-9.13,-16.89,24
12.25,-13.32,21.09,19.87,-65.09,20.46,5.41,-20.71,0.08,-0.78,8.4,9.18,-2.75,18.28,5.1,0.39,-1.81,-8.5,24
-1.83,-12.2,19.01,-60.35,-9.18,-14.94,6.44,-19.22,0.69,-2.05,-0.83,1.37,-2.15,17.73,5.51,-4.98,2.69,-4.39,24
-4.35,-8.77,18.54,1.22,14.89,-4.05,7.46,-17.38,1.23,14.26,-5.62,-7.42,-0.78,18.0,5.56,-6.2,3.81,1.03,24
-4.12,-10.31,18.95,-12.79,7.76,-7.23,8.49,-18.92,1.71,10.74,-6.4,-7.03,-0.57,18.98,4.68,4.0,2.2,8.69,24
-0.54,-8.95,19.96,0.2,-2.98,0.59,7.7,-18.56,2.26,-1.95,-0.59,1.32,0.79,18.56,3.23,-0.05,3.32,-2.1,25
-0.91,-8.88,20.02,-1.12,1.51,2.54,8.21,-18.82,2.94,1.61,1.95,0.73,1.03,19.62,2.78,6.25,1.12,-0.39,25
-0.35,-8.06,20.17,0.44,-0.29,0.34,7.59,-19.58,2.59,-2.59,1.12,-0.1,0.83,18.46,3.2,0.93,0.78,-0.78,25
-0.35,-7.45,19.91,-0.83,1.17,-0.78,9.76,-25.38,0.95,22.61,10.5,-3.81,-0.98,17.56,2.64,43.36,-9.23,6.25,25
0.25,-7.28,20.55,8.89,-0.93,0.98,6.21,-22.49,3.5,214.11,88.72,16.75,1.74,21.63,-9.01,233.35,-47.36,-14.31,25
-1.14,-8.45,19.6,-2.1,2.54,1.27,3.38,-10.21,13.46,212.5,67.38,30.47,-1.0,16.22,-15.91,197.22,-23.14,-28.71,25
-2.34,-12.52,21.41,16.36,-5.18,2.69,1.84,4.81,16.65,116.41,28.47,20.41,-2.85,8.22,-16.72,94.73,12.11,-16.85,25
-0.8,-13.34,18.46,209.37,6.05,-2.15,1.03,8.06,16.89,133.5,8.98,19.43,-0.31,3.12,-17.88,65.04,10.79,-17.97,25
1.43,7.72,13.93,225.0,5.52,17.04,-0.82,12.58,15.51,83.79,3.32,11.43,-1.74,1.95,-18.78,31.05,22.02,-7.23,25
-0.09,19.9,7.27,110.16,8.3,28.61,-3.1,11.64,15.37,6.84,-25.34,-15.82,0.38,0.04,-18.84,23.0,12.94,12.45,25
-0.03,19.75,2.74,103.03,16.8,35.3,-3.84,23.27,15.64,-28.13,-48.1,9.81,-1.49,5.89,-22.96,-35.94,48.88,10.89,25
2.74,20.56,0.44,62.45,0.73,20.21,2.58,11.46,13.79,-208.59,-52.44,24.22,0.68,7.6,-22.21,-140.72,31.54,16.46,25
4.47,16.59,-0.51,-11.57,-40.72,-8.35,8.77,-4.98,10.83,-270.26,-61.23,48.14,2.79,13.12,-17.58,-175.0,35.01,-3.08,25
4.83,26.45,-2.88,-26.27,-23.83,9.03,9.2,-16.13,8.02,-123.68,-51.56,44.97,2.9,15.69,-8.63,-133.11,24.22,-24.61,25
3.6,22.1,0.34,-154.59,-16.85,-8.45,8.67,-18.25,3.46,-114.26,-36.62,29.64,1.64,16.45,-1.2,-97.36,17.92,-12.55,25
4.2,17.53,7.51,-194.73,30.86,-1.81,8.93,-21.73,0.26,-63.87,-27.88,14.11,0.98,17.61,2.57,-68.26,16.65,-6.25,25
2.69,6.26,15.39,-153.76,40.48,8.35,8.02,-19.71,-1.69,-21.88,-4.54,3.66,0.91,17.36,5.33,-24.12,1.07,-2.49,25
-2.41,-1.62,17.91,-118.21,24.95,5.32,7.06,-20.76,-1.96,-15.53,-8.89,-2.34,1.64,19.04,6.99,-15.58,4.54,-2.34,25
-2.68,-6.22,20.07,-84.23,5.37,2.54,8.32,-18.68,-1.85,4.39,4.59,-3.37,1.46,19.18,5.98,11.13,-2.49,6.54,25
-3.09,-10.71,18.75,-34.23,0.1,-2.0,9.07,-18.11,-1.72,2.29,4.54,-2.39,2.13,17.06,6.28,4.35,1.9,-0.15,25
-0.43,3.45,18.0,250.24,17.38,-35.69,3.98,14.82,13.55,141.55,-20.65,5.18,-2.69,2.29,-18.08,41.6,29.74,-12.79,26
0.37,16.19,14.35,125.44,29.49,10.35,4.83,17.47,13.91,18.07,-18.02,16.94,-1.0,3.2,-19.47,4.05,32.71,-2.54,26
1.49,14.23,9.36,115.48,-24.51,29.3,5.84,17.53,15.42,-37.84,-2.54,6.15,-0.28,3.32,-20.86,-37.16,4.59,8.2,26
4.52,16.43,6.45,98.44,-25.98,37.21,7.62,10.52,16.54,-125.15,-17.87,10.01,-1.1,7.28,-20.51,-72.07,-2.34,12.01,26
5.1,18.33,0.98,83.3,-21.29,36.38,7.34,1.21,17.43,-143.8,-13.09,23.78,0.61,9.46,-17.9,-81.01,11.77,-0.73,26
7.24,17.57,-0.84,32.67,-5.32,25.88,7.79,-2.95,17.68,-101.27,-16.75,23.34,1.26,12.61,-14.75,-71.05,8.35,3.71,26
7.08,19.84,-0.85,-28.71,6.88,14.06,7.05,-8.94,15.44,-118.12,-1.03,16.26,1.5,13.32,-11.99,-65.63,-2.64,-2.39,26
7.07,20.92,2.51,-74.46,14.5,-5.76,8.62,-12.17,13.97,-73.68,-1.17,11.87,0.85,16.21,-9.71,-52.69,-2.1,0.73,26
7.15,16.42,7.48,-105.66,18.75,-7.47,8.1,-15.91,11.26,-73.88,-4.79,5.91,0.92,16.96,-6.4,-54.64,2.29,-4.83,26
4.14,15.18,11.14,-80.52,27.05,-3.08,7.62,-17.89,8.87,-58.4,-8.94,1.61,0.47,16.79,-4.4,-46.09,-3.47,-0.98,26
5.09,12.66,13.81,-78.61,22.36,-2.78,7.67,-21.18,7.25,-27.54,-4.0,1.95,0.37,16.68,-2.26,-18.99,-2.64,-1.71,26
2.76,10.29,16.71,-52.1,14.6,-5.32,8.97,-18.11,6.8,-4.79,-6.15,-1.17,1.35,19.61,-2.22,-2.3,0.88,0.1,26
2.9,5.35,18.77,-55.13,18.07,-9.77,7.15,-18.82,6.58,3.95,1.9,0.0,0.72,18.01,-2.0,-0.49,-3.91,-2.0,26
1.42,3.18,20.0,-59.08,11.87,-2.88,9.17,-17.92,6.88,6.93,-4.88,-3.12,2.53,20.23,-1.82,10.79,-0.15,0.63,26
0.24,-0.11,20.41,-47.27,8.79,-4.15,8.22,-15.95,7.21,11.43,2.54,-3.22,1.01,21.51,-3.84,14.79,3.22,-0.05,26
0.38,-1.67,21.93,-10.01,-0.98,-0.78,8.51,-17.13,7.46,4.35,-0.24,-0.54,1.14,18.83,-2.91,1.76,-1.46,-0.88,26
1.16,-2.37,21.49,-10.89,-3.71,0.24,8.19,-16.61,7.73,-2.15,-1.17,-0.24,1.41,18.55,-3.21,4.59,2.05,-0.73,26
1.9,-2.02,21.59,-0.05,-5.62,1.56,8.61,-18.1,6.89,-4.64,0.93,1.17,1.14,18.85,-2.99,-0.05,-0.63,0.59,26
1.91,-2.66,21.54,14.26,-2.44,-5.62,7.95,-18.35,6.8,-2.15,0.78,0.15,0.82,18.93,-2.91,-2.44,-2.0,0.29,26
1.04,-0.94,21.29,6.49,0.24,-0.49,8.38,-18.75,6.98,-5.37,1.12,2.29,0.5,18.86,-3.2,-8.89,4.83,-1.61,26
2.84,15.01,10.92,119.19,-35.74,20.7,3.46,13.79,14.26,124.41,-6.15,-22.31,-1.63,-0.79,-19.04,48.0,-6.05,-2.44,27
4.84,16.11,7.57,94.14,-22.27,21.48,3.0,11.95,10.87,149.51,9.42,5.52,0.7,-2.3,-19.49,42.38,-3.42,-14.94,27
7.2,16.32,3.97,75.24,-43.9,18.95,3.86,16.67,5.58,104.78,14.55,19.53,-0.35,-3.49,-18.65,11.91,10.74,-16.36,27
6.11,16.94,-0.05,56.64,-39.75,16.26,3.72,20.67,3.68,39.06,-1.17,5.86,-1.0,-3.87,-20.48,3.91,8.01,-0.93,27
8.74,17.26,-1.83,57.71,-31.98,7.32,3.72,19.78,3.45,-22.61,-5.22,1.37,0.72,-2.81,-19.53,-22.12,5.76,5.13,27
7.82,16.7,-5.89,42.28,-6.15,9.62,4.14,18.79,5.57,-50.05,-10.84,12.5,0.12,-1.26,-19.81,-40.23,21.04,9.38,27
6.84,18.29,-8.03,12.5,-15.62,9.96,6.07,19.45,7.32,-71.92,-7.81,26.71,0.7,2.86,-20.9,-61.87,23.39,-1.56,27
6.5,16.05,-6.3,-17.87,1.46,1.71,4.41,13.93,9.1,-112.99,7.96,50.88,5.1,7.87,-17.67,-80.76,18.99,-6.84,27
6.79,16.66,-4.02,-46.39,11.08,4.79,5.79,9.42,11.73,-153.32,-3.27,80.08,6.3,12.49,-16.19,-94.78,39.89,-12.35,27
8.28,18.52,-2.58,-65.33,24.51,5.52,9.03,-1.48,15.81,-195.51,2.88,57.32,4.68,12.58,-12.83,-69.73,8.84,-18.7,27
8.88,18.17,1.34,-95.02,40.04,11.62,10.73,-9.68,12.44,-195.36,2.15,40.53,3.34,12.96,-10.4,-93.51,-2.98,-24.66,27
9.28,15.96,5.65,-139.99,58.74,32.67,7.4,-19.13,8.95,-124.22,-9.42,33.45,1.69,14.76,-5.76,-88.38,-2.05,-23.24,27
8.95,11.95,13.0,-110.64,53.32,10.3,8.98,-17.93,5.38,-66.99,-13.23,21.92,1.18,18.99,-1.81,-54.05,5.71,-8.11,27
6.23,5.53,16.89,-115.63,49.71,-1.22,6.0,-20.26,3.08,-12.74,-7.86,1.17,2.09,18.52,1.92,-11.33,3.27,4.1,27
0.79,0.91,18.56,-114.6,57.28,-8.25,6.83,-19.34,2.4,-3.61,-0.29,6.54,0.74,18.6,1.94,-13.23,-0.24,-5.13,27
0.62,-2.29,20.73,-73.97,24.32,0.29,6.5,-18.93,2.04,-11.23,-3.86,10.55,0.75,19.12,2.14,-16.36,0.39,-9.91,27
-3.89,-7.0,20.65,-20.9,5.13,-7.67,2.55,-21.69,2.69,-69.24,21.09,-29.93,-0.95,18.17,2.77,-24.27,8.59,-4.88,27
-2.22,-7.4,20.62,-10.99,8.64,0.05,8.32,-15.47,1.25,2.78,14.65,4.79,1.89,20.14,2.45,-12.89,-5.66,-7.86,27
-1.24,-6.39,19.85,-15.28,10.35,3.47,7.66,-20.56,0.94,-10.4,17.29,4.49,-0.39,19.75,3.21,-0.0,-4.0,-7.71,27
-1.7,-5.65,18.94,-10.11,4.39,1.9,5.11,-18.21,1.39,-0.0,4.59,2.25,0.77,21.59,3.35,21.19,-9.13,-4.69,27
4.63,14.22,11.56,161.03,-38.72,10.3,6.2,-0.05,16.39,180.13,17.53,-29.3,-1.81,7.65,-16.57,96.48,-14.45,-8.89,28
7.79,15.9,7.41,115.77,-50.98,-1.95,5.43,5.05,15.98,177.54,6.45,-6.15,-3.05,6.11,-18.47,63.28,-0.49,-20.56,28
6.01,17.33,2.36,89.84,-45.46,-5.62,2.38,16.46,9.41,161.28,2.34,-22.41,-2.04,3.11,-18.31,75.39,3.61,-13.13,28
6.88,17.65,-2.34,69.97,-37.84,3.27,3.14,15.99,6.74,65.04,3.76,-17.48,-2.28,-1.27,-18.92,55.42,-2.15,-13.04,28
5.56,17.37,-5.83,57.81,-27.44,2.15,3.07,18.73,2.67,65.97,-10.69,-0.1,-0.52,-2.57,-17.89,33.74,12.26,-3.91,28
8.02,18.81,-7.95,29.98,-13.09,21.88,4.09,23.87,1.27,3.32,2.34,13.48,-3.13,-3.24,-20.73,-20.8,10.89,-7.86,28
6.82,18.22,-8.9,-25.49,13.96,16.02,4.75,19.32,2.78,-41.65,-1.9,3.76,-2.33,-3.64,-19.89,-34.42,-1.22,3.81,28
8.31,17.29,-5.61,-35.21,24.71,14.45,5.9,17.92,6.11,-68.21,-10.25,32.67,-2.83,2.42,-20.3,-50.34,23.93,13.67,28
12.17,19.89,-0.89,-56.98,28.52,14.26,9.21,17.49,7.33,-143.95,10.94,59.91,-0.98,10.95,-20.76,-88.57,18.65,1.27,28
10.93,14.8,2.82,-134.08,38.04,-10.64,8.91,10.89,10.48,-146.53,25.54,52.0,-0.58,13.05,-18.15,-112.79,4.98,-9.03,28
6.64,8.42,10.79,-119.24,52.29,-1.81,8.95,-0.29,15.91,-187.6,-10.55,31.98,-1.29,15.92,-14.92,-72.36,14.21,6.93,28
7.06,7.95,16.32,-92.68,23.68,11.91,12.27,-11.08,13.21,-159.13,3.03,18.95,-0.73,15.51,-11.39,-82.08,7.86,9.47,28
5.31,1.36,17.97,-92.68,34.77,-13.48,8.9,-17.5,12.33,-49.17,12.99,-3.27,-1.41,15.05,-7.42,-48.68,-26.12,2.64,28
3.77,2.02,20.19,-19.43,-19.29,-16.02,6.19,-13.36,13.73,-25.59,1.17,-0.59,-1.02,19.52,-6.47,-10.74,-3.56,6.74,28
5.24,4.24,21.62,-37.84,1.03,4.83,8.44,-18.86,11.18,-50.83,6.45,7.96,-0.26,18.36,-6.18,-28.52,-2.15,-4.44,28
3.56,0.42,21.45,-14.55,15.67,-5.27,6.88,-16.48,9.28,-17.38,5.27,15.19,-0.22,19.66,-3.85,-21.14,-0.2,-15.33,28
0.68,-1.43,20.67,-16.06,20.46,-2.49,6.63,-17.47,9.28,-17.77,1.37,7.08,-1.74,19.39,-3.67,-15.33,4.93,-7.62,28
0.04,-1.31,20.34,-15.63,10.99,-2.59,6.43,-18.37,8.5,-11.43,-0.83,1.95,-1.49,18.4,-1.93,-7.86,1.76,-0.88,28
0.38,-1.78,20.86,-10.06,6.59,-1.03,5.22,-18.79,8.41,-2.64,-3.61,-0.83,-0.68,19.02,-1.19,1.22,-3.66,1.95,28
0.16,-1.19,21.7,-8.55,-0.54,2.83,5.42,-17.58,8.91,7.08,2.39,0.68,-0.99,19.78,-3.01,7.37,-7.86,1.56,28
4.32,-9.95,17.91,-20.02,62.16,34.23,4.76,-20.66,-1.64,-8.06,-5.66,-4.39,-0.06,21.59,-5.35,2.54,1.37,-27.1,29
5.05,-3.83,19.67,-25.0,32.76,40.67,5.45,-20.4,-2.18,0.78,0.83,1.71,-1.79,21.43,-2.98,-66.5,18.36,-23.05,29
3.97,-11.11,17.41,-92.58,96.53,47.85,5.22,-20.52,-1.92,2.98,-1.66,-0.1,-2.18,25.7,1.29,-136.28,34.77,-39.6,29
-9.14,-13.35,6.38,-160.69,232.47,-14.7,5.32,-19.67,-1.12,4.98,0.68,-2.05,-7.57,15.11,8.1,-137.45,42.43,-28.66,29
-5.47,-24.62,0.77,-35.4,75.39,-38.28,5.31,-20.66,-0.97,2.39,0.93,-3.27,-9.58,6.93,14.66,-38.13,-17.97,-29.1,29
-5.63,-20.66,-0.58,26.51,48.49,0.34,5.81,-20.16,-1.09,-0.98,-1.76,-1.42,-9.11,9.52,15.78,-14.84,-5.96,-16.46,29
-5.64,-29.09,-1.07,52.34,7.71,7.71,5.0,-20.25,-1.38,-0.73,-1.03,-0.59,-10.87,1.31,9.92,138.23,-51.03,23.58,29
-7.87,-21.81,-2.44,299.07,19.04,97.41,5.43,-19.97,-1.25,2.69,-4.59,-4.74,1.79,13.58,-14.0,329.25,-86.28,106.1,29
-1.78,5.48,-7.21,559.77,40.43,208.54,6.3,-20.62,-1.06,8.01,1.81,0.59,11.38,26.8,-14.57,213.28,-76.03,85.99,29
-3.04,17.06,10.55,-63.28,-26.9,51.17,5.58,-19.92,-0.81,7.47,3.76,0.54,6.66,8.87,-14.43,65.53,7.37,5.18,29
-1.68,23.23,7.65,45.7,-18.51,46.09,5.93,-19.89,-0.06,17.58,8.79,-3.47,7.17,12.3,-16.38,45.46,9.08,3.17,29
-3.74,27.35,7.29,-14.75,-7.13,16.94,5.78,-20.82,1.53,49.17,24.8,-9.28,12.05,20.44,-18.28,-106.49,100.98,-52.25,29
-1.73,17.07,8.4,-261.18,16.89,-61.04,4.72,-16.91,5.07,66.11,18.75,-23.24,7.33,14.09,-16.45,-198.73,79.74,-85.06,29
-4.26,3.59,12.89,-266.16,63.18,-82.91,8.28,-18.1,6.98,5.81,-9.13,-28.08,3.22,12.45,-0.35,-160.01,29.79,-78.12,29
-3.37,-20.62,11.79,-175.44,20.02,-43.31,9.95,-17.81,7.13,20.95,-2.2,-20.85,-2.8,13.23,6.89,-64.55,13.72,-41.89,29
-9.81,-15.8,13.16,-20.8,-14.5,-7.52,10.34,-15.13,8.18,18.31,-3.61,-26.95,-1.7,18.56,7.7,10.11,2.93,-3.03,29
-8.25,-14.09,14.79,28.27,-10.35,7.76,11.79,-15.1,8.29,10.3,-1.71,-6.1,-0.0,19.62,7.28,21.14,-1.03,10.69,29
-7.75,-14.72,14.83,-0.93,-7.13,1.56,10.72,-14.9,8.33,-1.9,-1.9,0.15,-1.45,16.53,6.99,7.91,-1.61,1.22,29
-7.21,-14.28,14.74,4.15,0.0,8.79,11.06,-14.96,8.43,-0.49,-3.08,1.86,-0.22,17.52,6.88,0.29,1.71,-4.1,29
-7.49,-13.37,15.06,-7.96,-4.0,-10.64,11.42,-14.95,8.77,-1.47,-1.9,0.93,-0.85,16.21,7.03,-3.61,-2.83,-1.42,29
1.13,14.71,8.46,170.02,-26.27,-3.71,9.26,-13.7,13.19,-7.57,-10.69,-2.64,-0.54,-0.94,-20.87,9.67,12.3,5.91,30
0.91,16.72,4.16,87.6,-42.97,6.59,8.9,-13.01,12.72,-2.93,-12.16,1.37,3.83,-0.27,-17.59,-57.72,42.48,20.21,30
-0.04,16.39,-2.63,67.33,-13.04,19.82,7.94,-12.93,12.8,10.11,2.0,1.9,1.56,1.36,-19.72,-119.92,43.8,-15.19,30
2.58,20.38,-6.42,69.09,-20.26,17.82,9.65,-16.51,12.24,-2.25,-0.44,-0.83,7.61,7.03,-17.33,-125.34,74.46,-44.14,30
3.26,21.99,-9.56,4.0,-3.47,8.54,8.57,-14.04,12.01,-8.79,-0.68,0.49,11.24,11.07,-10.8,-93.7,32.18,-40.67,30
3.96,20.18,-6.69,-68.51,-19.24,-6.69,7.95,-13.81,12.54,1.37,2.98,3.13,6.47,11.18,-5.65,-66.46,30.47,-43.99,30
5.22,16.02,-0.5,-141.55,-30.22,5.86,7.11,-15.39,12.33,-4.83,-0.59,-0.98,6.68,12.46,-0.22,-42.04,10.3,-37.35,30
3.36,15.39,5.69,-177.1,0.78,5.52,9.73,-15.24,12.26,-4.49,-0.49,-2.69,5.24,15.81,-0.33,16.65,-11.43,-10.45,30
0.85,11.7,14.11,-175.63,16.06,13.09,8.59,-13.43,12.6,-0.2,0.88,1.76,4.99,16.79,-2.15,19.97,-7.81,4.35,30
2.68,1.99,20.75,-182.18,6.74,13.62,6.85,-15.04,12.45,-3.27,-1.42,-2.34,6.09,17.54,-1.65,19.63,0.68,14.55,30
-3.9,-6.2,19.69,-107.57,55.37,2.25,8.91,-15.18,12.81,7.91,-0.1,-2.64,5.34,18.13,-3.74,22.95,-10.4,3.32,30
-1.96,-4.97,19.9,8.69,16.75,0.24,8.2,-13.78,12.55,4.83,1.07,2.64,5.7,18.19,-3.28,-2.44,-4.2,-6.2,30
-0.09,-2.45,21.92,-0.49,-12.6,-1.32,8.06,-14.59,12.1,-3.52,-0.15,-1.56,5.79,16.83,-3.36,1.95,2.15,1.03,30
-0.3,-2.08,21.11,13.57,-19.09,0.54,9.4,-14.69,12.69,-1.07,-0.49,-3.66,6.11,17.35,-4.1,11.43,2.39,0.49,30
1.55,-0.49,21.9,35.69,-7.23,-3.42,9.21,-15.48,12.89,-2.1,3.37,-1.95,6.24,17.83,-4.46,8.59,3.37,2.54,30
-0.45,1.17,21.02,7.37,6.35,-4.69,8.21,-13.7,13.06,3.27,3.27,0.1,5.83,17.53,-4.68,2.2,0.73,1.17,30
-1.04,-1.71,20.77,4.2,-0.15,0.34,8.25,-13.97,12.6,2.1,1.56,2.44,5.58,17.01,-5.0,-1.86,1.86,-3.61,30
0.43,0.9,21.32,10.35,-1.66,3.22,7.9,-14.06,12.34,-5.62,2.98,6.74,5.48,16.45,-5.03,-2.05,0.05,-0.29,30
1.02,2.01,21.34,6.35,-4.49,2.25,7.47,-14.59,13.28,2.15,8.79,8.01,6.25,16.98,-4.14,9.91,0.68,2.69,30
0.88,1.32,21.38,4.15,-3.03,1.42,6.69,-14.64,12.3,-8.4,-0.68,-0.68,6.86,18.44,-4.93,10.3,0.1,-2.59,30
1.33,21.85,-1.11,78.03,5.86,29.2,0.39,-7.39,19.2,105.47,58.59,18.16,0.76,2.39,-19.95,52.78,25.68,4.2,31
2.36,21.89,-2.27,13.33,-2.73,15.58,-3.91,-3.27,16.22,138.04,88.28,43.31,3.26,2.48,-22.1,3.71,69.38,15.19,31
2.1,24.06,-4.58,-35.25,-7.28,1.12,-5.58,12.13,12.33,152.78,36.57,18.21,6.76,3.44,-18.68,-30.03,24.9,3.08,31
4.13,21.88,0.08,-100.2,-8.35,-14.16,-10.14,17.56,12.59,56.45,25.54,-11.62,8.92,3.79,-18.34,-82.18,24.17,-17.09,31
3.21,18.14,6.1,-175.88,-2.05,-17.58,-11.64,21.07,12.36,39.65,5.62,0.68,8.83,8.48,-17.58,-152.69,43.9,-53.71,31
1.03,13.24,8.49,-262.74,34.18,-19.38,-9.05,19.61,11.39,-39.01,-44.92,2.54,7.17,15.49,-13.12,-184.77,48.34,-75.98,31
-4.03,-11.01,10.18,-329.74,64.99,-40.58,-7.44,15.93,13.69,-98.39,-71.39,22.22,1.87,8.52,0.3,-188.97,48.68,-68.7,31
-10.05,-15.25,18.25,7.47,23.49,21.24,-1.29,5.99,13.44,-195.7,-67.92,52.25,-0.68,14.48,5.9,-21.24,26.07,5.22,31
-1.51,-13.85,22.52,7.23,-10.3,-5.52,3.93,0.91,8.67,-218.95,-84.47,86.72,0.73,20.72,6.62,13.77,-16.31,2.25,31
-4.25,-8.77,19.81,53.08,-0.44,12.4,10.83,-22.01,1.86,-255.86,-36.87,63.77,1.79,17.32,4.0,30.42,-5.66,-6.3,31
-4.86,-6.71,19.61,25.15,-19.53,9.62,7.67,-25.87,6.45,3.61,-15.97,0.2,2.18,17.63,3.2,24.22,2.69,1.66,31
-4.65,-6.1,18.97,22.07,-8.2,18.85,9.42,-21.48,4.47,18.65,16.65,6.74,1.63,17.91,2.2,15.77,13.04,-1.86,31
-3.89,-3.74,19.96,17.33,2.93,17.43,6.2,-16.05,7.08,38.38,9.86,8.59,0.72,21.56,1.02,-0.39,16.89,-2.25,31
-2.16,-1.63,21.59,25.49,-19.29,16.6,7.69,-15.93,8.11,24.71,7.32,-2.88,-0.23,23.18,-0.29,14.6,25.2,3.61,31
-3.66,-5.35,21.28,1.32,-20.26,9.86,6.7,-16.11,8.07,29.1,1.07,5.08,1.21,20.84,1.39,15.48,15.23,8.69,31
-4.54,-4.17,21.11,8.84,-12.6,14.6,5.75,-19.01,7.98,-8.25,-4.54,0.93,2.93,18.62,2.24,14.11,7.76,1.86,31
-4.91,-5.56,21.33,2.25,-5.27,16.26,4.84,-18.0,9.04,-15.19,-1.9,10.21,2.44,18.57,3.02,-4.39,13.23,-1.07,31
-4.66,-2.8,21.67,22.61,-9.28,3.42,6.72,-19.75,9.62,0.63,-0.78,19.97,1.62,18.88,0.95,11.91,1.71,8.25,31
-5.51,-0.17,21.1,23.39,1.22,-11.57,8.27,-18.28,8.96,-3.32,-4.25,11.67,2.19,18.6,-0.96,5.22,-11.72,-3.66,31
-5.93,1.81,20.21,22.17,-4.83,5.37,7.84,-20.27,9.21,-10.16,-14.5,11.38,0.74,18.45,-2.61,11.43,-1.81,1.22,31
-3.17,17.56,-7.49,-24.27,10.25,1.9,-13.61,20.82,0.59,-50.05,-13.92,14.84,4.56,3.36,-16.98,-23.88,20.41,-4.83,32
-3.47,19.1,-6.27,-17.38,-8.35,10.11,-5.72,15.43,4.76,-289.99,-163.13,41.75,10.06,11.72,-22.08,-200.1,166.16,7.42,32
-3.79,25.04,-5.99,7.76,-1.07,12.11,9.77,-1.35,10.42,-421.0,-108.5,44.29,4.83,8.5,-15.23,-199.51,103.03,-68.31,32
-3.23,26.53,-3.71,-50.2,2.29,13.53,3.2,-24.28,11.45,-59.96,-28.17,20.31,4.38,10.9,-0.85,-63.62,23.78,-43.12,32
0.11,18.98,5.35,-275.29,-55.96,54.83,4.68,-14.04,12.84,-10.35,-6.88,-5.27,5.1,19.02,1.19,10.3,3.17,0.98,32
2.47,8.82,13.64,-283.01,22.12,5.08,5.6,-15.8,13.15,0.93,1.03,-6.4,5.68,18.48,0.88,-10.11,5.52,-0.73,32
-9.05,-6.59,15.77,-110.21,52.59,-1.37,4.21,-14.89,12.67,-3.52,-8.64,2.05,7.31,18.62,1.93,2.29,-0.68,-1.46,32
-2.97,-2.1,20.21,2.73,10.99,1.42,4.41,-15.44,13.43,8.45,-5.62,-2.59,6.23,17.04,0.87,7.67,0.34,3.47,32
-0.8,-2.92,22.73,-2.49,-2.15,-7.08,3.88,-16.3,13.03,-6.45,-5.27,1.56,7.61,17.31,0.9,-3.03,2.44,0.93,32
-1.29,-2.02,20.46,-5.13,-3.12,5.13,4.38,-16.89,13.2,10.6,1.51,-0.15,7.78,16.27,1.45,9.72,-10.35,2.25,32
-3.1,-3.24,20.82,2.44,-0.73,1.42,4.31,-15.12,12.87,0.59,-0.68,0.63,7.15,17.07,0.58,3.66,-1.22,1.66,32
-1.03,-2.88,21.81,-7.57,-2.15,3.81,4.33,-16.35,13.13,4.88,1.66,-0.88,6.25,16.08,-0.01,1.76,-1.56,0.88,32
-1.2,-3.87,21.41,4.98,2.88,-1.32,3.87,-16.34,13.3,-2.25,1.76,-1.37,7.67,18.0,0.51,3.17,1.9,0.63,32
-0.4,-2.26,21.65,5.08,-2.15,1.86,4.07,-16.75,13.06,8.94,5.66,-0.78,7.1,16.68,0.11,4.59,-2.73,0.39,32
-1.58,-3.06,20.8,5.37,-2.25,1.76,4.83,-15.6,14.13,-0.98,-3.71,-2.15,7.22,17.5,-0.17,2.49,1.22,0.54,32
-1.92,-1.93,21.13,2.78,-0.88,0.73,3.61,-16.26,13.58,-8.3,-0.49,-0.29,7.04,17.63,-0.55,-0.1,6.59,0.88,32
-1.7,-3.03,21.04,11.57,2.1,0.24,3.95,-16.51,12.91,-8.94,0.98,1.76,7.1,18.33,-0.26,-1.66,3.27,-0.73,32
-1.44,-1.74,21.25,2.2,-0.54,2.1,3.73,-15.76,12.88,-1.47,-1.66,0.54,7.31,17.05,0.43,1.12,3.32,1.37,32
-0.76,-0.82,21.66,1.42,-3.32,0.68,3.6,-17.44,12.82,-0.0,0.29,-0.93,6.89,16.35,0.22,-4.15,3.22,0.63,32
-0.04,-1.62,22.0,-4.39,-2.49,-0.54,3.9,-16.35,13.19,2.44,0.93,-2.54,7.18,17.17,-0.19,2.93,-0.73,4.39,32
-2.39,-2.1,21.99,102.0,30.03,9.28,-5.15,10.19,2.44,274.17,63.87,-3.32,8.68,16.51,-1.93,-0.68,-39.21,-8.69,33
-2.87,3.71,16.62,114.45,21.73,-0.78,-10.7,38.0,-11.69,206.98,43.21,13.28,11.83,15.77,-2.82,-4.3,-19.43,-5.27,33
-1.86,9.5,10.93,170.07,-19.87,16.89,-7.37,22.74,-7.07,-53.32,-25.24,13.43,7.52,16.71,-4.3,-1.66,7.47,-5.32,33
-1.41,13.8,4.05,159.08,-44.78,31.1,-0.36,18.76,2.12,-86.47,-31.79,27.93,6.0,16.79,-3.97,3.76,3.56,-1.81,33
-0.94,14.89,-6.81,166.89,-9.28,11.23,0.5,23.55,1.71,-226.81,-44.29,81.3,6.07,17.39,-4.39,4.1,-3.32,-1.61,33
-1.1,23.54,-13.66,14.94,-1.76,13.48,8.86,9.02,14.09,-277.25,-42.97,9.42,7.18,16.57,-3.73,-3.66,-1.76,-2.05,33
0.15,17.27,-8.48,-85.45,-18.55,13.38,1.48,-21.46,12.97,-218.36,3.96,33.94,7.02,15.31,-3.69,-5.76,-2.2,-2.73,33
2.77,19.47,-2.72,-93.41,1.56,26.22,6.33,-15.91,14.68,40.19,-10.5,20.51,5.88,16.09,-4.71,-0.0,1.86,-0.59,33
4.45,14.29,2.45,-297.02,17.92,64.21,1.03,-6.52,16.79,4.2,-1.95,8.84,6.83,17.07,-4.5,3.52,-2.1,2.88,33
4.67,4.21,15.79,-246.78,19.68,-18.12,4.58,-13.63,18.15,-12.55,-8.94,-6.79,7.01,16.42,-4.53,-2.39,3.42,-1.51,33
-3.75,3.31,20.63,-93.26,70.02,20.21,5.18,-13.97,17.14,-34.18,8.98,-5.71,6.3,16.11,-4.2,-0.29,3.56,-1.17,33
0.27,-2.18,20.24,29.83,16.26,26.61,3.31,-13.79,15.99,-11.28,14.45,-4.88,6.53,16.79,-4.76,2.83,-1.12,-2.98,33
-3.17,9.66,19.32,-11.57,0.29,5.03,3.0,-11.92,16.31,10.06,11.08,-0.15,6.06,18.39,-5.16,4.59,5.32,3.03,33
-0.16,4.56,22.34,2.69,-17.24,0.63,1.92,-9.92,16.0,-15.72,13.53,-2.0,6.37,17.39,-4.58,-2.05,2.64,-2.69,33
-0.72,1.83,21.62,-17.24,6.64,-21.24,1.92,-12.19,15.03,10.64,6.98,-11.18,6.53,16.6,-4.22,6.45,-0.1,-2.39,33
-1.87,2.3,21.18,7.13,7.03,-15.14,3.63,-14.94,15.36,-10.3,2.64,-5.08,5.82,15.76,-4.51,-2.93,0.54,0.63,33
-3.02,4.18,20.57,13.92,11.47,-5.42,4.21,-13.85,15.47,-13.33,-1.95,-6.15,6.29,16.91,-5.0,5.03,0.29,0.34,33
-4.4,3.18,19.42,-17.58,12.4,2.29,3.94,-14.28,16.24,0.63,0.29,2.78,6.67,17.26,-4.81,5.96,2.64,-0.34,33
-2.61,1.39,21.23,-3.91,-6.93,-10.3,2.76,-15.46,14.43,-7.32,2.83,-2.05,6.37,16.25,-5.36,6.2,2.0,-1.22,33
-1.98,1.33,21.48,-6.49,-2.64,-15.23,1.98,-14.07,14.78,5.27,5.81,0.29,6.61,16.53,-4.96,3.03,2.54,2.88,33
-8.58,3.18,20.81,8.59,10.01,-3.12,1.07,-19.12,17.27,13.13,0.24,-3.81,6.19,5.77,-17.87,115.04,-56.05,61.28,34
-6.23,1.56,16.05,118.02,-16.55,4.83,3.38,-17.88,14.72,134.42,59.08,-35.06,3.49,1.96,-16.67,73.63,-35.5,26.66,34
-2.29,12.52,4.18,285.6,-31.54,4.44,-1.19,-2.41,9.9,323.88,119.29,-41.89,3.56,1.75,-22.39,27.34,23.54,6.88,34
-3.33,22.4,-5.15,159.86,1.27,-4.93,-12.52,25.91,-4.79,339.01,83.98,-34.86,3.78,0.38,-16.69,-39.99,38.48,4.74,34
-2.79,18.16,-8.12,91.94,15.82,11.62,-9.1,16.47,-0.83,37.4,39.6,-6.93,5.21,8.36,-23.49,-121.05,82.67,-57.08,34
-4.51,25.91,-13.37,-2.44,10.45,15.63,-9.58,30.15,-6.25,-1.37,-21.19,8.64,9.36,6.84,-15.84,-147.56,95.65,-67.87,34
-6.0,21.21,-8.19,-86.91,-15.33,7.86,-9.67,19.13,0.21,-104.69,-74.71,38.48,10.01,14.56,-8.74,-85.11,84.57,-49.17,34
-2.29,23.45,-2.83,-193.07,-23.34,-5.96,-5.37,17.83,5.17,-239.65,-80.57,79.05,5.59,12.18,-2.23,-33.2,19.24,-47.36,34
0.94,13.22,6.17,-226.03,9.47,14.01,0.71,1.95,14.53,-253.76,-73.34,84.57,3.22,17.67,0.16,-2.59,-4.88,-34.77,34
-0.06,10.63,15.75,-156.4,-8.74,31.1,7.68,-5.24,18.87,-183.06,-61.57,54.0,3.86,20.92,-0.15,-26.17,13.09,-14.84,34
-1.51,-3.46,19.32,-116.31,34.42,2.93,4.0,-18.22,14.04,-116.02,5.27,30.71,4.0,18.84,0.54,-9.67,3.27,-2.49,34
-1.74,-1.67,20.53,-23.97,-18.26,2.54,2.81,-15.35,13.05,-10.06,-0.88,16.5,3.44,16.28,1.91,5.03,-1.76,2.39,34
-1.66,2.42,20.9,-37.94,-11.28,-2.34,3.95,-18.12,11.93,-60.55,10.3,8.06,4.1,18.73,0.83,5.08,5.13,1.07,34
-2.29,-4.16,21.83,-11.77,-11.38,5.62,5.84,-16.69,10.66,-10.25,2.73,9.77,3.52,19.48,1.15,2.59,0.1,-1.66,34
-4.52,-6.47,21.05,-2.44,-13.72,1.27,4.63,-18.38,11.16,7.47,0.05,0.1,3.63,17.89,1.22,11.13,-4.39,4.2,34
-2.21,-3.9,21.14,3.71,-7.08,6.54,5.83,-16.12,11.95,5.62,2.88,-2.59,4.65,19.91,0.88,-1.42,9.47,5.52,34
-2.76,-5.51,20.93,-6.74,5.76,-1.86,4.3,-16.21,10.9,15.72,8.98,0.78,4.55,18.87,1.35,8.64,-0.98,3.71,34
-2.88,-4.17,20.44,1.56,-5.66,-0.2,3.56,-17.16,11.69,-3.47,-3.37,-2.0,3.74,17.25,0.58,6.45,-6.64,0.24,34
-2.32,-3.73,22.22,-8.3,-10.5,4.88,5.68,-18.41,12.27,-0.68,-1.03,-1.51,4.33,18.1,0.06,1.71,2.69,2.39,34
-1.06,-4.25,21.22,7.71,-10.69,2.29,5.21,-16.91,11.93,3.03,3.13,1.86,4.29,18.64,0.06,-0.24,0.93,1.42,34
-5.38,-4.24,13.45,281.2,48.97,-30.22,-7.28,21.44,-5.61,459.33,89.55,69.14,4.53,4.86,-16.35,51.61,-76.71,-12.11,35
-0.73,29.36,-0.39,257.23,-2.0,33.01,-6.09,19.34,4.8,-1.47,15.67,-16.41,1.12,6.24,-18.29,69.92,-9.18,12.3,35
-1.79,22.83,-1.77,111.33,6.79,21.04,-10.11,27.53,1.52,41.65,-5.03,7.71,2.87,3.29,-20.09,7.47,-3.52,12.74,35
-2.45,24.73,-3.83,30.13,-8.3,5.91,-7.99,18.34,4.19,-93.02,-28.17,2.25,3.95,2.83,-18.54,-62.65,24.17,13.67,35
-1.65,19.74,-1.35,-75.24,-13.28,-4.64,-3.7,14.8,9.26,-220.41,-99.02,58.94,15.45,13.68,-17.22,-93.41,104.35,5.32,35
0.79,22.05,5.38,-169.38,-29.59,28.03,2.11,2.34,14.47,-311.38,-62.16,68.7,6.49,7.1,-12.78,-134.18,97.85,-46.87,35
5.19,13.9,10.1,-231.45,16.7,45.7,1.25,-15.4,13.56,-239.21,-19.43,26.86,6.07,15.82,-6.17,-67.24,36.38,-39.55,35
-1.96,10.72,18.52,-133.94,24.56,0.29,3.72,-18.36,12.84,-78.27,-6.3,5.86,1.94,14.48,-3.75,-52.34,15.87,-28.37,35
-5.4,1.37,20.47,-75.88,11.47,0.34,3.79,-13.67,13.82,16.45,3.22,-8.15,5.63,18.37,-1.73,-11.72,3.66,-9.23,35
-5.37,-3.92,20.21,2.29,0.05,0.39,0.94,-20.73,10.32,-24.46,-2.15,-2.15,4.2,17.78,1.11,-30.66,-1.07,-16.75,35
-4.05,-7.0,19.98,-65.58,21.14,-15.62,1.87,-20.71,11.26,17.92,6.93,1.27,2.37,17.05,0.39,2.73,-1.12,-5.57,35
-3.38,-7.68,20.51,-8.98,-15.09,-5.86,0.02,-13.95,10.76,1.17,3.52,-3.32,2.42,18.87,-0.49,-0.78,1.12,-4.0,35
-3.99,-3.34,19.94,29.74,-6.54,0.34,5.16,-17.79,13.51,-6.93,-9.52,-2.29,3.13,21.17,-0.54,-13.28,15.97,-10.35,35
-1.79,-5.19,21.52,-9.38,-6.01,-1.66,3.76,-15.22,13.35,29.25,8.79,-8.06,3.54,16.84,0.11,11.33,-12.65,-6.25,35
-1.56,-5.96,21.07,11.87,-4.49,-11.08,4.52,-15.84,13.22,-12.94,-1.9,-7.67,2.22,18.54,0.1,-4.74,4.74,-0.54,35
-1.16,-1.59,20.11,9.81,-8.45,2.59,3.63,-15.62,14.03,9.52,-9.42,-8.5,4.62,20.08,1.35,22.7,-3.52,17.33,35
-0.46,-5.96,21.57,1.46,-17.38,-8.94,4.77,-18.04,13.22,-4.54,5.47,-1.71,2.75,18.3,0.23,-11.04,4.69,-8.89,35
2.18,-3.41,22.56,-6.1,-14.7,-4.35,3.75,-15.04,12.59,-5.57,3.56,3.13,1.78,19.4,0.64,0.54,5.27,-8.15,35
0.74,-3.84,21.11,7.57,-2.69,2.2,4.03,-17.13,12.43,-1.71,-4.3,-0.78,3.96,18.28,1.89,-0.34,0.15,0.78,35
-0.89,-5.66,20.01,-8.64,-0.2,-2.15,5.44,-17.62,12.86,-1.07,-5.27,0.49,2.24,19.17,0.55,-5.32,16.8,-1.51,35
-1.13,-1.8,19.08,111.03,-12.21,13.13,-0.38,29.21,3.2,147.22,-0.29,-7.62,4.27,12.76,-6.27,81.84,-21.04,54.79,36
0.01,5.95,10.88,232.18,-5.71,-12.45,-1.69,22.6,4.42,14.6,-2.64,1.86,6.75,8.72,-15.1,161.18,-86.62,70.9,36
3.43,27.55,2.61,207.08,-55.22,-2.39,-0.35,21.96,4.51,-53.81,-17.43,20.95,9.36,9.8,-16.45,80.81,-39.99,53.13,36
0.14,20.53,-0.77,90.97,20.95,7.18,4.05,16.82,7.48,-175.34,-71.14,121.29,8.37,1.52,-16.25,25.24,-15.53,14.6,36
1.19,24.03,-2.59,12.99,-1.61,2.0,14.67,1.54,10.8,-264.5,-96.83,120.95,5.54,2.06,-19.9,1.95,-3.96,3.96,36
1.35,21.06,-0.32,-56.2,-3.37,0.2,8.7,-10.48,11.5,-169.87,-3.12,56.45,5.35,1.98,-18.45,-49.9,18.31,-8.84,36
2.1,22.15,4.5,-163.48,-23.1,48.14,14.9,-9.51,12.89,-8.25,-17.29,31.05,10.53,12.63,-17.79,-121.48,96.88,-27.05,36
7.19,10.04,12.68,-212.45,18.6,63.53,12.9,-10.7,12.09,-28.03,-9.86,22.85,6.76,9.19,-12.75,-129.83,96.14,-64.31,36
2.08,8.56,16.31,-71.97,59.13,18.16,10.68,-18.88,7.23,-64.4,5.86,45.26,7.07,18.49,-5.7,-53.71,32.03,-54.93,36
1.86,-1.21,21.42,-73.58,20.85,4.44,6.26,-19.35,6.19,-34.13,9.28,27.44,4.72,16.76,-4.43,-17.82,9.86,-32.08,36
2.11,4.15,20.49,-39.31,19.87,-0.68,7.42,-17.7,8.56,1.95,-4.54,-4.79,5.99,18.97,-3.55,-36.52,8.25,-25.59,36
3.36,-4.4,20.61,-111.38,29.69,-6.45,12.03,-17.27,8.3,-0.54,4.0,0.73,4.13,18.1,1.13,-51.17,5.62,-37.7,36
-1.88,-8.93,18.05,-22.46,45.8,7.18,8.32,-13.7,10.05,9.47,-1.71,0.15,-0.94,16.25,2.82,-22.07,6.49,-37.4,36
-2.92,-6.89,20.2,16.55,-3.56,1.22,8.31,-21.35,5.5,-25.34,26.12,2.64,0.46,21.02,1.7,10.74,2.15,6.15,36
0.32,-7.58,22.65,-9.08,-15.62,-2.0,8.36,-16.57,6.4,7.03,-2.29,-10.25,1.97,20.68,1.72,2.88,-0.2,2.25,36
-2.05,-4.92,20.66,20.51,4.0,0.44,9.95,-18.13,7.29,9.13,4.59,-3.86,2.72,20.38,1.33,4.83,-1.07,-4.54,36
-2.32,-6.3,19.73,-80.91,-3.17,-26.07,9.9,-15.76,8.34,6.54,8.3,-3.86,-1.22,15.09,1.81,-36.82,0.73,-13.18,36
-3.55,-9.75,18.06,36.28,3.32,1.12,7.09,-17.75,8.27,10.69,8.74,0.34,0.69,18.87,4.33,8.84,-1.61,7.42,36
-1.29,-10.97,19.83,3.32,0.54,-1.95,8.39,-16.67,8.9,10.69,2.83,-3.17,1.42,19.07,3.53,3.27,1.17,4.39,36
-1.78,-7.64,20.45,25.49,2.39,3.81,8.64,-15.46,9.96,7.18,7.03,0.78,1.83,20.7,1.9,17.04,-3.42,3.52,36
-2.8,-8.42,22.25,60.94,-10.89,10.3,11.28,-16.22,9.23,-3.27,-3.37,-2.59,3.02,16.07,-3.7,90.77,-13.23,30.66,37
-1.58,1.47,16.79,171.39,-7.28,23.34,10.2,-16.24,8.38,-1.37,2.1,-1.61,2.16,8.74,-13.07,107.08,-44.38,52.44,37
-1.96,12.69,8.91,210.16,-8.64,-12.06,10.06,-14.63,9.34,6.84,-0.73,-1.42,7.83,9.91,-16.08,108.15,-59.77,40.48,37
3.11,21.91,5.28,106.35,-60.3,23.0,10.94,-15.06,9.57,-4.44,-1.42,-2.1,2.49,7.18,-20.32,72.27,1.95,16.55,37
3.24,20.75,3.76,93.85,-20.31,12.65,11.53,-16.79,8.71,-2.2,4.64,-0.88,5.32,6.29,-18.91,67.04,-4.25,7.18,37
4.81,22.88,1.72,41.45,-8.54,14.7,9.53,-14.41,9.18,6.45,3.56,-1.07,3.21,2.24,-21.17,13.82,3.27,-8.45,37
3.32,24.59,-0.52,-5.52,-2.05,4.74,10.08,-14.01,9.51,1.17,0.24,-1.81,3.83,3.21,-19.92,-47.51,28.42,-7.81,37
3.11,25.23,0.6,-88.18,6.1,30.27,11.58,-15.13,9.96,-3.13,0.73,-4.05,10.9,13.94,-19.82,-134.42,128.47,-13.72,37
8.34,14.98,8.24,-220.51,21.97,60.06,11.05,-15.33,9.2,6.2,0.24,1.12,8.93,10.4,-12.45,-108.5,68.16,-47.22,37
6.42,6.38,14.7,-145.8,68.7,12.26,10.32,-14.03,9.77,0.24,0.0,-2.88,7.62,14.63,-3.63,-66.46,20.21,-56.01,37
0.8,-0.54,17.66,-124.76,43.99,13.48,10.36,-14.36,9.93,1.03,1.17,-0.93,4.93,15.07,-0.82,-57.72,19.97,-34.08,37
0.34,-7.39,19.16,-63.33,29.39,18.21,9.66,-14.97,9.15,5.91,5.42,-1.61,2.36,15.14,0.99,-38.53,11.38,-31.4,37
-0.26,-7.26,19.97,-12.79,21.63,-3.66,10.42,-13.88,10.49,7.28,2.49,-1.51,4.18,18.78,2.27,-8.01,-11.57,-3.27,37
0.89,-7.32,21.34,-28.96,-14.11,-1.56,11.1,-15.03,10.4,-2.0,-1.61,-0.1,3.86,18.47,2.26,16.8,-13.28,3.13,37
1.49,-5.31,21.03,36.47,13.28,-11.87,10.98,-15.67,9.52,-0.0,-1.81,-1.27,2.11,17.47,1.56,-7.32,-16.7,-6.74,37
0.63,-7.98,20.13,7.62,3.08,-7.37,10.14,-13.29,10.47,6.59,1.37,-0.63,1.63,17.41,1.97,-11.87,2.59,-8.06,37
0.44,-10.2,19.05,-2.93,0.73,-10.11,11.15,-15.17,10.4,-6.69,-2.73,-2.05,4.16,20.13,2.55,12.5,-0.63,4.44,37
0.45,-6.78,20.64,-7.86,-0.63,0.44,10.64,-15.66,9.76,-6.98,2.29,1.56,2.71,18.65,1.35,0.15,0.59,-3.66,37
0.66,-5.31,20.3,-0.44,-1.95,-0.98,10.75,-14.52,10.26,8.94,2.34,-0.54,3.16,17.96,2.14,-6.54,0.2,-1.37,37
-0.44,-8.9,19.43,2.05,10.64,-0.24,9.94,-14.16,10.69,-2.15,3.27,-0.59,2.67,18.89,2.76,1.66,2.1,1.71,37
0.15,-8.95,19.35,-6.49,-0.15,-2.1,8.73,-17.04,8.63,4.93,1.32,-1.76,-0.6,18.52,1.72,2.25,4.39,-6.2,38
-0.18,-9.04,20.25,-2.49,-4.1,0.83,8.27,-17.78,7.78,-7.86,2.83,0.49,0.1,19.25,3.03,-8.35,2.49,-4.83,38
-0.38,-8.12,19.57,2.1,-2.78,-1.76,8.84,-18.94,7.19,-5.57,2.0,-1.56,-1.17,18.69,3.39,-8.79,6.98,-7.32,38
-1.06,-7.99,19.94,6.74,0.63,0.54,9.9,-25.58,6.32,45.36,39.36,-28.96,-4.19,15.81,1.66,53.47,-16.36,14.31,38
0.19,-9.31,20.02,-9.28,2.88,-3.76,7.22,-11.26,10.66,160.3,63.82,-76.12,0.67,20.25,-8.67,169.58,-54.0,47.9,38
-1.0,-10.9,19.62,-6.2,3.56,-1.03,4.57,-0.17,13.1,164.5,41.85,-57.42,2.73,14.91,-11.85,120.17,-47.95,30.71,38
-1.61,-15.88,19.1,49.46,4.2,-16.7,5.2,5.87,9.05,238.38,-20.12,-18.75,2.92,5.33,-14.81,102.2,7.81,-4.88,38
-1.38,0.54,16.07,243.85,-3.86,-11.08,5.07,24.53,2.09,162.26,8.35,-39.36,3.53,4.45,-19.53,132.23,14.21,14.6,38
0.28,13.67,12.25,195.17,-26.37,10.5,10.04,23.93,2.34,54.54,-11.96,-1.37,3.9,1.17,-21.93,45.8,15.77,7.03,38
2.44,13.73,5.38,154.15,-24.22,41.7,6.37,23.83,2.56,-51.17,10.3,11.52,3.06,2.46,-21.16,-32.86,7.57,-2.2,38
8.04,18.7,1.07,105.96,-61.77,25.2,9.76,20.99,4.89,-117.87,-5.76,67.92,6.54,5.64,-20.18,-81.2,28.81,5.71,38
8.8,23.94,-4.2,75.93,-14.55,21.44,10.44,10.78,8.82,-181.54,-18.41,103.66,11.96,10.76,-15.67,-123.1,55.71,-1.61,38
6.78,23.25,-1.71,-36.91,12.21,-0.54,8.72,-4.81,11.72,-222.12,-1.07,108.4,11.24,13.17,-9.71,-94.38,52.59,-30.91,38
7.27,20.49,3.09,-88.28,28.52,24.76,8.84,-10.71,13.19,-64.89,4.83,61.57,6.28,12.53,-6.82,-71.09,16.02,-42.68,38
8.39,18.28,5.68,-161.43,37.5,41.89,7.48,-10.98,9.67,-123.14,22.8,74.46,5.35,15.67,-3.62,-93.41,24.66,-52.98,38
9.62,7.43,12.62,-133.45,54.1,55.18,5.59,-27.34,10.54,-1.17,-17.09,-7.47,-0.41,13.86,0.09,-19.87,4.25,-16.8,38
2.68,1.38,18.09,-120.65,50.98,5.62,3.98,-17.51,8.26,1.66,23.88,5.66,1.88,22.63,1.03,27.1,-17.82,1.22,38
5.92,1.22,17.77,-109.03,57.42,21.0,4.89,-16.41,9.39,1.95,6.64,4.88,1.07,16.67,0.52,-16.41,7.86,-19.09,38
-9.09,-16.31,19.64,-102.49,20.41,-12.65,8.19,-15.69,11.14,7.13,13.09,-16.36,0.71,17.74,-0.95,11.52,-2.25,2.34,38
4.44,-6.35,22.3,28.47,4.2,-20.36,7.87,-16.36,11.33,-1.22,0.44,-2.93,3.51,20.88,-0.64,12.5,-10.64,6.88,38
1.21,-13.07,18.7,-3.91,-3.91,2.54,6.04,-19.46,5.66,4.44,0.98,5.57,1.09,4.41,-19.07,95.85,-1.76,8.59,39
1.03,-12.13,17.39,2.1,6.45,4.25,4.67,-18.26,6.13,-1.22,-1.17,1.61,-0.65,1.81,-20.84,8.5,7.91,-1.22,39
-0.68,-11.3,17.47,1.81,1.22,5.32,5.69,-20.65,5.12,-19.38,-4.49,-6.98,2.17,2.63,-19.74,-76.42,27.2,8.4,39
0.59,-13.45,18.42,-12.94,-12.35,-3.86,6.36,-19.89,5.18,3.81,-0.24,1.07,6.97,11.64,-19.47,-152.83,113.53,1.27,39
1.0,-12.96,17.99,0.44,-3.52,0.63,4.62,-18.14,5.86,8.35,0.34,1.81,4.7,9.14,-11.86,-95.56,50.44,-38.92,39
-0.42,-11.65,17.48,11.28,2.0,4.05,5.66,-19.82,6.07,-7.03,0.54,-4.64,7.23,16.07,-6.12,-75.1,27.78,-30.71,39
-0.38,-12.45,18.39,-6.15,-4.98,-4.83,6.77,-23.44,5.09,-0.59,9.52,-8.64,3.42,16.52,-3.14,-72.56,22.75,-39.21,39
0.24,-15.1,18.63,2.64,1.07,-8.98,4.02,-27.82,5.23,156.93,76.12,-63.38,1.19,16.19,-0.45,-20.07,-8.59,-18.12,39
-3.42,-19.39,16.24,178.56,9.28,-52.78,2.35,-6.77,10.65,299.51,65.67,-75.83,2.82,20.75,0.23,8.59,-9.57,8.4,39
1.14,7.52,11.98,342.19,11.52,-14.4,3.88,8.16,9.98,240.23,2.2,-34.47,2.71,18.98,0.34,6.4,-9.47,-3.61,39
3.86,16.13,6.63,144.63,-55.03,10.16,1.49,24.88,0.07,253.86,5.08,-33.59,3.31,19.04,-0.59,10.6,-7.86,-4.79,39
2.25,23.28,-2.12,179.05,-11.18,15.19,2.8,22.39,3.75,31.74,-4.25,5.52,2.48,18.0,-2.06,9.03,-4.44,-2.64,39
6.18,23.0,-2.43,44.58,-3.76,12.35,2.22,22.7,3.47,-77.83,-8.74,20.31,2.99,17.23,-2.25,22.12,-17.09,-1.03,39
3.56,23.51,-2.39,-65.38,3.96,9.13,2.11,20.12,5.51,-142.14,-2.15,102.83,2.88,17.43,-2.78,4.49,-3.76,-4.93,39
6.1,23.51,2.16,-130.32,24.27,63.87,10.65,2.23,10.56,-305.18,-28.32,98.29,2.88,18.13,-2.96,12.01,-3.86,-4.35,39
6.64,7.37,10.06,-222.8,21.09,47.71,7.46,-10.98,13.42,-160.06,0.63,65.53,1.78,18.83,-3.88,-2.15,1.56,-0.93,39
2.7,8.27,15.71,-118.41,77.49,8.94,8.93,-15.03,11.79,-124.22,-4.93,58.4,2.88,19.12,-2.66,2.44,-0.05,-1.07,39
2.8,-1.16,19.41,-132.03,33.4,14.31,5.47,-19.98,10.77,-39.11,12.11,15.97,1.65,18.61,-3.5,3.76,1.32,-5.76,39
-1.22,-9.72,19.77,-71.24,30.32,-0.15,5.86,-16.96,10.35,7.13,4.69,-15.72,1.53,18.36,-3.54,-1.32,3.08,-3.17,39
-0.47,-7.48,20.59,14.65,-9.72,-13.67,8.85,-20.04,9.98,2.15,6.01,-3.61,2.06,19.64,-3.57,-0.54,2.39,-2.49,39
3.11,9.54,8.23,163.28,1.76,20.75,1.2,21.2,-2.79,51.46,-3.08,6.2,-0.29,-2.33,-18.84,29.15,5.03,1.56,40
3.31,21.32,-2.4,164.16,-11.13,30.03,-1.24,21.7,-4.56,-27.93,2.93,6.01,-1.15,-5.02,-19.05,-27.83,9.18,0.54,40
3.83,21.01,-5.7,96.14,-6.2,24.27,2.55,19.86,0.28,-53.81,-11.23,21.53,0.1,-0.34,-20.17,-50.05,27.88,6.69,40
3.94,18.78,-6.71,33.54,-11.52,16.99,2.39,24.94,0.36,-109.96,6.79,17.14,4.35,3.85,-20.41,-96.14,24.27,-0.68,40
1.68,18.6,-8.28,-28.08,9.38,0.29,6.84,14.86,7.91,-156.4,-12.84,26.27,8.39,5.4,-15.67,-100.73,17.87,0.05,40
4.57,18.75,-4.05,-55.42,-7.71,10.01,8.95,9.84,12.79,-184.62,-5.13,54.0,5.56,5.96,-15.11,-135.11,39.01,-30.47,40
3.13,22.1,-2.77,-103.96,19.78,-12.06,9.52,2.14,16.01,-189.89,-21.87,50.44,7.94,13.31,-10.18,-83.55,34.72,-14.55,40
5.81,16.41,5.09,-124.95,3.13,-9.77,8.41,-15.28,15.37,-130.66,0.44,39.6,7.0,15.82,-7.06,-53.76,17.33,-27.49,40
4.34,10.14,11.22,-151.61,20.75,9.23,6.08,-10.34,13.97,-39.99,15.58,16.36,4.64,17.49,-3.55,-31.35,-6.01,-27.34,40
2.49,9.67,17.63,-115.09,22.95,11.43,6.5,-14.43,12.58,-40.04,-5.66,10.99,2.89,18.36,-2.28,-27.15,7.96,-11.47,40
1.42,4.37,19.2,-60.35,52.83,5.96,7.25,-14.17,12.58,-22.8,-0.1,-7.08,3.61,19.61,-0.54,-5.08,8.06,-4.74,40
0.56,-0.02,20.1,-58.5,38.09,-18.16,7.0,-15.83,12.45,-5.13,14.65,-2.73,1.6,19.82,0.03,-2.1,-7.62,-14.79,40
-0.96,-0.4,20.23,-44.19,2.29,-4.15,6.53,-16.45,13.03,0.2,7.03,-3.96,1.29,19.19,0.43,11.82,-6.3,-5.42,40
-0.87,-3.23,21.31,-3.27,-16.5,-9.72,6.23,-13.47,12.71,25.88,23.83,-11.96,2.8,23.68,-0.29,59.23,-21.19,11.38,40
-1.49,-3.84,21.6,-1.95,2.93,-10.79,5.81,-15.22,13.64,-5.71,-1.32,0.34,0.11,19.25,-2.55,4.59,8.94,-3.03,40
-0.87,-3.34,22.13,12.16,2.25,-8.11,6.5,-16.5,13.85,-6.4,2.83,-1.46,1.28,18.83,-1.8,-7.08,1.9,-1.95,40
0.6,-3.08,20.74,33.4,2.88,-12.01,6.73,-15.8,13.2,-3.42,-0.44,-0.68,1.41,19.53,-1.7,-3.08,0.68,-1.12,40
-2.04,-2.1,20.73,0.24,0.0,4.05,5.14,-14.33,13.94,1.32,0.73,-2.1,1.24,18.62,-1.65,2.88,3.37,-3.03,40
-0.67,-1.83,21.66,-9.86,-4.74,1.03,6.96,-15.67,14.43,-5.96,-4.79,-3.08,2.58,19.03,-1.26,-1.95,0.63,2.44,40
-1.31,-1.2,21.0,4.64,-0.54,0.49,6.41,-15.32,13.78,-9.86,1.66,3.61,1.45,19.45,-2.28,-5.71,4.59,-4.35,40
5.13,16.97,5.7,192.97,-45.75,-0.63,7.47,21.19,2.41,-118.75,-18.21,75.98,2.42,-0.85,-18.61,77.69,-9.86,-0.05,41
5.97,18.01,0.44,125.68,-10.6,-6.59,10.44,10.54,7.56,-217.97,8.74,79.59,1.86,-3.4,-19.45,42.19,0.44,3.17,41
4.77,17.73,-4.55,78.91,-12.11,2.98,9.25,0.34,14.35,-216.41,8.4,78.71,1.02,-4.2,-20.59,-16.8,0.29,-5.81,41
7.28,20.07,-6.96,52.69,-17.53,13.72,12.13,-2.23,17.33,-94.04,7.18,46.68,2.84,-2.71,-17.55,-37.55,19.29,3.76,41
5.84,18.45,-8.63,-23.78,2.93,-4.0,8.8,-11.91,13.62,-146.24,33.5,39.79,2.7,1.25,-22.61,-114.11,67.09,5.13,41
5.47,17.93,-5.93,-56.01,8.2,21.63,7.5,-14.47,13.5,-37.01,32.81,18.8,6.75,6.78,-17.1,-156.2,51.51,-25.83,41
8.88,21.44,-0.73,-123.05,18.65,46.0,5.07,-14.45,13.69,-38.18,26.07,8.94,8.69,11.18,-13.29,-96.58,40.53,-39.79,41
11.3,13.11,6.89,-153.42,61.04,27.59,3.95,-16.99,12.16,-50.73,10.11,4.3,6.95,14.37,-10.39,-72.07,28.66,-28.17,41
8.28,10.2,13.94,-70.31,59.62,36.33,5.21,-17.76,11.82,-3.96,14.65,-8.98,8.27,17.23,-3.54,-44.48,9.08,-32.91,41
7.55,5.6,17.37,-117.14,24.41,8.54,3.5,-17.76,11.16,-11.08,6.35,-3.52,4.18,15.39,-2.66,-43.7,14.7,-54.15,41
4.73,-0.57,19.42,-84.08,51.61,1.32,5.41,-17.15,12.57,1.03,-0.49,-3.76,3.41,17.73,-1.63,-29.64,-11.96,-47.56,41
3.99,-3.56,20.13,-29.79,40.09,-13.96,3.85,-15.89,12.34,6.54,2.29,3.76,0.13,17.9,0.49,-25.68,-2.05,-27.49,41
0.64,-1.09,20.41,-23.29,23.54,-16.5,4.19,-17.36,11.9,-2.44,8.4,-2.25,-1.95,18.79,0.73,-1.03,-13.18,-2.25,41
-3.67,-5.24,20.61,-36.08,10.11,-12.6,5.2,-17.29,12.57,-0.29,-1.37,-0.24,-0.96,19.67,1.05,5.86,-11.52,7.37,41
-1.31,-5.96,21.21,-2.3,3.86,-17.97,4.46,-17.72,11.91,8.84,2.0,0.05,-0.35,18.9,0.68,11.43,-0.83,7.23,41
-1.82,-5.81,20.68,-8.06,-0.49,-10.5,3.71,-15.53,13.06,-3.76,2.98,-1.76,1.43,19.55,-0.35,7.13,-3.08,-3.42,41
-1.54,-4.54,21.22,6.69,-5.27,-0.1,4.67,-18.43,12.9,-3.03,1.27,-4.69,-0.64,18.19,-0.51,-2.0,-7.18,-1.86,41
-0.99,-4.19,21.23,14.26,0.98,4.25,3.88,-17.01,11.71,-1.27,0.54,-2.54,0.78,20.4,0.53,6.25,3.03,4.15,41
-1.12,-4.35,20.88,-3.13,0.88,-8.89,3.35,-14.17,12.43,11.77,0.1,-3.71,0.95,19.43,0.0,6.84,-3.12,2.59,41
-0.91,-4.26,21.76,-0.05,-3.91,2.0,4.89,-17.49,13.05,-0.49,-1.32,-4.69,-0.22,16.98,-1.34,-1.61,2.1,-1.17,41
1.36,-3.87,22.41,81.74,-19.38,21.39,4.85,16.2,5.93,113.62,-10.01,-27.88,5.11,2.96,-17.8,69.14,7.91,28.22,42
1.47,1.36,19.06,112.4,-10.74,6.88,5.94,22.51,0.64,137.06,-4.35,-22.17,6.91,-0.42,-20.0,61.33,5.27,26.86,42
0.65,11.74,11.41,219.04,-19.43,5.08,3.17,21.69,-0.68,16.45,-0.24,-7.91,4.76,-1.02,-20.13,1.17,-0.68,2.29,42
5.57,17.08,8.91,89.16,-19.38,12.74,2.24,19.33,-0.57,-16.55,-2.88,-10.94,4.18,-2.58,-18.34,-11.08,-11.18,2.93,42
3.26,16.21,3.76,102.49,-36.62,8.89,2.41,20.81,0.38,-61.82,-9.33,31.79,5.4,1.67,-16.93,-52.59,21.92,-2.54,42
4.99,17.48,-0.92,95.8,-16.5,10.99,9.06,15.43,6.31,-125.98,-25.44,58.64,2.75,4.3,-18.97,-93.21,57.91,-24.76,42
6.58,22.11,-4.53,36.77,-16.31,1.51,9.01,11.64,10.17,-144.78,-23.88,102.0,7.11,7.29,-17.63,-144.68,74.9,-39.45,42
4.09,20.04,-6.15,2.0,-5.32,-1.17,13.57,2.16,14.11,-117.33,1.42,84.23,8.64,11.25,-11.75,-83.01,39.89,-47.61,42
3.6,18.73,-5.34,-14.11,-4.0,-0.49,12.88,-0.71,15.84,-86.57,22.27,47.36,9.74,16.7,-7.85,-35.01,10.99,-34.81,42
4.07,18.98,-2.21,-86.82,7.28,19.58,13.31,-8.14,13.85,-136.43,6.54,52.59,8.47,18.66,-4.8,-65.14,14.16,-38.62,42
8.39,18.77,2.5,-105.52,22.02,46.97,10.53,-17.0,11.89,-81.59,17.19,42.14,3.98,17.95,-2.01,-58.69,2.88,-43.8,42
6.92,13.47,9.72,-113.92,23.97,47.71,5.05,-15.28,12.57,1.22,7.08,-4.44,1.72,17.21,-0.57,-2.49,-9.47,-13.33,42
7.43,10.81,13.8,-95.36,37.6,17.38,6.58,-13.9,12.11,23.34,17.97,10.3,2.31,21.11,-0.78,6.2,39.4,-3.86,42
6.95,7.98,18.02,-96.05,49.27,4.88,5.43,-15.89,11.63,-2.59,-1.07,9.08,1.91,21.91,0.92,-1.61,9.38,-4.59,42
5.8,1.05,20.75,-119.48,31.88,7.57,6.61,-14.56,12.7,23.0,8.79,-9.37,2.57,19.1,0.73,30.03,-10.35,8.4,42
0.6,-8.25,20.34,-75.73,32.03,-9.03,7.58,-14.1,13.14,-12.7,10.99,-3.12,1.58,20.23,-0.88,2.54,-7.71,1.07,42
-2.76,-2.31,21.15,18.36,-0.63,0.78,4.12,-18.8,11.06,-9.03,-0.05,-1.61,1.41,18.32,2.31,-1.9,-2.2,-2.39,42
1.74,-2.49,22.18,17.72,-15.62,5.76,9.1,-13.23,13.57,15.53,-11.77,-9.52,2.59,19.96,-0.06,15.77,1.32,10.35,42
-1.26,-5.0,19.6,0.24,6.59,2.49,6.4,-12.9,13.86,17.97,-7.52,-2.0,2.56,17.53,-0.58,4.74,5.18,-1.71,42
1.16,-2.71,20.63,24.85,6.93,-2.29,8.82,-13.3,14.89,1.17,-3.22,-1.86,3.4,19.8,-1.53,6.3,2.2,2.98,42
-0.79,-2.24,20.09,140.04,-14.31,-4.54,2.36,10.53,11.36,216.75,19.48,-23.39,1.4,17.81,-7.02,107.03,-19.09,36.08,43
0.46,10.24,15.97,186.72,-10.89,-49.02,1.21,23.58,3.74,169.29,10.01,-8.45,4.05,14.83,-13.02,126.22,-57.81,54.98,43
-0.25,14.98,7.34,179.15,7.47,-3.56,0.05,20.98,0.35,69.73,-1.46,-3.86,4.4,8.95,-14.82,103.95,-46.24,35.99,43
0.78,15.5,4.52,119.19,-5.22,18.26,-0.71,21.47,-1.57,34.18,4.35,1.95,3.76,5.36,-17.4,111.62,-42.87,19.73,43
1.37,20.83,-1.66,96.83,-4.0,23.1,-1.05,22.1,-1.23,-36.52,-6.79,11.91,0.23,-0.0,-20.77,72.51,-20.8,1.56,43
1.99,21.08,-5.42,42.97,-15.09,13.38,2.99,22.87,2.85,-76.71,-6.4,28.52,-1.17,-2.13,-20.19,32.47,-8.79,3.37,43
1.57,20.45,-7.71,19.48,9.03,6.74,5.6,13.83,6.86,-115.63,18.99,39.01,-1.41,-3.76,-19.78,5.71,-3.03,-2.83,43
2.51,20.68,-6.15,-44.97,5.03,2.83,2.85,16.96,10.82,-93.21,12.6,32.13,-0.23,-1.82,-19.17,-34.52,17.68,5.57,43
3.85,22.66,-2.31,-74.46,2.34,11.57,1.33,9.59,14.04,-143.85,-13.38,64.11,5.21,2.48,-19.39,-61.82,33.06,2.25,43
6.64,20.71,0.51,-75.15,23.68,17.24,4.26,-1.24,14.12,-257.62,-18.51,60.4,5.81,4.52,-18.15,-79.35,35.84,-16.21,43
6.09,22.23,5.69,-95.36,18.65,6.54,4.07,-23.56,14.0,-89.01,-3.08,32.18,5.2,12.82,-16.34,-41.26,45.26,-8.54,43
2.34,17.26,11.03,-145.61,22.75,33.3,5.52,-13.42,15.19,-45.85,12.11,22.41,7.17,16.16,-12.93,-75.49,67.48,-2.1,43
1.77,8.52,16.33,-127.59,30.03,21.63,5.6,-17.89,12.91,-54.59,7.23,16.6,5.93,15.21,-8.94,-84.33,47.85,-12.01,43
-1.06,-0.62,20.99,-87.01,32.81,-5.96,5.59,-19.16,12.0,-26.95,15.63,-14.99,6.08,14.46,-4.93,-43.36,8.89,-27.69,43
0.67,0.45,21.5,-27.44,25.78,-4.79,4.44,-13.19,12.58,10.84,11.52,-12.79,4.87,18.55,-4.05,-20.75,-10.79,-27.93,43
-0.42,-2.84,20.78,-77.49,5.86,-6.98,4.01,-18.68,12.97,-15.38,-3.27,3.66,1.86,16.87,-3.75,-36.67,2.1,-15.48,43
-2.26,-4.18,20.79,-4.74,-8.89,-18.7,6.12,-15.78,14.26,5.08,14.55,-15.62,2.19,15.2,-2.38,9.62,-29.05,2.69,43
-0.95,-0.85,21.32,20.31,-10.74,-9.67,4.41,-15.34,13.65,-6.98,10.69,6.25,2.06,19.84,-1.75,10.2,-14.7,-0.44,43
-1.69,-4.58,21.7,-22.27,2.34,-2.2,5.97,-15.28,13.71,-1.61,4.88,-9.62,2.01,18.98,-1.23,-11.43,1.27,1.61,43
-0.96,-0.43,21.97,28.22,1.71,-10.25,4.55,-14.62,14.06,7.08,9.18,-2.49,-0.27,20.83,-4.52,13.96,-15.14,1.27,43
-2.05,-2.28,21.99,-3.17,-7.71,1.66,3.44,-16.64,12.61,-5.32,-0.1,-2.1,0.09,19.84,-1.75,1.12,4.98,4.35,44
-1.29,-4.02,22.06,-14.84,0.49,-2.05,4.15,-18.71,12.04,-15.33,2.1,1.32,-0.12,19.06,-1.22,-8.74,3.03,-0.93,44
-1.95,-3.38,21.32,2.0,-6.88,1.9,3.27,-17.7,11.66,-2.1,0.1,-0.24,-0.42,19.31,-1.07,1.51,5.71,-2.29,44
-6.12,-6.98,21.82,16.21,-5.18,-2.05,2.99,-23.05,11.67,12.6,2.2,-12.01,-2.02,16.81,-1.66,22.12,-0.24,12.45,44
-1.95,-9.13,19.66,123.53,-20.65,-24.27,7.74,-25.74,10.3,121.34,40.14,-40.82,-0.54,11.88,-5.93,107.28,-31.74,27.98,44
-0.81,7.77,0.23,432.28,-6.88,15.28,0.19,-8.22,1.98,409.28,85.01,-41.41,3.72,12.8,-22.95,308.35,-59.33,29.98,44
5.75,22.59,-5.98,165.72,16.55,36.96,3.11,24.55,-18.85,537.01,60.21,56.64,2.0,6.73,-15.71,144.48,-25.1,-23.44,44
3.65,23.26,-9.65,58.11,23.49,52.29,0.03,15.36,-4.42,-26.86,16.46,28.52,0.03,-4.71,-19.13,10.01,35.84,-21.24,44
6.76,23.61,-10.23,68.75,0.44,21.48,4.53,29.39,-7.06,71.04,9.72,10.4,-0.49,-3.72,-22.53,38.18,11.04,13.77,44
6.2,19.25,-9.22,-80.37,-7.67,-7.18,1.93,21.35,-6.24,-97.46,-8.11,2.39,2.89,-3.04,-18.03,-73.83,7.08,14.5,44
6.9,20.11,-3.03,-214.21,-7.32,14.45,5.49,19.19,0.8,-238.77,-36.72,41.8,4.38,6.77,-22.2,-185.55,79.1,28.96,44
8.75,12.7,7.36,-246.78,14.01,20.26,8.26,7.22,10.63,-318.99,-24.95,55.32,6.87,13.0,-18.79,-182.96,66.26,-28.12,44
5.65,1.75,13.56,-267.29,95.36,19.09,7.97,-17.34,7.61,-423.68,12.99,90.33,8.77,13.17,-11.3,-152.59,41.7,-83.54,44
-7.41,-5.5,15.26,-114.16,-0.1,-17.19,7.38,-19.19,9.55,-14.11,-16.16,-14.11,3.66,11.53,-0.65,-70.9,7.71,-19.29,44
-3.18,-7.01,20.02,9.08,86.47,-33.01,3.76,-17.34,10.04,-45.26,52.49,1.86,1.98,16.76,-0.17,-28.71,-33.69,-47.71,44
0.58,-4.61,20.96,-8.55,27.0,-23.63,5.13,-16.97,11.64,-22.56,28.71,-1.37,1.53,17.6,0.07,-17.87,-10.35,-32.86,44
-2.28,-4.29,21.08,34.18,9.81,-16.16,3.12,-16.84,11.8,16.11,15.43,-7.57,1.12,19.61,0.54,25.98,-16.65,-0.05,44
-0.3,-3.43,21.77,6.35,-11.77,-9.86,4.67,-18.17,12.19,-3.91,5.71,-3.91,0.84,20.34,0.22,0.29,-8.01,0.1,44
-1.49,-3.68,20.71,12.5,9.72,4.88,3.71,-16.37,12.15,12.11,2.59,3.32,0.09,19.49,0.0,2.93,1.22,-14.45,44
-1.36,-3.18,20.89,19.29,11.47,2.64,3.95,-16.65,13.11,10.5,4.74,0.44,-0.51,19.86,-0.79,15.87,5.96,-4.0,44
-1.93,-3.1,20.7,133.3,-27.15,14.26,3.4,20.71,-0.95,384.33,31.74,10.25,-0.39,0.38,-18.26,74.22,5.91,-22.17,45
2.3,3.07,14.43,222.9,-14.6,3.22,3.75,17.69,1.65,50.83,-5.96,22.95,-1.51,-0.36,-21.14,27.59,21.39,-15.09,45
2.28,14.32,3.53,244.34,2.54,37.01,3.22,24.23,-1.93,9.96,-3.12,9.03,-0.54,-1.15,-21.16,-5.22,13.96,-3.42,45
1.43,17.97,0.72,78.37,2.59,32.71,2.51,26.15,-2.54,-54.69,3.13,9.57,2.54,1.4,-19.6,-62.26,17.82,16.41,45
5.71,22.88,-3.93,59.62,-4.15,33.11,3.18,17.12,1.15,-301.17,3.13,59.77,3.54,11.2,-20.81,-174.02,108.79,19.38,45
5.1,22.7,-6.16,10.45,-2.25,11.04,8.17,0.82,8.77,-388.53,-24.02,96.34,4.59,9.75,-14.6,-179.69,80.71,-60.01,45
5.72,26.76,-5.54,-65.97,7.28,2.15,6.39,-22.32,7.86,-173.19,7.28,44.38,4.94,13.85,-5.04,-137.55,22.71,-51.95,45
8.27,15.95,2.85,-283.25,24.95,39.6,8.02,-16.52,8.89,4.44,51.42,-11.38,1.12,17.28,2.51,-1.12,-24.02,-23.49,45
6.9,6.29,12.67,-235.94,77.54,33.98,3.04,-16.42,10.9,45.51,87.26,-16.6,2.06,21.12,-0.4,24.07,-58.79,-54.93,45
-1.24,-1.21,14.82,-168.85,79.1,-17.14,3.15,-20.29,13.55,-1.86,-4.3,-19.04,-0.62,18.98,-1.11,7.62,-5.62,-19.29,45
1.67,-9.72,19.1,21.97,25.15,-37.35,10.23,-16.61,13.64,17.24,-25.15,-17.19,0.89,19.36,0.82,32.03,-29.79,19.63,45
-0.99,-1.47,20.56,56.01,33.98,-76.37,4.93,-16.5,13.49,9.33,18.8,14.99,-1.31,18.28,-1.66,10.6,-11.57,-14.26,45
-0.59,-3.8,23.68,1.9,-16.55,-23.58,4.06,-13.89,13.38,23.73,17.48,-7.28,-3.24,18.4,-3.18,21.39,-12.21,-7.71,45
5.16,-1.99,23.02,6.25,-29.83,-12.35,4.42,-12.47,16.2,21.09,-14.06,4.98,-2.65,22.65,-4.04,20.36,20.02,6.59,45
0.17,-1.99,20.57,20.56,26.81,0.98,8.16,-13.54,16.54,6.74,-8.3,0.15,-1.41,18.26,-6.08,4.59,8.64,5.47,45
-1.53,0.48,20.0,26.17,8.4,-13.62,3.94,-12.79,16.52,-2.73,3.08,2.78,-2.25,18.34,-6.12,2.29,-3.08,-1.76,45
0.57,0.83,21.58,38.33,-2.54,21.39,4.26,-14.79,15.58,-2.39,-1.46,-3.47,-1.04,18.19,-4.61,1.22,-1.66,4.3,45
1.12,2.03,20.95,-4.49,-12.26,10.16,6.08,-13.94,15.32,-3.61,3.08,-0.78,-1.31,20.32,-4.48,1.32,-0.2,0.63,45
-0.42,3.44,21.04,4.49,-3.86,2.88,2.2,-13.13,15.31,-1.61,4.93,2.05,-2.0,18.42,-4.86,3.95,-7.81,-3.66,45
0.52,0.08,21.77,-7.42,-8.06,-2.25,5.03,-15.27,15.35,-8.98,2.73,-3.66,-0.99,19.62,-4.0,3.66,-10.06,5.08,45
-2.85,-1.97,20.65,-12.26,16.65,-33.35,2.5,-17.42,13.11,-23.29,19.29,-8.64,-2.56,21.17,0.35,-2.49,-18.26,-4.98,46
-3.44,-2.48,21.33,-14.84,7.32,-10.3,1.5,-16.82,14.03,-10.69,-2.69,-4.44,-3.65,19.86,-0.77,-6.69,4.69,9.96,46
-2.09,-2.55,22.69,-7.62,-17.33,4.49,5.52,-21.12,13.55,13.33,11.52,-13.96,-2.96,15.83,-0.54,44.53,-4.39,18.12,46
-0.92,-7.84,23.24,79.39,-3.52,-14.89,3.4,-19.72,13.53,143.07,36.28,-20.17,1.8,17.6,-8.45,167.82,-27.29,50.68,46
-0.94,7.47,16.32,207.62,-7.91,3.22,0.82,-6.61,14.98,215.23,51.95,-17.33,1.64,16.92,-14.77,145.8,-24.17,-0.34,46
-0.7,12.79,9.51,162.26,-3.03,17.33,0.65,3.0,12.26,244.63,34.33,-6.79,-0.26,7.25,-16.39,148.14,-14.89,-6.3,46
1.08,18.37,-0.31,162.65,-17.38,29.35,-1.23,18.87,-1.68,337.79,40.67,-1.86,-3.57,-0.81,-18.81,113.23,-11.43,-14.16,46
0.62,20.51,-7.72,134.47,-4.0,21.97,-3.8,22.94,-4.77,59.86,-7.86,-21.44,-4.39,-6.21,-20.42,22.27,-5.66,23.29,46
2.14,21.4,-11.1,72.41,-31.01,2.88,-3.66,29.24,-6.89,23.24,-5.81,-20.56,-4.94,-1.38,-21.31,-1.76,-7.52,20.56,46
3.22,19.93,-9.68,-20.07,-6.49,-6.45,-3.06,20.55,-4.12,-42.58,-9.18,-8.4,-1.26,-3.29,-16.8,-41.41,-6.15,10.01,46
1.92,19.15,-5.71,-71.97,-1.12,26.07,-0.07,22.38,0.78,-91.16,-29.83,44.29,1.68,3.07,-18.52,-113.28,31.35,4.1,46
3.02,23.88,-3.44,-183.55,34.86,67.33,4.28,13.51,6.63,-272.41,-53.08,48.24,1.17,3.92,-21.71,-197.02,16.11,-7.96,46
8.48,18.06,6.17,-180.76,39.55,39.31,4.67,2.9,13.83,-235.99,-1.71,56.54,3.95,9.35,-13.63,-152.93,28.03,-39.5,46
2.17,13.17,11.97,-168.26,55.66,14.99,2.37,-8.26,7.72,-409.33,-21.09,50.34,2.74,13.38,-5.25,-125.63,36.18,-50.05,46
0.61,-0.83,18.42,-88.43,64.55,46.39,0.32,-26.53,8.9,-59.03,0.98,42.87,0.19,14.97,-0.23,-92.82,16.02,-75.78,46
-4.23,-8.59,18.1,-32.86,13.38,12.35,2.86,-20.81,12.39,-5.03,-7.18,-19.14,-3.29,17.1,3.43,18.12,-13.62,-30.71,46
-4.25,-8.46,22.17,-10.11,2.0,-17.04,5.86,-19.71,13.55,54.93,1.71,-31.84,-4.45,21.65,-0.4,52.64,3.71,14.4,46
1.3,-4.26,24.1,22.36,-28.32,-25.2,3.61,-12.99,13.58,38.87,10.4,-8.3,-1.15,24.14,0.91,34.81,-7.71,-2.05,46
-2.4,1.21,21.63,25.98,0.34,5.22,4.94,-15.37,14.87,-0.59,-9.23,-2.25,-5.0,17.17,-2.66,-7.57,0.05,6.64,46
-1.07,-1.56,21.32,6.64,-11.72,-1.9,3.85,-14.53,14.48,8.5,0.73,4.83,-2.46,20.01,-1.89,11.47,2.39,0.68,46
0.71,-4.21,21.28,2.1,1.12,5.18,3.51,-15.5,12.73,8.3,-1.37,6.4,0.5,18.03,-2.42,4.44,6.49,-7.03,47
-1.64,-2.64,20.51,13.48,1.61,8.98,3.28,-16.24,13.02,-2.78,-0.49,-2.98,1.47,19.38,-1.9,4.59,0.0,4.54,47
-0.96,-3.47,21.28,-2.15,-8.01,0.24,5.24,-17.4,13.41,-0.78,-0.63,-3.03,1.84,20.18,-2.11,6.74,1.81,4.49,47
0.56,-3.79,22.05,2.05,-1.71,-0.54,5.2,-17.28,12.34,0.24,-0.44,5.57,1.1,18.35,-1.44,-5.52,11.38,-11.08,47
-0.62,-4.78,20.66,0.24,10.79,3.32,4.51,-25.29,13.73,15.38,16.5,-12.35,-4.28,13.59,-6.96,65.62,-10.16,12.5,47
-4.24,-10.95,22.99,84.57,-8.25,-20.51,1.64,-11.7,13.38,248.24,31.98,-40.19,2.3,22.24,-16.44,180.13,-45.46,43.65,47
1.28,10.92,13.13,280.18,-13.72,20.31,0.85,4.28,12.41,235.11,12.26,-37.84,7.12,9.42,-15.34,148.29,-24.8,19.97,47
4.01,15.14,6.36,173.44,-66.16,25.0,2.94,13.41,6.3,276.51,2.39,-16.36,4.71,2.65,-18.09,124.22,-4.0,1.9,47
6.49,20.36,0.62,161.82,-46.34,22.36,2.35,24.51,-1.23,151.61,-11.67,-27.73,0.72,-2.91,-20.03,82.52,-18.46,24.12,47
4.57,19.4,-6.87,116.8,-50.59,12.65,4.78,17.78,-3.69,74.02,-33.84,-0.83,0.34,-5.25,-16.6,43.31,-11.38,5.86,47
7.87,14.72,-9.4,47.17,-29.1,11.47,1.42,27.46,-9.23,17.43,-1.66,2.29,-1.47,-6.26,-19.62,-12.06,5.18,1.81,47
5.22,18.39,-12.08,-32.08,-3.12,-1.51,1.7,18.84,-4.27,-84.77,-8.89,41.31,1.02,-1.12,-16.94,-66.5,38.96,10.69,47
7.44,18.7,-6.52,-88.92,12.3,29.15,5.3,21.89,-0.83,-189.6,5.96,116.16,4.91,2.43,-23.84,-179.69,124.27,-16.31,47
4.73,16.51,-3.45,-205.81,58.11,65.63,12.32,8.83,10.01,-184.67,18.07,96.63,-0.28,8.83,-20.87,-151.37,57.32,-70.56,47
7.86,9.72,4.84,-158.89,99.56,4.88,7.05,6.23,13.46,-115.48,38.38,56.49,9.55,17.56,-11.42,-60.45,29.2,-28.96,47
8.98,12.89,13.33,-106.54,61.33,24.95,5.55,-6.08,12.16,-286.72,5.32,78.81,7.14,13.0,-6.38,-106.25,40.04,-38.23,47
4.06,0.08,17.37,-140.67,67.33,44.53,7.96,-18.95,11.13,-65.19,-18.6,64.55,3.84,15.72,-2.28,-89.6,31.54,-45.51,47
0.45,-6.56,18.89,-118.07,50.29,26.76,5.03,-20.57,10.49,-36.52,19.53,13.04,-0.15,16.91,0.15,-7.47,-7.67,-20.02,47
0.12,-8.54,20.25,-10.11,28.22,-8.74,6.44,-16.28,11.96,-9.47,-3.42,-4.64,1.6,22.49,-0.28,10.6,7.13,9.33,47
2.34,-4.1,22.54,0.73,-14.4,-0.1,7.55,-19.58,10.79,30.91,28.17,-14.36,0.74,17.94,0.74,18.02,-18.65,-12.4,47
-1.55,-4.7,20.79,109.13,-24.9,0.68,5.5,-16.26,12.31,4.69,5.96,6.15,-0.14,18.24,-5.23,78.61,-8.79,10.6,48
-1.64,5.23,12.7,247.51,-31.64,-15.43,3.81,-14.82,13.7,9.37,0.24,-1.27,2.69,15.74,-11.03,171.14,-49.02,18.55,48
4.01,15.94,6.97,159.42,-45.17,13.67,5.61,-15.21,13.65,0.29,-1.32,-3.12,2.34,9.65,-16.26,141.06,-13.43,9.42,48
5.97,19.22,2.48,129.64,-43.9,9.81,4.6,-16.88,13.03,-0.29,4.39,-0.44,1.28,2.07,-19.64,109.62,2.73,0.34,48
4.85,17.67,-2.8,97.02,-10.16,7.23,2.75,-13.89,13.37,11.52,-0.29,-0.63,-0.2,0.18,-18.14,61.82,-2.64,-19.68,48
6.03,16.62,-8.25,77.54,-11.13,22.17,4.36,-14.81,13.62,-3.08,-0.88,1.27,1.16,-2.48,-17.92,65.23,12.65,-17.72,48
4.66,19.83,-12.67,-11.13,2.54,-8.01,5.3,-15.87,14.11,-1.9,3.22,2.83,-0.51,-6.14,-21.86,-21.44,-2.2,-14.94,48
6.16,15.61,-9.97,-54.44,-3.76,-3.12,4.47,-15.57,12.66,1.12,3.47,1.27,0.47,-4.97,-18.43,-43.36,-2.25,4.69,48
5.48,16.52,-5.51,-114.21,14.55,40.33,2.9,-14.73,13.26,2.2,2.39,-1.17,2.51,1.0,-18.9,-97.12,49.12,24.41,48
8.65,17.11,-1.73,-148.58,31.2,-7.96,4.65,-15.85,14.22,-0.29,-5.47,-1.71,3.24,4.2,-19.17,-126.95,25.98,-2.93,48
6.86,15.63,8.34,-87.89,36.96,1.37,5.43,-16.2,13.63,0.39,2.2,1.03,6.38,9.92,-13.91,-77.34,2.44,-5.62,48
7.5,11.72,14.72,-117.19,67.97,22.85,3.39,-15.34,13.73,5.13,4.0,-2.44,4.44,18.2,-13.8,-115.33,24.61,-31.84,48
2.52,1.64,18.15,-118.26,59.38,23.73,3.85,-16.38,14.06,5.76,10.99,-10.3,5.84,17.36,-6.52,-59.13,14.84,-37.11,48
2.79,-2.56,19.81,-142.14,34.33,-5.42,3.86,-16.56,14.02,-3.37,-0.78,0.15,2.89,13.92,-3.48,-50.59,1.46,-35.11,48
-2.75,-4.89,21.89,-25.39,5.27,12.74,3.39,-16.24,13.7,7.23,8.01,-1.81,0.56,17.86,-2.21,-7.67,3.66,-9.08,48
0.42,-2.08,22.25,0.59,-21.0,-12.06,3.53,-15.11,14.71,-1.51,-1.37,-0.54,-0.53,18.75,-2.81,18.41,-8.45,10.35,48
0.6,-3.28,20.69,-27.64,4.35,7.76,4.95,-15.38,14.67,2.54,-5.86,-3.17,0.52,19.09,-2.21,-14.11,6.1,-3.71,48
0.71,-2.04,21.35,1.51,-7.23,-0.05,4.99,-14.63,14.07,3.71,0.2,-3.66,0.76,19.02,-2.68,6.93,2.49,3.91,48
1.32,-1.44,21.72,-20.51,0.93,-10.11,4.35,-12.87,14.98,1.76,-1.51,-0.98,0.39,18.63,-2.89,-11.87,-6.84,-3.37,48
1.63,-3.18,21.57,-7.23,-9.52,-8.01,5.51,-15.77,15.07,-4.88,-3.17,-3.32,1.1,19.58,-1.73,8.84,-7.81,5.81,48
0.59,-5.03,21.26,2.93,-0.29,4.0,3.02,-15.78,12.68,-5.13,1.61,-2.25,-0.15,17.59,-1.93,0.63,4.3,-3.37,49
0.1,-5.36,19.84,6.64,3.17,5.37,5.27,-17.8,12.81,-0.49,1.86,0.68,-0.37,19.92,-2.14,1.95,0.54,0.98,49
-1.03,-3.78,20.87,-5.18,1.76,-2.64,4.2,-16.82,11.53,3.12,3.13,2.05,-0.14,20.79,-2.26,1.61,0.98,0.44,49
1.56,-6.4,21.9,-0.34,-2.1,-0.15,3.74,-15.72,12.91,0.2,1.76,0.0,0.16,18.53,-1.49,-0.59,0.29,-4.0,49
0.81,-5.84,20.18,-4.05,-0.59,-1.37,5.25,-18.33,12.42,-5.27,-1.12,-3.12,-1.25,18.67,-2.61,3.76,3.96,-1.76,49
-0.47,-3.4,20.5,9.81,-0.49,3.71,4.85,-17.39,12.05,-0.44,-0.54,2.64,-0.28,20.24,-1.73,0.34,2.98,4.39,49
0.65,-6.23,21.46,-10.99,-11.18,-2.54,4.2,-15.45,12.65,5.71,-0.78,0.78,0.0,19.6,-1.59,-1.71,3.37,-2.98,49
0.12,-5.5,21.0,1.81,1.12,2.83,4.25,-16.95,13.41,-10.25,0.78,-1.86,-0.45,18.26,-2.06,2.15,4.0,-3.91,49
0.35,-4.95,19.98,10.3,2.78,5.42,3.62,-18.11,13.59,0.93,5.86,-6.3,-0.57,19.72,-2.7,1.07,1.07,2.93,49
-0.49,-3.5,21.33,-0.98,-1.03,-0.63,2.98,-19.32,12.49,54.74,17.68,-22.41,-0.32,19.57,-1.76,4.98,2.39,3.22,49
-0.21,-6.21,21.92,4.05,1.76,-7.32,3.37,-18.63,12.12,232.67,63.38,-65.38,-0.23,17.63,-3.0,52.54,-14.36,7.47,49
0.37,-7.86,21.3,33.74,-7.32,-23.29,1.43,3.19,8.03,301.03,19.58,-2.73,-2.25,11.1,-12.22,175.2,-46.63,17.38,49
-2.5,-9.57,17.24,183.54,-7.52,-30.96,2.76,29.88,-2.56,294.63,15.43,0.24,3.74,15.44,-16.75,197.17,-39.89,9.67,49
1.67,17.63,5.7,341.31,-31.69,17.09,3.84,22.99,2.24,48.44,-6.1,15.38,2.27,1.01,-19.5,163.04,13.48,-9.23,49
4.37,20.53,-2.44,197.41,-20.85,26.71,0.85,24.39,-2.16,-168.55,-1.86,50.68,0.31,0.47,-21.32,57.08,29.59,6.4,49
5.27,23.31,-3.82,90.19,-5.52,20.41,6.63,10.77,6.4,-290.04,-27.69,94.73,1.14,5.51,-19.44,-103.47,43.41,-8.84,49
4.52,25.09,-4.94,-106.3,30.03,19.78,6.99,-10.98,10.51,-374.12,24.9,87.84,5.14,8.07,-22.75,-189.94,90.77,-12.65,49
6.33,17.73,0.47,-241.46,19.38,47.02,6.86,-19.97,13.34,-65.58,15.92,39.16,4.69,8.43,-14.05,-187.06,44.19,-59.91,49
7.26,6.6,8.53,-267.19,75.05,37.5,4.83,-17.68,12.86,-23.19,23.44,4.69,4.02,14.15,-5.1,-98.68,5.42,-42.77,49
0.46,2.04,18.32,-130.08,68.46,-4.49,5.03,-17.63,11.31,-2.0,-3.27,-2.69,3.48,18.54,-2.36,-22.22,-15.28,-22.9,49
1.18,-6.74,22.25,29.35,6.4,13.87,-3.44,9.42,13.33,157.62,24.32,54.79,0.32,15.65,-4.05,65.14,-15.28,-8.35,50
-1.88,-4.93,18.82,141.99,18.75,7.81,-0.49,19.04,4.68,164.26,-13.13,49.85,0.44,13.21,-11.86,169.58,-104.25,-11.67,50
-1.56,12.35,11.63,285.5,22.9,8.89,5.01,21.77,1.32,24.85,-22.85,41.6,-2.41,13.16,-14.94,126.12,-62.11,-51.56,50
-2.11,18.61,8.99,129.78,16.02,40.63,2.74,22.59,0.64,19.09,-3.91,16.11,-4.06,8.14,-16.58,54.05,28.91,-41.65,50
-0.76,16.83,2.87,119.09,12.3,64.06,3.1,21.58,0.47,-15.77,-1.12,-0.1,-2.44,3.46,-18.06,81.59,44.19,-27.15,50
3.73,16.23,-1.58,80.57,-21.34,55.86,2.99,23.35,0.95,-37.4,-2.73,2.29,-3.56,1.6,-17.3,44.53,10.3,-1.07,50
10.93,12.34,-4.53,17.68,-19.14,43.31,5.05,21.85,5.33,-152.93,-32.62,28.56,-0.67,-1.34,-19.6,20.17,30.57,2.93,50
6.38,19.53,-4.61,-13.67,-5.91,7.81,10.43,9.48,11.68,-217.38,-11.43,29.54,-0.23,0.05,-21.73,-25.2,34.81,9.52,50
6.22,20.71,-5.05,-32.96,2.2,-9.23,7.08,-2.18,13.47,-246.78,9.81,39.75,2.16,0.32,-21.25,-42.77,20.36,2.54,50
6.37,24.01,-4.63,-39.36,5.18,2.25,-0.0,-14.67,9.91,-205.57,-1.46,38.38,6.43,7.65,-19.8,-71.0,40.77,21.48,50
8.53,24.37,1.31,-129.2,-5.71,22.9,6.17,-18.99,8.29,-109.47,-18.95,26.22,7.8,10.34,-17.7,-145.65,10.79,3.96,50
10.91,13.92,9.37,-153.56,20.61,8.25,6.43,-18.54,8.7,-26.56,22.27,-9.33,5.65,12.43,-12.7,-127.25,14.31,-43.12,50
5.15,7.38,14.08,-130.62,74.07,-3.37,6.9,-14.12,10.56,13.57,8.84,-2.0,5.51,16.98,-6.46,-104.2,12.45,-43.31,50
-1.08,-1.22,15.89,-184.28,30.03,6.79,6.82,-18.11,8.59,2.44,3.81,3.66,2.47,16.18,-1.44,-89.21,7.08,-20.61,50
1.63,-6.78,18.83,-131.79,24.76,1.51,5.22,-17.9,9.75,3.52,8.84,-3.08,1.27,17.68,3.26,-39.55,-3.22,-20.31,50
-0.6,-8.88,20.32,-15.97,8.59,-22.75,5.28,-19.08,9.09,-3.91,6.45,3.61,1.04,20.51,2.77,27.05,-21.53,0.05,50
1.56,-3.74,21.61,9.23,3.42,-7.81,5.99,-18.05,10.31,-3.66,1.03,-0.05,1.52,19.49,2.14,-18.31,-6.01,-17.82,50
-2.18,-7.69,18.99,2.34,13.23,-0.34,4.88,-17.56,9.22,6.05,3.81,1.61,0.35,16.98,2.94,8.74,-12.4,-5.66,50
-1.06,-7.93,20.32,8.25,9.33,1.81,4.65,-17.81,9.97,4.54,7.32,-5.32,0.1,20.55,2.99,6.2,-2.88,-4.15,50
-0.24,-8.76,20.08,-3.27,1.46,-1.22,4.49,-18.65,10.01,1.66,1.9,-3.71,0.38,18.77,2.88,4.2,0.83,-0.73,50
-5.93,-12.6,20.23,64.7,33.45,-18.26,6.31,-21.66,8.84,167.14,35.89,-19.09,2.88,18.74,-4.41,151.32,-46.29,34.08,51
-0.01,-2.97,16.7,196.68,2.25,3.56,0.56,-6.28,11.78,284.03,45.41,-3.22,6.2,17.65,-11.21,191.65,-45.56,3.81,51
-0.62,19.36,6.88,246.24,-2.34,43.7,-1.53,15.37,10.11,270.85,1.95,14.45,1.31,6.74,-17.65,108.2,-0.59,-15.09,51
1.01,18.91,2.21,138.72,17.43,45.12,2.88,18.3,9.95,118.9,5.47,-1.32,2.43,3.82,-18.81,86.47,13.38,14.55,51
5.4,17.31,0.41,77.88,-28.27,41.16,-1.16,20.48,4.86,85.3,16.85,4.05,2.92,0.16,-16.47,52.73,20.9,6.1,51
3.84,18.04,-4.0,45.56,-9.23,27.39,0.83,30.63,5.09,47.85,-29.74,-6.01,3.15,0.71,-22.43,17.14,17.82,25.05,51
7.14,20.22,-6.6,-53.66,-2.83,-1.71,-2.4,22.8,3.5,-51.76,-28.03,1.42,2.24,-2.43,-20.22,-59.18,20.07,4.35,51
5.73,17.53,-4.59,-85.16,-17.87,-0.29,2.13,19.97,7.22,-143.7,-95.31,44.09,8.35,8.77,-17.53,-90.19,66.5,2.25,51
2.67,16.24,0.76,-198.1,-19.04,2.93,9.07,12.02,15.4,-136.72,-59.33,70.12,8.77,14.57,-16.0,-93.95,72.85,-37.55,51
5.38,14.8,9.31,-166.31,39.84,7.08,5.29,1.77,16.47,-131.88,-11.28,36.47,8.0,11.47,-9.44,-69.82,6.35,-39.84,51
2.09,12.76,14.68,-109.38,47.8,-6.64,2.99,-10.38,16.19,-196.63,-1.17,51.22,5.99,13.19,-4.27,-104.39,5.96,-47.27,51
-0.15,1.69,18.99,-112.84,37.06,12.01,6.83,-15.27,13.75,-109.13,-19.24,46.78,3.38,14.6,-0.5,-91.85,14.6,-42.92,51
1.61,-5.83,18.8,-116.94,36.96,9.13,5.81,-15.01,10.79,-96.73,10.69,37.3,1.42,17.93,2.74,-74.41,7.57,-52.15,51
-2.61,-8.35,17.91,-98.34,43.46,-1.9,2.35,-23.76,8.98,-27.93,13.72,4.39,-1.73,17.62,5.76,-3.08,-12.35,-18.16,51
-6.7,-11.15,20.09,13.53,9.03,-5.27,5.42,-19.21,10.04,-10.99,4.05,0.29,-0.63,23.83,5.25,8.5,0.78,5.96,51
-2.39,-10.78,20.45,-4.64,7.52,-4.39,7.25,-19.75,10.42,-1.47,12.89,-3.52,-0.93,19.11,5.13,7.23,-3.32,-4.0,51
-0.64,-11.15,20.07,21.14,13.53,-17.04,3.71,-16.77,11.03,19.78,39.11,-13.96,-1.08,18.76,2.65,49.85,-8.89,8.3,51
-1.34,-4.17,20.99,45.61,14.06,-27.73,4.51,-19.15,10.99,-18.46,16.6,-1.27,-0.06,19.53,2.68,-8.74,-0.73,-11.96,51
-3.13,-7.78,19.85,0.29,13.87,-11.87,4.02,-15.51,11.73,-8.89,-5.57,-5.52,-0.03,20.17,3.3,7.08,3.08,2.1,51
-4.01,-5.36,20.5,-14.01,-7.52,-1.12,5.58,-17.63,11.53,-8.2,-7.62,-4.3,0.32,21.67,3.22,5.42,-0.1,5.22,51
2.83,4.86,20.45,-3.71,-8.64,8.15,7.03,-14.17,14.88,-14.8,-4.74,-1.76,2.24,18.44,-4.12,-7.72,3.96,1.12,52
0.66,4.14,19.8,-19.38,0.73,10.69,6.46,-12.5,15.21,0.1,-6.05,1.32,3.87,20.27,-3.64,1.71,3.56,-0.59,52
0.54,-0.49,20.78,0.29,0.63,-0.34,11.76,-22.23,14.25,6.4,46.29,-14.45,-3.01,11.45,-6.16,15.53,-16.46,-7.37,52
0.51,-1.37,21.64,-9.86,-6.49,0.63,0.18,-10.74,11.53,266.55,109.91,-34.13,3.94,22.59,-14.15,212.99,-93.7,27.88,52
1.0,0.66,21.75,-14.89,-5.96,7.71,-5.17,12.87,5.4,306.15,73.88,47.17,-1.26,9.07,-16.81,128.27,-24.56,-37.99,52
-1.29,-10.41,19.35,118.31,5.96,-53.08,-0.24,21.58,3.46,139.94,12.26,22.56,-2.54,0.45,-19.96,110.94,14.84,-33.59,52
-1.25,14.08,10.23,256.3,0.49,-10.94,0.83,23.97,1.59,73.24,2.88,16.7,-2.14,-0.79,-19.71,69.29,20.26,-12.79,52
3.96,19.69,1.07,214.6,-1.42,37.5,-0.39,31.99,-0.6,-14.89,3.42,-0.39,-3.28,-1.48,-22.91,-32.86,8.5,-7.71,52
5.61,19.68,-4.18,140.19,-23.24,35.45,-1.96,22.79,2.26,-100.15,-22.51,21.04,1.39,1.66,-19.41,-86.23,15.97,15.43,52
8.11,19.67,-5.21,54.74,-10.4,27.49,3.21,17.29,7.99,-212.94,-46.63,75.1,6.69,12.29,-20.4,-113.67,92.04,25.68,52
6.08,21.04,-6.9,-53.17,3.76,-8.64,10.85,-3.18,11.73,-323.58,-29.74,101.51,7.72,9.41,-15.0,-166.55,61.33,-32.03,52
7.05,22.19,-3.42,-131.79,19.53,21.0,4.23,-9.48,13.59,-113.38,20.36,28.08,4.98,12.98,-7.97,-96.44,-6.84,-52.29,52
6.93,18.7,3.37,-226.12,50.83,50.1,4.05,-15.63,11.73,-139.26,9.08,27.0,2.82,17.39,-4.53,-79.54,10.55,-22.46,52
11.2,4.17,12.38,-176.86,89.45,50.88,-1.52,-25.8,10.45,-23.49,16.02,-11.87,-1.29,16.83,-0.37,-23.29,-21.09,-15.58,52
1.86,3.32,16.86,-126.27,37.16,-20.95,5.84,-17.66,10.84,-9.57,5.03,3.91,3.28,22.48,0.63,8.06,-6.98,9.67,52
-0.5,-3.1,18.13,-86.08,70.07,-9.77,5.29,-17.5,12.18,19.78,6.93,-1.27,2.79,15.3,0.07,-7.96,-0.29,-16.85,52
-4.21,-11.4,20.76,-0.68,-21.63,-19.43,5.77,-15.37,13.37,6.93,5.47,-4.79,1.87,20.3,-1.91,14.4,-4.15,-3.66,52
2.73,-8.15,20.9,-37.21,5.32,-9.52,6.78,-16.96,13.55,2.69,0.63,-4.93,2.96,19.87,-1.64,1.81,0.29,-1.12,52
0.69,-6.36,20.72,22.95,-2.93,-2.78,7.24,-16.01,12.35,-11.33,3.61,5.32,2.65,20.89,-2.06,3.81,-0.34,-5.62,52
0.86,-3.1,22.11,12.4,-3.37,-2.73,4.6,-15.52,13.07,-2.34,8.11,0.05,2.37,18.58,-1.28,18.65,-4.49,-1.9,52
0.83,-5.01,20.65,1.46,0.78,-2.05,3.42,-16.76,12.04,-3.22,1.12,-0.98,-0.45,20.16,0.91,4.98,-0.34,2.05,53
-0.13,-4.74,20.63,8.4,-0.29,-0.39,3.65,-18.08,12.4,-1.32,-4.54,0.15,-4.25,15.82,-1.91,42.92,-8.3,1.56,53
-0.31,-6.04,21.27,-3.81,-5.03,-1.95,5.19,-16.99,11.28,0.24,-1.22,-2.59,-2.5,12.46,-14.18,187.65,-26.03,62.84,53
-0.22,-5.1,20.97,-2.25,1.46,2.98,4.09,-22.16,11.73,27.98,17.92,-14.65,3.95,11.87,-17.59,175.0,-3.03,-20.31,53
1.06,-7.76,20.84,-1.12,1.71,-1.37,6.92,-16.19,14.23,196.68,36.91,-88.33,1.82,3.74,-17.82,160.3,35.74,-11.87,53
-6.78,-12.35,21.02,84.47,2.78,-19.24,4.24,1.98,2.49,438.53,-26.03,-36.77,3.9,0.61,-18.83,85.5,33.84,13.92,53
8.11,2.92,13.05,246.58,-75.15,-46.24,2.42,23.1,-6.62,332.08,3.47,2.59,5.45,-1.4,-21.24,-52.98,14.45,-3.66,53
8.61,19.87,-1.6,247.95,-47.9,2.98,5.81,17.15,-2.09,68.12,-28.76,7.13,2.83,-0.79,-20.49,-133.94,2.64,-23.39,53
4.13,20.11,-6.22,180.13,-15.04,23.24,3.93,25.03,-8.57,-57.76,4.79,14.01,7.0,10.99,-17.99,-151.37,23.44,-31.4,53
12.37,25.02,-9.67,105.18,-13.77,36.08,5.69,15.72,-3.47,-150.49,-3.86,48.78,9.81,14.76,-7.94,-110.99,-0.49,-44.82,53
7.25,21.71,-11.82,-90.53,19.14,10.25,4.64,16.36,0.83,-206.98,34.52,98.05,2.62,16.96,-4.28,-111.87,6.2,-56.3,53
7.58,19.43,-6.62,-116.99,43.31,31.69,8.48,3.38,8.24,-263.77,35.74,78.47,-2.33,19.78,-0.48,-56.59,30.86,-29.35,53
5.01,10.73,4.44,-215.87,64.36,17.72,7.62,-13.04,10.79,-276.03,18.55,71.48,-1.76,18.98,1.4,-3.91,2.64,-16.31,53
8.03,4.45,11.82,-186.72,95.95,13.96,9.67,-21.43,12.17,-68.31,-15.43,24.66,0.87,18.06,3.07,1.86,-10.16,-5.57,53
1.49,-0.29,16.14,-166.94,96.63,15.53,8.9,-16.05,11.07,2.59,14.6,0.98,-1.75,18.21,1.13,-4.25,3.66,-6.01,53
3.88,-9.12,21.84,-43.36,-9.81,11.23,6.94,-16.11,11.2,0.63,10.06,-0.44,-1.18,19.86,0.75,13.04,-6.35,-2.78,53
2.85,-5.59,20.21,1.42,-2.2,-6.45,8.6,-16.53,13.08,3.08,3.76,-2.69,-1.09,19.3,1.61,-10.16,2.59,-0.59,53
4.14,-4.78,19.97,9.57,7.96,-0.83,8.06,-14.18,13.0,10.4,10.01,-7.62,-1.0,20.15,1.75,-0.29,-1.81,-2.1,53
4.36,-4.76,21.26,12.16,-4.74,-4.93,7.83,-16.43,12.31,-10.06,-0.2,0.0,-1.16,18.07,1.36,-8.5,-2.64,-6.84,53
3.47,-3.12,20.64,4.98,-2.05,-6.15,7.07,-16.15,12.23,-0.2,3.66,-2.69,-0.88,19.94,1.82,4.83,-1.81,-0.73,53
0.09,-5.2,20.78,12.06,2.05,-4.39,5.79,-18.11,8.83,3.03,1.9,0.93,2.61,19.43,0.53,14.06,-8.59,-0.39,54
-0.1,-5.4,20.69,4.0,5.62,-9.81,6.28,-18.77,7.98,-4.74,-0.98,-2.2,1.52,18.33,-0.79,-0.29,2.59,-4.79,54
-0.39,-5.38,20.81,-5.52,-1.03,1.81,5.4,-17.49,8.16,10.84,8.74,-2.15,1.84,19.21,-0.42,-2.2,3.22,0.29,54
0.15,-5.37,21.26,11.47,6.98,7.18,5.83,-18.25,8.99,-0.88,0.98,2.98,2.66,20.87,-0.2,8.35,1.56,2.93,54
-0.49,-5.75,20.74,4.88,4.79,4.0,5.36,-17.97,8.79,-5.03,-3.22,-0.73,1.96,18.73,-0.4,1.95,0.88,-1.51,54
-1.69,-5.17,20.5,-0.34,1.17,0.93,6.01,-18.55,8.84,5.57,-0.93,0.34,2.17,19.15,-0.33,3.08,0.98,-2.2,54
-1.01,-5.69,21.43,-1.61,2.0,5.27,5.97,-18.22,8.73,2.64,-0.73,1.86,1.74,19.35,-0.87,0.34,6.59,-0.93,54
-1.84,-5.82,20.99,-0.68,7.52,3.03,5.39,-18.11,8.64,-0.54,-1.22,0.15,1.91,19.13,-0.7,0.39,0.83,-4.35,54
-3.59,-6.83,20.6,-0.29,25.1,2.15,5.97,-19.1,9.05,-4.54,-3.96,1.22,1.48,18.94,-0.05,-0.29,3.42,-7.28,54
-5.71,-10.7,20.55,28.22,12.01,0.1,5.44,-18.42,8.65,-1.17,0.63,3.32,-1.23,16.66,-0.86,39.45,3.52,3.27,54
-0.93,-3.1,19.49,170.56,6.98,5.76,5.55,-20.12,7.93,-11.52,-1.71,4.2,-1.37,16.54,-7.81,118.02,-19.78,13.96,54
-2.88,12.55,8.33,304.93,2.88,40.82,6.78,-25.48,6.43,20.85,8.74,-5.27,3.71,15.74,-17.16,200.49,-61.57,22.31,54
0.68,20.49,2.28,139.6,-0.88,47.66,9.25,-20.77,10.67,131.54,77.0,-12.6,1.35,6.41,-18.67,106.05,-12.11,-8.54,54
2.61,19.43,-1.88,110.84,-14.6,48.05,-1.3,-6.34,11.91,258.15,84.23,-2.1,1.01,1.45,-19.08,112.11,-7.13,-1.61,54
3.34,17.32,-3.47,54.74,-16.85,40.63,2.22,11.1,8.74,339.26,4.05,9.13,0.67,-1.62,-16.92,58.4,18.51,5.76,54
5.41,25.41,-8.08,32.18,-1.71,27.05,-1.71,23.45,2.22,201.32,23.93,7.67,0.23,-2.02,-21.25,25.0,35.79,5.13,54
3.79,22.06,-6.48,-55.81,-6.84,-9.86,-1.59,18.31,-0.32,57.57,6.64,12.06,2.45,-1.05,-21.33,-45.26,44.97,10.84,54
4.36,19.86,-2.72,-108.01,10.84,5.08,-0.32,30.12,-4.04,55.52,-2.64,25.34,7.57,3.82,-17.68,-80.66,61.08,-9.52,54
4.38,23.39,1.01,-162.01,18.65,-0.63,-0.18,21.95,-1.78,-71.48,-20.36,-0.1,10.11,8.85,-16.51,-84.81,54.88,-12.16,54
8.27,16.61,9.42,-126.27,34.18,-9.28,0.02,18.54,2.51,-102.73,-36.33,40.33,9.84,10.99,-13.31,-98.14,17.63,-53.66,54
-1.3,16.32,2.53,98.1,14.7,57.81,2.03,28.21,-1.15,85.74,0.78,43.12,2.42,21.77,-16.43,182.67,-110.6,-29.25,55
6.17,20.7,-3.69,118.07,-20.65,76.81,5.23,25.12,-0.75,15.67,-2.39,12.74,1.08,12.58,-13.69,93.65,-24.37,-31.4,55
7.44,18.54,-5.03,28.66,-9.86,46.39,1.8,22.5,-2.6,-34.28,-16.85,6.79,-2.16,4.47,-16.01,78.12,7.57,-32.32,55
9.31,19.56,-5.92,-12.99,-16.11,13.62,3.1,20.41,0.05,-194.78,-54.2,37.01,1.44,0.58,-19.61,95.21,79.98,-15.58,55
6.59,19.21,-6.63,-51.37,-10.55,-7.28,14.04,11.37,13.39,-154.79,-40.28,35.06,-0.33,-0.11,-18.51,57.28,56.4,-2.54,55
5.34,17.4,-1.5,-187.89,-19.58,15.48,9.47,10.78,14.72,-125.83,4.3,30.08,2.46,-1.94,-20.79,-6.98,54.54,11.72,55
9.34,16.49,8.47,-121.39,32.76,-8.79,7.1,-1.23,11.51,-266.02,-3.08,39.7,3.44,-2.43,-19.82,-45.31,13.96,-4.1,55
7.08,17.08,12.3,-107.57,52.2,-8.98,7.47,-26.43,9.24,-215.77,-21.48,19.63,6.9,5.12,-18.58,-117.68,62.6,17.58,55
3.02,9.39,15.42,-129.39,62.35,-3.96,6.78,-17.33,8.52,-21.63,20.51,22.02,6.39,5.98,-19.04,-101.81,42.87,-7.32,55
0.92,1.03,18.02,-119.82,42.63,-10.99,6.2,-18.68,7.59,-28.86,-7.96,1.56,13.37,12.02,-11.59,-65.97,2.49,-26.37,55
0.9,-6.71,21.69,-43.02,-2.05,-11.77,5.68,-18.92,7.31,5.47,11.91,-10.21,8.7,15.05,-9.54,-100.73,27.54,-39.4,55
-3.14,-3.69,20.38,-30.66,-15.04,-0.98,5.88,-17.73,8.14,-4.79,3.17,-6.25,5.93,15.92,-5.3,-75.93,18.12,-36.38,55
-3.28,-6.68,19.53,18.99,8.74,-9.86,8.03,-18.9,9.62,25.29,17.58,-7.76,3.34,14.76,-0.9,-27.44,-9.33,-24.02,55
-2.58,-4.02,20.55,6.79,0.05,-6.35,6.88,-16.62,10.21,6.88,13.57,-1.61,4.35,18.97,0.6,-21.05,-3.12,-12.7,55
-1.22,-4.66,21.2,29.49,-1.66,-8.2,6.99,-16.19,11.66,5.22,6.69,1.42,1.75,16.57,-0.25,0.2,-6.05,-9.37,55
1.4,-0.97,21.66,25.73,-6.98,-7.62,6.91,-16.64,11.36,-7.81,-0.98,0.93,2.45,19.61,-0.41,8.11,-6.4,-2.73,55
0.85,-0.57,22.36,20.75,-1.61,0.15,7.32,-16.87,10.73,-5.91,-1.03,1.9,1.98,17.69,-1.76,7.71,-5.52,0.2,55
0.19,-0.72,21.57,-4.3,-5.27,-0.49,6.26,-16.15,10.68,-2.59,-0.1,3.27,4.44,19.85,-1.93,33.15,-16.85,8.25,55
-0.4,-1.22,21.54,-2.59,-6.01,0.29,6.49,-16.94,10.62,-9.86,-4.44,3.08,3.89,17.93,-3.15,13.96,-2.54,3.96,55
-1.16,-1.0,20.98,2.64,0.2,1.61,6.67,-18.28,9.62,-19.87,-6.1,3.71,3.68,17.68,-3.42,-2.54,0.78,-2.83,55
2.74,-6.89,20.82,15.97,37.79,11.38,10.51,-18.93,6.97,9.03,2.2,17.43,2.87,18.31,0.16,-0.34,3.42,1.17,56
1.54,-6.95,20.69,-14.01,-13.09,1.12,5.17,-17.26,7.88,25.59,18.31,3.66,2.95,19.12,0.27,4.05,1.42,0.59,56
0.91,-5.51,20.99,2.44,-7.37,0.1,7.52,-19.18,7.29,-8.84,-5.42,-6.15,3.12,18.68,0.7,3.17,1.95,0.34,56
0.95,-5.94,21.08,1.22,-8.4,0.63,8.3,-16.14,7.78,14.45,-2.1,-5.71,3.13,19.2,0.35,3.86,3.32,0.54,56
1.34,-5.55,20.97,2.49,-9.77,-0.34,7.24,-19.19,7.85,-9.28,-5.86,1.03,2.51,18.85,0.63,5.13,1.9,0.15,56
-0.49,-5.62,20.72,-0.39,0.78,-1.22,8.49,-17.5,8.52,1.86,-2.2,-4.05,-2.1,2.39,-8.95,190.67,-133.3,13.82,56
-2.09,-23.12,15.89,187.89,20.36,-64.36,7.64,-16.98,8.48,7.67,2.0,-1.66,6.34,20.78,-17.74,202.69,-170.21,-50.05,56
-1.31,24.64,-0.27,416.02,20.12,2.0,6.75,-17.57,8.08,-6.1,-0.15,-3.08,-1.25,-3.65,-13.83,40.28,-7.52,-87.84,56
-1.35,13.1,-2.05,146.19,35.84,57.18,9.01,-17.71,8.63,1.27,0.05,-1.27,-4.48,-1.78,-19.44,66.75,64.31,-3.81,56
4.93,18.12,-3.99,67.24,-25.63,61.57,7.8,-17.78,8.34,-0.73,1.27,2.64,-0.88,0.5,-19.94,55.03,46.78,8.64,56
7.04,19.99,-4.63,50.98,-15.77,44.68,7.59,-16.78,8.32,-1.37,-0.2,-0.78,-0.05,0.57,-23.47,-36.67,37.89,0.29,56
5.48,25.68,-7.12,-13.77,9.57,6.2,9.3,-17.71,8.98,3.81,-3.22,-4.49,2.66,4.49,-19.11,-100.98,41.5,27.49,56
