ACC-X-Ring1,ACC-Y-Ring1,ACC-Z-Ring1,GYRO-X-Ring1,GYRO-Y-Ring1,GYRO-Z-Ring1,ACC-X-Ring2,ACC-Y-Ring2,ACC-Z-Ring2,GYRO-X-Ring2,GYRO-Y-Ring2,GYRO-Z-Ring2,ACC-X-Ring3,ACC-Y-Ring3,ACC-Z-Ring3,GYRO-X-Ring3,GYRO-Y-Ring3,GYRO-Z-Ring3,TEST
23.14,-12.88,4.03,-116.85,-129.59,-30.71,18.98,-8.17,7.36,23.39,141.7,7.86,2.14,20.44,6.17,38.62,18.12,-98.88,1
20.21,-11.51,-1.0,8.5,-39.7,6.2,9.74,-5.39,11.89,43.6,168.41,-20.31,-5.33,19.34,4.46,49.51,15.43,-106.4,1
21.24,-9.59,-1.29,20.12,-3.22,6.93,3.96,-1.71,15.48,43.6,164.26,-21.24,-8.77,16.86,3.31,-8.45,24.51,-82.08,1
21.95,-9.32,-0.2,44.97,102.44,14.84,-2.87,-0.02,18.75,21.0,87.26,-11.77,-11.98,16.32,2.37,-14.7,16.16,-54.35,1
18.71,-7.53,8.02,52.25,123.44,9.28,-5.59,-0.85,19.28,-8.06,-9.18,-7.86,-12.4,15.33,1.86,-1.07,-3.71,-11.43,1
14.11,-8.19,11.65,77.49,160.45,-3.71,-5.73,-1.14,21.16,-12.55,6.05,-10.11,-13.03,15.81,3.49,9.23,-8.25,-8.79,1
7.2,-4.85,17.85,53.37,121.58,-16.41,-3.05,-2.55,20.76,-1.07,-4.54,2.05,-13.01,14.97,3.39,-1.22,4.2,-9.42,1
-5.98,2.95,20.62,61.96,110.99,-14.5,-3.74,-1.33,20.42,-4.93,-8.45,5.08,-13.1,16.57,3.01,2.34,7.18,-5.42,1
-8.86,2.92,18.31,10.06,24.51,-12.16,-3.25,-1.63,20.56,7.71,-1.12,-1.86,-13.73,13.63,3.21,-6.35,2.05,7.91,1
-3.62,2.63,21.66,7.62,4.64,-5.76,-2.1,-0.1,21.16,3.86,-0.73,9.18,-14.75,15.34,2.93,-5.57,15.63,-1.71,1
-5.66,0.87,20.63,-3.91,2.44,0.39,-2.08,-1.09,21.17,-0.83,0.68,3.37,-13.46,15.19,3.24,-0.49,6.15,-1.51,1
-5.25,1.76,20.33,-1.56,1.9,3.47,-0.97,0.17,20.78,-0.0,-0.29,-0.2,-13.98,15.74,3.01,-3.17,3.61,-0.59,1
-6.46,0.17,18.91,-7.67,-14.21,5.62,-1.61,-0.35,21.19,-4.98,-2.2,1.03,-13.44,15.41,2.78,-4.59,2.93,-0.93,1
-3.76,1.19,21.19,10.6,-8.4,11.23,-0.17,-1.47,21.64,-1.56,-11.18,1.12,-12.86,16.19,3.52,2.78,0.1,5.18,1
-4.51,2.35,21.58,4.49,-9.77,6.3,-0.33,-0.21,21.2,-2.64,-2.25,-0.44,-13.57,16.38,3.1,4.05,0.34,3.17,1
-4.99,1.56,20.39,-1.17,-5.37,5.66,-0.17,-1.03,21.14,0.68,2.49,-3.71,-13.64,15.43,3.12,4.39,-0.39,-0.59,1
-4.98,2.22,20.86,0.15,-10.89,2.25,-0.38,-1.09,21.19,-3.22,1.95,-4.25,-13.93,14.67,3.13,-7.72,1.42,-3.08,1
-4.07,0.96,20.67,-7.37,-7.32,1.22,-0.23,-1.22,21.26,-1.03,1.46,0.1,-13.53,15.75,3.53,-1.66,3.47,-3.47,1
-4.43,1.3,21.08,2.49,2.49,3.42,-0.95,-1.23,20.84,-1.56,-1.22,-2.05,-13.89,14.96,3.15,-2.0,2.54,-6.2,1
-3.52,1.32,21.06,0.83,0.39,1.42,-1.26,-0.97,20.69,-2.54,-1.86,5.42,-13.63,15.96,3.69,-1.32,7.76,-8.3,1
13.72,-7.66,15.13,53.71,140.63,3.13,21.43,-8.69,0.86,36.18,100.0,-11.91,4.28,19.43,6.89,42.63,16.85,-19.04,2
4.89,-3.37,17.56,70.07,123.1,-8.59,20.41,-8.25,6.92,33.54,139.45,-2.64,0.95,19.0,6.16,30.47,21.24,-71.63,2
-0.52,-1.79,19.32,39.55,88.77,-10.99,17.53,-7.93,13.92,37.74,159.57,-6.35,-4.13,18.2,5.22,-7.28,29.88,-82.03,2
-4.21,-0.82,19.29,34.81,75.93,-16.31,8.38,-3.58,17.33,33.25,107.76,-13.13,-6.17,18.7,5.42,18.95,23.05,-78.52,2
-9.5,0.58,18.85,16.31,29.69,-6.45,1.29,-2.5,18.66,29.54,85.69,-9.03,-9.99,16.1,5.16,8.98,23.78,-70.17,2
-7.2,2.09,20.42,15.53,8.94,-3.22,-3.46,-1.49,18.9,21.24,70.31,-16.11,-13.01,15.91,3.79,5.47,18.02,-51.51,2
-7.98,1.38,20.11,0.54,6.2,-0.34,-5.82,-0.5,19.61,9.96,18.95,-6.98,-16.08,13.21,2.78,10.4,13.53,-23.49,2
-6.1,0.96,21.21,6.79,-6.3,7.28,-5.14,0.27,20.16,6.05,6.84,-7.96,-15.79,12.98,3.26,6.2,3.66,-4.98,2
-9.16,2.61,20.87,2.44,-11.72,-0.24,-4.85,-0.69,20.85,-4.49,-3.66,-0.1,-15.95,13.21,3.11,-1.12,3.86,-5.47,2
-8.87,2.61,20.23,2.25,-1.07,7.91,-1.89,0.39,21.18,15.58,8.5,-0.54,-15.87,12.69,2.95,4.49,8.3,-2.54,2
-8.28,1.12,19.54,5.47,-2.88,5.27,-1.59,0.43,21.73,7.96,3.17,-2.93,-16.77,12.18,1.97,10.11,2.2,2.59,2
-7.96,1.83,20.31,6.93,-1.17,-1.37,-3.99,2.04,20.55,4.0,8.94,-7.08,-18.05,12.91,1.85,-9.18,12.11,-10.21,2
-8.26,1.66,19.84,-0.73,-3.76,-0.83,-4.66,1.68,20.1,5.86,1.03,-0.29,-16.35,12.85,2.48,-9.57,6.54,-6.54,2
-7.48,2.1,20.08,-1.51,-8.64,3.42,-4.74,0.38,20.63,3.08,2.05,0.05,-16.95,12.39,2.43,4.1,0.0,-0.78,2
-8.35,2.61,19.77,2.64,-4.35,4.05,-4.66,-0.26,20.71,-0.73,-3.42,-1.07,-17.24,11.32,2.24,-4.44,1.61,-0.29,2
-8.2,1.52,20.2,-5.22,0.93,-0.34,-4.1,0.12,21.26,11.18,-3.17,-0.49,-16.78,12.85,2.62,-0.63,3.76,0.0,2
-8.76,1.97,19.6,0.73,3.17,-2.93,-2.99,1.05,20.93,2.39,-0.73,-2.1,-16.88,12.89,2.26,2.2,5.76,0.68,2
-7.94,1.44,20.42,3.47,1.9,0.68,-4.87,0.5,20.33,0.34,-1.56,5.18,-17.08,13.86,2.3,11.28,2.15,2.1,2
-8.91,0.85,23.3,-14.75,9.03,-7.18,-5.05,0.23,20.54,-1.56,-5.03,-0.73,-17.56,11.19,2.0,2.1,0.44,-1.66,2
-8.43,1.74,20.22,0.34,-0.49,-0.49,-4.24,0.3,20.64,1.56,1.12,-0.44,-16.99,12.15,2.65,-0.73,2.78,-0.78,2
22.71,-8.6,3.75,-20.75,-101.46,4.25,23.3,-8.28,2.11,-20.02,-105.57,8.94,8.65,17.29,8.31,-1.32,-20.17,80.18,3
19.46,-7.09,0.24,6.4,-38.48,5.57,20.6,-5.94,-2.22,5.27,-39.4,5.27,7.99,14.81,7.32,-4.83,15.04,30.08,3
18.26,-7.0,-0.88,-4.39,-43.12,7.67,18.73,-6.1,-2.7,-2.39,-40.38,9.62,8.58,13.65,7.26,-4.69,10.79,31.15,3
19.18,-5.0,-2.49,13.53,17.09,12.84,19.74,-3.88,-5.5,6.49,21.97,8.01,7.79,15.1,7.53,-15.53,21.78,-12.7,3
17.62,-7.0,-0.68,17.28,69.04,10.5,18.31,-6.37,-2.43,15.23,68.8,8.64,9.52,18.48,8.22,8.84,12.99,-52.78,3
15.06,-6.76,2.74,23.34,112.45,0.54,14.62,-3.79,0.46,23.1,101.51,-5.03,4.74,22.93,7.71,25.59,4.49,-87.45,3
15.84,-10.08,8.04,16.55,91.8,-1.95,15.6,-8.21,6.32,16.26,93.95,-2.59,2.71,21.98,8.36,37.16,6.05,-78.71,3
12.58,-8.68,9.88,32.23,86.28,1.51,12.63,-5.97,9.07,21.68,79.1,-7.86,-0.98,20.28,7.23,35.5,10.5,-64.89,3
8.99,-7.16,13.49,56.54,101.37,-5.62,8.52,-3.94,12.02,28.81,80.13,-17.48,-3.19,20.94,5.7,25.44,7.13,-66.26,3
10.44,-8.88,15.64,20.51,64.55,4.15,7.52,-5.59,14.98,15.09,58.54,-7.13,-5.79,19.48,5.7,13.67,11.91,-57.37,3
7.48,-6.57,17.5,25.78,62.55,5.32,6.33,-4.88,16.82,14.94,52.29,-3.81,-8.74,18.5,4.92,-0.2,15.19,-52.54,3
5.8,-5.72,19.41,17.63,54.64,-1.46,5.01,-4.95,18.54,10.06,52.88,-9.67,-10.81,16.24,3.87,4.0,7.71,-45.95,3
3.45,-3.35,20.31,18.85,43.41,-10.35,2.85,-3.77,19.43,11.18,38.53,-13.82,-12.96,15.25,3.14,12.01,5.27,-37.45,3
1.75,-1.22,20.99,11.33,27.25,-15.62,1.37,-3.68,20.69,-2.98,24.17,-13.77,-14.71,14.35,2.16,17.24,-2.64,-22.22,3
-0.39,-0.99,21.09,12.4,25.1,-4.35,0.75,-2.39,20.71,-0.2,18.6,-1.86,-15.78,14.64,1.81,6.15,5.13,-20.75,3
-2.95,-0.42,20.54,4.0,14.45,0.93,1.26,-2.27,21.1,4.15,3.56,3.42,-16.06,12.76,1.55,-0.88,7.08,-11.72,3
-3.39,-1.11,20.9,3.66,12.65,4.69,1.02,-0.55,21.26,12.01,9.62,2.05,-16.46,13.67,1.55,1.76,8.35,-12.01,3
-5.2,-1.38,21.87,-0.29,-2.64,-1.9,2.18,-2.28,21.28,12.94,9.28,0.39,-16.94,11.82,1.05,7.67,3.22,1.76,3
-5.2,0.85,21.17,3.12,-2.1,-0.34,-0.59,-0.63,20.82,-1.9,6.69,-8.01,-18.9,11.86,0.4,-0.1,3.08,0.24,3
-2.7,-0.14,21.48,5.66,-5.57,0.78,-1.73,-0.74,20.68,-0.83,10.89,-5.42,-18.17,12.53,0.84,-3.03,2.98,0.24,3
17.55,-4.16,8.37,-56.45,-149.61,10.94,21.75,-6.2,7.19,-39.01,-134.52,17.48,7.45,19.53,3.97,28.56,-12.65,74.17,4
21.11,-3.48,2.62,-10.06,-104.59,-7.71,20.9,-2.45,0.3,5.52,-81.59,5.96,11.23,15.23,3.05,5.37,-13.87,56.3,4
21.25,-2.95,-3.04,-24.71,-89.01,-5.71,22.69,-4.26,-3.84,-28.81,-81.1,4.3,14.87,18.58,2.95,2.25,7.28,13.48,4
22.79,-3.08,-4.44,9.37,-8.2,7.81,22.22,-3.05,-6.24,3.95,0.59,6.74,13.03,14.58,3.54,0.98,-1.07,-4.88,4
20.2,-4.58,-3.5,-5.32,6.15,3.56,17.32,-3.43,-4.46,-3.47,14.75,1.61,10.6,14.67,3.15,-2.88,4.88,-13.38,4
17.65,-1.9,-1.77,-6.74,22.95,11.87,20.11,-2.7,-4.42,-27.64,15.97,13.53,11.58,14.86,3.5,-3.03,-8.25,-21.97,4
21.16,-5.51,-0.63,-7.91,34.42,7.32,20.04,-5.28,-1.6,-15.33,46.29,5.91,10.94,17.17,4.08,-2.3,1.51,-57.23,4
20.73,-6.8,0.72,1.66,71.09,9.72,20.77,-5.56,0.43,-2.73,77.83,1.51,6.95,18.95,3.74,8.59,13.92,-76.07,4
18.53,-6.52,4.45,23.14,80.37,10.5,23.04,-7.25,6.53,15.23,85.45,-8.25,3.31,21.33,2.5,7.08,20.12,-112.21,4
10.86,-0.09,8.44,48.73,117.48,-3.47,16.46,-4.81,11.05,11.47,76.66,-8.4,-4.0,18.79,1.5,23.39,17.82,-91.65,4
8.99,0.83,13.85,55.47,94.87,-24.27,13.79,-0.46,14.08,8.54,66.6,-11.43,-6.96,16.6,1.19,7.03,8.89,-66.36,4
8.72,-1.06,16.95,42.82,71.39,-20.75,10.91,1.09,16.29,20.02,55.08,-13.96,-9.28,16.55,0.82,-13.43,8.94,-54.1,4
3.33,-0.11,16.97,14.06,52.1,-5.37,6.76,0.31,17.35,3.71,18.26,-6.88,-10.49,16.85,0.92,1.03,8.01,-35.69,4
5.17,-0.78,18.43,9.52,38.92,-1.17,7.37,0.36,18.6,6.45,26.61,-2.29,-12.17,16.31,0.66,-6.01,11.33,-33.35,4
4.66,-0.37,19.23,7.62,36.52,5.27,4.75,0.83,18.55,3.03,30.62,2.93,-14.73,13.46,-0.01,2.93,11.33,-20.02,4
1.25,0.8,20.23,6.74,11.91,-1.12,4.45,2.09,20.01,9.03,16.31,-3.22,-14.31,15.18,0.1,-2.2,7.76,-15.19,4
1.71,0.5,21.05,3.08,10.94,6.49,4.2,1.39,20.33,1.46,16.6,0.1,-15.17,14.06,-0.2,7.28,7.71,-12.99,4
0.28,0.98,20.9,6.84,11.62,-0.24,1.92,1.97,20.17,-0.1,3.66,-0.34,-15.54,14.1,-0.21,3.81,1.66,-0.29,4
0.44,1.28,20.94,-0.15,-3.32,0.29,3.7,1.32,20.58,-0.49,3.17,-1.17,-15.39,14.64,0.06,1.46,1.42,-3.86,4
0.4,1.08,20.95,2.15,1.42,0.98,3.11,1.25,20.7,-1.47,-0.59,-2.54,-14.92,15.01,0.56,2.54,0.29,1.27,4
16.81,-1.25,4.81,-27.54,-126.12,21.68,0.84,2.64,20.16,1.9,1.17,2.05,12.61,17.74,5.99,2.93,13.57,-45.65,5
19.77,-2.45,-2.52,-47.31,-127.78,17.48,1.82,2.28,20.54,0.24,0.1,-3.42,9.25,16.5,4.78,21.53,25.39,-104.44,5
29.37,-10.42,-3.94,-58.74,-90.43,-3.22,2.24,2.29,20.6,-1.86,2.15,-0.24,6.58,18.72,3.94,37.65,8.79,-108.64,5
25.79,-8.95,-2.49,9.77,14.55,18.46,2.01,2.21,20.47,-2.88,-0.68,0.68,2.37,18.03,4.12,22.46,9.81,-101.9,5
23.04,-9.04,0.31,29.35,77.59,10.16,1.9,2.3,20.32,-2.44,0.39,-0.78,-0.69,20.34,3.66,7.81,10.01,-84.42,5
20.06,-5.09,2.23,18.75,95.56,4.93,2.42,2.61,20.65,0.15,-2.64,1.61,-4.83,19.63,2.23,10.2,19.19,-69.63,5
13.82,-3.16,7.16,35.74,88.18,-10.25,2.55,2.79,20.53,-0.39,-5.27,3.56,-9.93,18.28,1.27,6.05,9.47,-52.0,5
11.34,-3.17,10.45,25.2,74.07,-18.51,2.48,2.92,20.4,-0.39,-0.39,-0.88,-12.5,18.99,0.11,-6.93,-4.69,-29.69,5
10.39,-2.95,13.36,28.66,68.55,-7.18,2.4,2.57,20.39,-1.56,-3.52,-0.68,-13.96,14.8,0.94,-2.59,1.61,-37.45,5
8.0,0.87,16.85,41.65,75.05,-8.3,2.79,2.4,20.52,-0.63,-1.07,-1.51,-14.04,15.52,0.8,10.45,-5.37,-19.68,5
7.55,-2.02,17.88,15.19,72.41,-9.37,2.14,2.54,20.16,-3.03,0.24,2.98,-14.74,12.89,2.47,2.0,-5.66,-31.2,5
5.26,-0.84,20.59,-7.23,44.82,-2.44,2.03,2.55,20.02,0.54,1.86,0.88,-14.53,10.02,3.14,2.69,4.79,-23.73,5
2.38,-0.8,20.02,-3.86,24.12,-6.4,1.6,2.68,19.74,1.22,0.78,0.63,-17.09,10.78,1.84,-3.27,3.17,-3.76,5
3.19,-0.72,21.8,4.44,16.99,-9.13,2.61,2.29,20.31,0.34,0.1,-0.44,-17.0,12.79,0.92,5.62,3.13,-1.76,5
-3.96,-2.13,19.44,1.03,12.26,-9.47,2.87,2.5,20.43,1.22,-0.29,-0.24,-16.69,13.27,0.63,21.53,3.76,10.64,5
-6.4,-2.5,19.17,9.23,14.84,-1.86,2.84,1.92,20.74,2.59,-1.03,1.07,-15.53,14.34,-0.25,14.75,7.57,17.09,5
-5.99,-1.82,20.36,3.56,3.08,-1.9,2.86,1.74,20.75,-2.93,-9.08,3.32,-15.03,13.05,-0.63,-2.15,9.23,5.37,5
-4.16,0.01,20.28,4.49,0.88,-6.45,2.63,2.07,20.24,-1.86,-6.1,2.98,-14.92,13.17,-0.77,-3.71,5.37,4.3,5
-1.3,0.97,20.95,16.36,-1.56,-6.79,2.91,2.76,20.47,-1.03,-1.46,1.27,-14.9,15.44,-0.86,17.38,-4.44,0.34,5
1.46,2.57,21.82,19.34,-7.08,0.59,2.38,2.37,20.28,-5.08,-1.56,1.17,-15.14,13.13,-0.9,3.03,-5.66,-1.27,5
16.8,-1.59,11.59,-4.49,-98.44,-0.73,21.02,-5.52,1.95,-42.72,-75.34,12.99,-13.13,16.2,3.85,-1.56,3.71,-3.71,6
19.25,-0.05,5.5,-16.31,-123.19,5.03,25.36,-4.09,0.8,-57.72,-84.13,12.99,-12.73,16.44,3.98,-2.0,6.59,-4.98,6
19.6,-1.31,-0.17,-10.64,-91.75,7.28,22.87,-2.58,-1.36,2.98,27.39,7.67,-11.79,16.76,4.0,6.74,0.93,-0.98,6
20.01,-1.37,-4.45,-7.08,-63.72,20.61,20.08,-5.71,0.64,56.69,60.25,16.94,-12.82,16.48,4.06,0.34,4.59,-2.44,6
26.79,-6.48,-7.39,-42.58,-52.88,27.64,18.24,-4.88,3.01,48.19,104.54,-3.17,-11.69,16.42,3.48,2.69,-3.66,2.69,6
24.99,-2.98,-5.1,-4.59,49.95,17.14,17.5,-6.7,9.16,14.21,74.85,7.28,-12.22,16.24,3.77,0.78,1.12,0.73,6
23.12,-4.13,-2.72,29.78,41.7,11.43,15.27,-5.31,13.96,11.03,98.58,13.48,-12.35,17.02,3.93,-2.1,3.37,-3.12,6
20.42,-4.24,-0.17,10.16,79.54,-9.96,9.76,-0.45,17.05,30.66,68.31,1.9,-12.39,17.05,4.13,0.68,1.9,-3.47,6
18.27,-3.44,6.19,5.86,85.16,1.81,8.14,-2.78,18.3,-0.59,40.72,-17.53,-12.12,16.67,4.13,0.68,3.71,-2.59,6
21.66,-2.53,9.6,-13.53,131.05,14.6,6.58,-2.28,19.67,-3.52,33.3,0.29,-12.27,16.52,3.81,2.2,1.66,-0.49,6
16.67,-0.95,15.81,-3.22,67.38,-0.2,4.63,-2.85,19.79,1.81,35.5,0.98,-12.12,16.08,4.03,0.44,2.49,-0.88,6
12.64,-4.26,14.61,-31.74,36.62,-10.69,4.44,-3.04,19.86,6.01,17.63,5.66,-12.21,16.09,3.7,3.12,1.46,-0.68,6
10.52,-2.47,18.65,-16.8,38.57,1.42,4.65,-4.78,19.96,9.33,10.45,8.11,-12.56,16.05,3.83,1.03,1.86,-1.22,6
8.28,-1.86,19.41,-4.44,39.06,1.95,0.56,-2.17,18.76,7.18,7.23,5.37,-12.42,16.1,3.84,3.22,2.64,-2.15,6
7.81,-1.97,19.4,3.81,12.4,7.42,3.79,-1.87,20.35,7.13,1.76,-2.2,-12.08,15.93,4.03,2.05,1.22,-1.22,6
6.32,-2.75,19.14,11.57,3.13,5.71,3.88,-2.5,21.19,3.17,5.03,4.79,-12.51,15.56,3.99,-0.34,2.15,-0.44,6
3.61,-1.95,18.65,-1.42,13.43,5.22,3.18,-2.68,20.6,1.61,4.83,3.08,-12.1,15.91,3.68,6.59,-2.88,0.78,6
5.88,-0.16,20.46,4.0,-5.57,-3.37,3.14,-2.35,20.64,-0.59,3.66,-0.98,-12.72,14.83,3.87,0.44,0.39,0.2,6
7.23,-1.78,21.08,0.24,3.52,4.15,2.41,-2.66,20.36,-2.54,7.13,-2.59,-12.76,15.0,3.98,-6.64,3.27,-0.78,6
6.41,-1.69,20.05,1.27,-5.62,0.98,4.03,-2.81,20.33,-1.66,-0.24,-0.44,-12.51,16.12,4.14,-2.34,2.69,-1.56,6
23.26,-3.21,0.27,-18.65,-66.94,-8.5,11.68,-1.83,8.38,-10.99,-116.11,-19.14,14.43,13.94,9.66,72.12,-62.65,48.14,7
21.34,-0.6,-2.25,-10.84,-54.54,11.23,23.61,-9.99,5.46,-77.73,-173.68,-19.29,14.24,12.73,7.02,-19.34,-21.83,36.08,7
17.9,-1.17,-4.27,-6.88,-31.84,2.83,23.64,-5.95,1.91,-28.37,-73.0,-19.38,14.9,10.41,6.86,-14.8,-16.99,20.56,7
17.82,-2.36,-6.1,-3.03,-16.02,-5.18,20.6,-2.64,-1.06,-8.69,-47.07,3.61,14.77,10.0,6.97,12.84,-15.09,7.67,7
19.28,-1.59,-7.46,1.66,-9.77,1.76,18.77,-4.2,-3.2,-5.71,-37.16,-2.78,16.48,9.21,5.72,8.84,-4.15,3.52,7
23.94,-2.92,-6.69,-1.71,87.21,25.34,18.51,-4.11,-5.03,-2.0,-18.75,-9.03,15.6,10.17,7.2,15.92,49.27,-24.76,7
20.53,-3.55,-0.03,2.34,82.96,13.62,20.46,-4.11,-5.64,-4.2,-8.11,3.91,14.72,11.12,8.57,1.9,47.51,-46.68,7
17.6,-3.54,1.88,5.76,81.05,15.33,22.71,-6.35,-5.07,-3.52,73.78,34.96,11.09,12.19,8.87,-0.15,44.87,-51.51,7
16.99,-2.79,6.09,9.57,92.53,0.29,18.76,-3.78,-2.12,2.54,80.96,13.43,8.01,13.74,9.9,11.23,39.16,-61.18,7
15.86,-2.99,10.82,13.28,93.8,3.27,17.97,-6.08,2.36,12.99,85.16,13.23,5.62,15.7,10.92,4.93,39.84,-49.61,7
11.5,-4.26,14.7,23.1,68.16,10.21,17.15,-6.04,7.86,11.82,85.25,12.01,1.97,16.46,10.74,8.64,45.12,-43.41,7
6.96,-2.22,17.45,16.5,79.69,8.69,12.78,-6.91,11.15,6.69,82.23,14.99,-1.83,15.28,10.52,4.3,36.33,-32.18,7
1.03,-5.93,19.34,12.99,80.13,-1.37,10.99,-7.38,14.14,23.14,70.95,25.63,-1.99,19.21,10.57,23.49,9.03,-21.48,7
-0.55,-3.19,20.04,5.96,48.78,-3.22,7.74,-6.36,16.33,10.06,61.91,12.45,-4.11,16.63,10.04,8.25,4.3,-9.96,7
-3.09,-3.8,21.24,7.71,47.02,-0.29,3.35,-7.14,18.83,38.23,36.18,9.33,-4.18,17.91,10.23,22.36,4.93,-10.21,7
-2.49,-3.74,20.7,-4.59,28.71,2.15,4.0,-6.88,19.93,19.73,35.16,-0.34,-5.25,18.39,9.63,6.54,12.79,-8.2,7
-3.36,-2.98,21.33,-1.27,29.83,3.08,-0.99,-6.27,19.82,12.21,16.11,3.37,-4.61,18.56,9.89,9.03,6.35,-13.82,7
-2.16,-1.65,20.86,-1.07,18.95,1.71,-1.05,-7.03,20.69,1.86,4.49,6.79,-5.46,18.32,9.73,-0.73,9.77,-11.91,7
-3.73,-3.17,20.23,-10.64,25.49,3.42,-3.23,-5.97,19.51,8.06,14.21,5.96,-6.5,17.85,9.68,2.1,6.54,-7.03,7
-3.28,-2.47,20.13,-8.45,6.25,-0.34,-5.17,-6.4,19.14,0.2,-1.46,7.37,-6.8,17.37,9.69,3.56,-0.24,-4.2,7
22.39,0.44,-6.95,-10.84,-75.34,18.41,21.02,-2.27,-11.98,15.04,-5.66,3.81,22.35,7.89,2.04,39.06,-31.05,3.52,8
19.04,-2.39,-6.75,3.08,-52.44,-3.12,21.59,-9.03,-9.68,53.56,107.52,54.39,19.12,10.68,-0.22,8.74,75.29,-22.85,8
14.51,-1.17,-10.41,1.95,-51.03,-7.28,17.4,-5.69,-5.47,9.77,69.53,13.43,14.3,10.42,4.81,-36.28,60.84,-51.17,8
20.3,-1.46,-13.74,16.55,-0.93,6.4,17.05,-7.41,-1.98,13.38,79.2,16.46,15.52,9.24,7.7,-10.6,40.58,-54.69,8
15.08,-2.62,-12.71,59.28,111.96,32.67,17.55,-9.36,3.06,18.07,98.83,3.52,10.72,10.12,11.05,-12.55,43.26,-57.71,8
12.06,-3.43,-5.33,0.68,82.81,13.23,14.08,-10.76,7.63,12.74,105.37,9.72,7.8,11.92,10.59,-4.0,58.45,-64.94,8
16.24,-5.11,-2.79,7.47,82.03,6.84,9.1,-10.99,12.29,4.64,77.34,25.93,7.55,16.67,11.84,-2.25,50.2,-56.88,8
15.17,-5.24,3.27,18.36,86.04,-8.79,11.82,-9.88,15.38,27.0,58.89,27.98,2.24,14.44,13.86,-5.47,56.3,-51.86,8
12.06,-6.87,6.62,18.02,116.55,-0.24,6.35,-9.04,16.0,22.41,44.97,20.9,-1.82,11.93,13.85,-20.65,45.12,-63.87,8
8.18,-7.21,12.43,12.11,105.18,8.98,4.08,-8.64,17.1,3.12,29.39,7.71,-4.6,12.75,14.14,9.62,18.99,-28.22,8
7.39,-5.31,17.5,25.49,68.9,12.26,1.9,-9.92,18.84,3.91,22.46,5.76,-9.07,11.47,13.68,-6.3,24.9,-17.87,8
8.44,-4.79,17.01,8.79,42.24,11.43,2.19,-9.43,19.47,18.75,36.52,0.68,-9.68,12.13,14.57,7.67,18.65,-20.12,8
6.57,-5.37,18.39,-4.74,35.5,9.52,1.28,-9.07,17.75,15.14,50.59,20.41,-7.8,11.89,13.83,11.38,21.78,-21.87,8
2.19,-3.94,18.88,1.51,27.2,-3.32,-10.11,-3.53,18.93,32.08,57.18,-7.03,-14.18,11.14,12.07,18.65,29.54,-26.46,8
0.64,-6.18,20.39,8.54,43.85,0.63,-7.47,-4.76,18.49,5.32,11.04,0.39,-17.24,9.57,10.16,-1.37,18.85,-13.67,8
0.87,-5.67,19.72,9.37,54.05,11.08,-2.39,-8.02,19.31,4.69,10.16,-8.98,-15.44,8.01,9.9,4.3,-5.81,4.79,8
-4.19,-3.15,19.93,20.75,64.89,0.78,-2.29,-7.08,20.95,-0.54,0.44,-10.16,-15.22,9.4,11.27,-4.25,2.49,3.47,8
-7.59,-2.33,20.53,7.57,4.2,0.63,-1.15,-7.17,19.73,12.79,6.74,-1.12,-16.26,10.15,10.93,-3.71,0.68,0.49,8
-3.47,-2.93,21.14,4.54,-28.17,-10.79,-4.66,-6.87,18.94,-5.08,-2.49,2.2,-15.93,12.61,10.62,3.08,5.76,-6.3,8
-4.73,-4.3,21.58,2.49,-22.02,-3.96,-6.08,-7.67,19.62,1.17,-1.07,-2.49,-15.26,10.41,10.78,10.89,0.29,-3.86,8
8.38,-4.62,19.52,-5.13,-42.82,-7.62,12.29,-6.13,15.61,10.35,-55.37,-18.12,3.24,13.69,13.77,-14.26,-28.56,42.38,9
9.11,-3.33,18.19,3.03,-52.2,-9.67,15.08,-6.06,13.2,-1.22,-62.79,-0.63,6.72,13.05,12.69,5.37,-45.26,41.6,9
10.05,-3.2,16.86,25.83,-72.12,-8.06,17.21,-6.31,10.36,-4.49,-62.84,-2.49,9.55,14.56,12.66,8.2,-39.65,40.82,9
12.6,-0.98,15.71,18.41,-83.54,0.93,17.91,-7.71,7.36,-27.25,-74.12,-15.04,10.83,13.2,10.4,10.84,-41.11,23.1,9
16.25,-2.09,12.55,-3.96,-78.56,12.74,20.87,-5.57,4.39,-12.21,-60.06,-7.76,11.39,11.21,9.09,-8.15,-26.17,17.72,9
16.15,-2.09,7.63,-19.58,-80.18,-3.22,17.22,-2.59,0.91,-19.34,-47.56,-14.4,13.94,8.25,7.68,-6.1,-39.5,24.07,9
18.45,-1.23,4.73,-4.83,-78.42,-1.86,17.4,-2.76,-1.75,0.05,-27.93,-12.16,18.52,11.04,7.99,9.81,-30.08,16.85,9
17.56,-1.59,1.1,-4.39,-35.06,-7.37,18.58,-3.42,-3.66,-10.94,-42.97,-19.34,17.32,8.97,6.98,6.88,34.28,-18.8,9
18.79,-3.09,-0.61,-5.66,-32.57,1.12,23.35,-5.29,-3.77,-10.94,-33.69,-8.15,12.47,8.6,7.74,7.42,63.77,-48.73,9
17.59,-0.89,-2.97,-8.74,-45.07,-6.1,23.23,-5.42,-4.64,-8.01,53.08,33.5,9.59,11.98,9.28,-2.34,49.27,-54.49,9
23.1,-2.24,-5.38,-14.4,-59.86,-9.03,19.59,-7.59,-1.14,-4.83,94.38,45.36,7.87,15.09,11.01,20.56,28.66,-39.79,9
23.35,-1.78,-6.56,4.3,43.99,15.09,17.76,-7.85,3.11,3.56,102.05,37.89,4.6,14.6,11.15,29.49,34.03,-37.65,9
21.11,-1.26,-2.95,9.57,78.96,25.1,15.3,-9.16,8.29,1.51,93.26,32.42,2.35,16.41,10.8,12.01,29.54,-43.75,9
19.76,-2.2,1.87,2.83,92.43,19.19,11.28,-12.1,12.16,20.17,76.61,29.74,-0.72,16.34,10.51,-1.61,35.3,-41.16,9
18.49,-2.67,7.86,9.37,86.57,1.32,7.19,-11.97,15.12,24.17,60.01,22.8,-2.88,16.0,10.68,-9.42,25.68,-27.05,9
19.9,-3.66,11.72,18.9,110.06,14.94,5.56,-11.25,17.04,10.4,55.37,22.51,-5.64,15.8,10.49,-2.0,21.19,-18.07,9
15.81,-4.65,16.02,1.76,78.56,11.33,2.94,-9.5,17.95,3.47,47.85,12.4,-2.54,20.28,11.88,19.87,1.71,-16.06,9
12.88,-3.45,18.27,1.12,63.28,18.7,2.59,-6.65,18.48,17.53,60.3,-5.47,-5.98,16.38,10.39,-12.5,6.49,-7.13,9
6.07,-4.15,19.94,-7.67,45.7,8.89,-0.94,-7.43,19.79,-0.88,28.66,10.11,-7.25,14.4,10.19,-11.72,2.0,1.76,9
-0.12,-5.46,19.16,-15.53,55.52,2.49,-4.99,-5.96,18.65,-6.01,3.03,2.15,-6.48,15.25,10.48,-1.27,0.24,4.69,9
22.03,-3.1,-1.02,-22.02,-68.95,9.81,17.42,-5.78,-3.55,3.08,-35.21,-8.06,18.17,7.29,4.05,77.73,-66.55,47.07,10
18.83,-3.6,-3.9,1.86,-43.95,-3.08,18.13,-7.58,-4.2,-18.55,-54.83,-8.79,19.22,6.42,2.82,9.72,6.69,10.06,10
20.57,-3.8,-5.43,-3.32,-64.31,-5.91,19.18,-5.9,-6.91,-9.57,-39.06,-5.81,20.85,7.34,3.43,15.72,18.12,-16.5,10
19.86,-4.54,-7.24,5.32,-43.21,-1.03,19.03,-6.53,-8.05,-8.84,-8.4,13.87,20.06,9.39,6.18,-35.94,51.17,-53.76,10
19.71,-4.12,-8.31,3.76,-3.81,12.55,23.43,-5.91,-6.17,-19.48,59.42,29.98,11.61,4.55,10.97,-29.05,54.79,-54.49,10
23.67,-4.18,-5.68,8.54,31.93,14.11,17.8,-3.35,-4.95,21.0,66.06,33.74,7.9,4.85,12.88,-5.81,76.37,-94.29,10
12.95,-3.71,-5.65,9.37,39.36,17.92,19.62,-9.6,1.18,25.54,118.9,26.42,4.94,12.09,14.41,37.5,42.97,-95.61,10
17.53,-7.34,1.21,0.59,111.04,6.1,18.17,-9.27,7.47,56.84,143.21,5.32,-0.27,11.73,13.94,5.42,58.84,-60.21,10
9.39,-6.08,7.96,53.91,165.97,-14.7,12.63,-4.57,11.84,51.95,124.56,6.4,-4.67,11.48,12.74,0.93,33.98,-28.96,10
7.03,-3.9,16.79,46.39,123.19,-24.85,4.45,-8.97,14.4,-16.85,96.29,13.87,-3.47,11.72,13.4,-7.47,38.57,-15.53,10
9.59,-1.15,19.16,11.13,44.97,-13.23,-0.43,-8.88,17.15,6.54,64.89,-4.88,-6.28,14.22,13.64,-11.08,21.63,-8.35,10
5.01,-3.46,20.12,11.77,13.43,-10.6,-3.98,-6.86,17.4,-0.24,22.85,-5.42,-6.25,14.45,13.42,-10.25,13.43,-8.69,10
3.81,-2.53,21.3,11.08,-0.2,-3.91,-4.11,-8.59,18.26,-12.79,-7.23,-1.46,-5.4,15.4,13.35,1.32,-1.61,-9.33,10
7.15,-4.11,19.28,-15.14,-15.62,9.13,-3.14,-8.9,19.15,1.66,-12.89,2.64,-6.42,14.79,13.49,3.08,-7.76,-4.1,10
4.3,-6.26,18.93,-9.28,9.91,8.25,-0.95,-8.79,19.33,4.25,-18.41,2.54,-6.24,13.99,13.2,5.57,-2.59,-2.49,10
3.35,-6.12,18.79,-11.67,33.54,2.64,2.26,-8.38,20.11,3.47,-15.92,1.42,-5.82,14.78,13.35,4.74,-0.93,-2.78,10
-0.88,-5.84,19.6,-4.3,28.96,0.68,2.29,-7.59,20.23,8.15,-8.15,-2.73,-6.28,14.57,13.36,5.52,0.63,-4.05,10
-2.47,-4.92,20.45,2.78,24.02,-0.98,1.29,-7.64,19.83,1.42,-2.44,-0.2,-6.53,13.84,12.98,0.59,1.46,-2.78,10
-1.69,-4.39,21.14,-1.17,11.43,-1.37,1.07,-7.46,19.35,-1.17,-0.88,-2.93,-6.13,14.37,13.19,0.83,1.27,-1.56,10
0.12,-4.32,20.85,2.34,-2.98,-3.81,1.13,-7.39,19.63,1.17,-6.79,-1.22,-5.56,14.49,13.59,1.71,-3.12,1.66,10
20.46,-3.79,-8.86,4.1,-51.51,11.38,0.17,-8.63,20.02,-4.44,-0.24,-2.39,18.52,4.85,4.26,11.08,-11.96,13.43,11
20.99,-5.96,-8.84,-43.36,-61.04,3.27,0.73,-8.14,19.73,-1.47,-0.34,-3.03,17.33,4.74,3.99,3.61,10.74,-1.95,11
16.81,-5.27,-10.12,12.5,-6.49,11.52,0.34,-8.15,19.59,0.39,-4.0,-1.86,18.09,4.93,6.25,-15.38,63.57,-33.59,11
16.6,-4.84,-9.28,2.73,-16.26,0.78,0.53,-8.25,19.81,2.15,-0.88,-1.32,15.69,8.93,8.41,-9.47,75.83,-77.98,11
17.33,-4.75,-8.52,1.56,16.7,6.1,0.51,-8.34,19.83,1.07,-0.44,-2.15,12.02,11.04,10.73,-8.79,82.03,-104.3,11
21.31,-5.03,-6.82,6.59,84.38,24.22,1.02,-8.79,19.83,-0.39,-1.27,-6.1,7.44,14.97,12.97,28.03,54.15,-100.0,11
15.02,-7.58,-3.32,26.76,108.45,20.26,0.68,-9.18,19.75,0.68,-1.86,0.2,2.1,16.93,12.91,10.25,48.19,-69.92,11
11.57,-4.63,5.25,38.62,141.85,-7.08,-0.12,-7.69,19.76,0.68,0.39,2.0,-3.27,14.77,13.62,-2.59,16.46,-31.64,11
5.72,-9.02,9.6,40.09,125.83,-9.77,-0.09,-8.07,19.52,1.17,2.54,-2.98,-3.05,15.9,14.99,-6.25,33.45,-25.68,11
6.75,-5.19,15.42,30.96,80.22,-1.42,0.81,-7.79,19.65,2.05,4.93,-4.49,-4.39,14.36,13.72,1.61,10.64,-11.82,11
6.41,-3.6,18.49,10.6,33.11,-10.35,0.7,-7.9,19.89,1.71,0.54,-3.96,-4.76,16.56,14.2,11.28,-0.78,-4.0,11
3.4,-5.14,19.06,11.28,55.66,0.0,0.75,-7.9,19.79,1.46,0.15,-1.56,-5.46,15.59,13.78,18.12,-12.55,-5.08,11
0.57,-5.66,19.78,-0.24,33.01,1.27,0.94,-8.88,19.93,0.78,-3.03,1.32,-8.0,15.12,13.5,21.53,-6.2,-8.94,11
0.24,-5.64,21.39,12.3,17.33,3.03,-0.48,-7.04,19.53,1.9,3.42,0.39,-8.78,13.76,13.31,7.03,0.78,-9.52,11
3.77,-5.66,20.27,-2.59,2.25,-0.15,-1.52,-8.24,19.53,-1.42,-0.68,-0.49,-9.91,12.75,13.06,9.96,3.32,-8.69,11
2.57,-5.01,20.06,-1.12,17.43,-7.28,-0.41,-7.47,19.62,1.46,0.05,0.0,-9.49,12.81,12.8,-0.0,7.96,-12.26,11
1.18,-4.78,20.25,0.54,25.49,-2.15,-0.14,-8.01,19.75,-2.3,-0.24,1.81,-9.38,13.46,12.29,6.4,1.17,-4.59,11
0.64,-4.3,20.85,11.03,24.27,-4.93,-0.31,-8.09,19.69,-1.56,-1.42,2.98,-10.02,12.02,12.81,-6.25,8.54,-2.29,11
0.83,-4.71,20.55,-1.42,29.0,-0.2,-0.09,-8.09,19.68,-2.73,-2.15,1.17,-9.19,12.39,12.94,-5.42,7.57,-0.93,11
2.71,-3.07,20.84,2.88,7.57,-5.62,0.25,-7.99,19.67,-2.73,-2.2,0.54,-7.44,15.36,12.69,1.17,0.78,-0.83,11
20.9,-1.63,-5.93,-3.66,-64.5,4.74,19.0,-7.94,-6.14,-16.99,-64.16,-5.81,18.06,6.05,4.28,-6.98,22.66,-26.07,12
16.9,-6.33,-7.79,1.61,-41.55,-9.18,18.56,-4.91,-7.01,14.16,-17.63,8.69,16.73,6.91,5.76,-10.45,61.72,-60.11,12
16.17,-4.21,-9.44,15.38,-6.15,4.74,15.67,-4.49,-8.64,15.92,-5.27,-0.54,13.71,8.16,7.42,-27.15,73.14,-70.65,12
19.69,-4.27,-8.7,-2.1,-18.75,1.46,18.23,-4.93,-7.51,9.62,18.55,11.87,9.72,11.07,10.46,-1.56,51.07,-72.17,12
17.31,-4.51,-7.76,-6.93,31.45,5.52,18.35,-6.9,-5.93,4.98,58.54,17.72,6.62,12.59,13.07,-3.27,54.88,-61.23,12
21.66,-5.61,-5.94,-11.13,76.9,23.73,19.82,-10.74,-3.19,2.54,95.41,40.09,1.63,14.15,12.73,-0.1,46.68,-55.27,12
20.6,-5.68,-1.44,8.84,100.83,26.03,17.73,-9.2,0.6,26.9,104.39,35.99,-1.47,14.84,13.13,-3.81,39.16,-47.22,12
17.98,-6.13,1.93,23.24,109.77,9.38,15.63,-10.87,5.95,21.29,92.48,14.21,-2.16,14.8,13.3,13.57,12.26,-23.05,12
15.02,-7.45,6.96,14.36,100.29,6.4,12.6,-11.2,10.57,24.85,79.3,17.24,-5.59,16.31,13.58,14.06,-4.49,-34.96,12
11.58,-5.11,12.98,25.1,81.01,10.11,10.24,-13.21,11.25,0.88,66.7,19.29,-8.64,13.39,13.21,19.87,-5.18,-10.84,12
9.58,-4.6,16.3,14.65,67.33,5.96,7.49,-10.37,16.07,10.6,50.44,14.01,-8.21,11.99,12.91,13.09,-4.35,-0.68,12
6.03,-5.73,17.41,4.35,63.96,-3.56,2.63,-12.95,17.08,8.3,44.34,8.59,-4.85,14.69,13.7,8.25,-3.66,1.27,12
5.51,-4.97,19.92,21.53,52.83,2.59,1.17,-12.14,17.66,4.2,47.56,6.4,-6.57,14.81,12.89,12.89,-8.89,1.03,12
0.3,-4.92,20.99,18.26,34.96,3.66,0.02,-9.08,18.64,-0.34,-13.33,-0.59,-6.09,14.69,12.99,7.96,-3.96,-0.49,12
1.03,-5.59,20.04,1.86,-0.44,10.11,0.63,-9.31,18.41,-3.52,-2.39,-2.73,-6.36,14.3,13.23,5.62,-2.15,0.49,12
0.93,-4.98,21.03,3.08,6.74,3.03,2.36,-10.27,19.47,-2.34,-9.72,2.25,-5.78,15.71,13.7,2.29,0.0,0.05,12
0.74,-5.98,20.8,-2.34,10.25,6.59,1.32,-9.05,18.88,6.05,-0.78,-2.29,-4.93,15.88,13.71,11.96,-5.81,1.9,12
0.11,-6.27,20.27,-9.23,6.49,9.72,-0.11,-9.9,19.03,4.54,10.11,6.25,-6.9,14.74,13.42,3.52,-1.03,-0.63,12
-2.95,-6.06,19.89,1.03,12.65,3.76,-0.36,-8.86,18.81,1.22,9.33,2.05,-7.14,13.67,13.34,-3.56,3.47,-0.68,12
-2.81,-5.3,20.59,8.01,10.3,3.91,-0.86,-9.3,19.12,-5.76,-1.07,6.25,-7.2,13.36,13.9,-2.39,3.61,-1.17,12
18.1,-3.99,-8.26,-25.98,-35.3,4.0,19.19,-6.97,-7.34,-29.3,-62.21,-5.08,16.59,6.79,5.77,-15.19,-15.43,15.53,13
16.44,-2.96,-9.65,-0.54,-7.08,6.98,17.05,-4.58,-9.83,-6.1,-16.06,4.69,16.89,5.4,5.43,-4.93,1.42,6.59,13
15.5,-3.44,-9.66,1.07,-1.81,4.98,15.03,-3.85,-9.81,2.25,-1.51,3.96,16.64,6.07,5.33,-1.47,2.54,2.78,13
16.01,-3.09,-9.35,-0.34,4.93,3.61,15.98,-4.65,-10.14,-4.88,6.25,4.79,16.91,5.49,5.21,-2.78,-0.34,-3.66,13
20.45,-3.46,-9.53,-0.93,52.0,14.7,20.82,-6.55,-8.95,1.32,67.68,23.34,16.36,6.49,5.72,2.98,14.99,-8.74,13
20.03,-7.52,-7.02,-24.46,174.02,36.87,20.07,-7.95,-5.22,-21.34,115.87,55.32,15.07,7.48,7.19,22.7,50.29,-35.21,13
22.03,-9.31,-0.65,-21.05,122.41,32.86,20.99,-11.64,-1.51,4.25,103.71,54.35,15.82,11.18,9.03,-2.88,69.97,-70.26,13
21.78,-8.82,5.72,11.87,171.48,21.48,18.99,-14.43,7.31,30.62,153.76,54.98,8.77,10.39,12.13,3.12,84.67,-92.97,13
15.37,-5.94,12.23,10.35,198.97,19.82,10.39,-14.83,10.54,25.83,173.05,62.21,1.9,14.59,13.06,0.73,115.04,-128.42,13
1.17,-8.94,13.56,-31.4,140.53,29.15,-2.11,-14.62,15.26,7.03,98.83,29.05,-8.22,13.4,12.9,-36.38,98.14,-96.92,13
-1.73,-11.62,15.23,-8.45,30.22,7.13,-3.74,-12.01,16.43,17.53,-8.69,-4.74,-12.21,12.42,13.2,-2.15,23.05,-47.07,13
-2.66,-7.36,17.19,10.45,5.18,-4.88,1.6,-10.93,18.23,10.11,-32.57,-4.74,-9.73,10.01,12.67,-5.86,5.32,-21.78,13
-3.25,-4.38,19.64,22.12,14.31,-3.91,-1.35,-7.03,18.2,11.82,0.83,-13.04,-11.4,10.53,12.49,7.62,-3.81,-8.25,13
-3.26,-8.11,21.13,-7.28,11.47,3.22,-0.83,-10.73,19.24,-0.1,-2.88,-7.96,-11.43,8.36,14.6,-13.53,-4.44,-7.18,13
-1.06,-9.47,19.59,-4.49,31.69,10.06,-3.46,-11.82,18.37,4.39,14.06,-6.79,-10.84,9.89,14.4,-10.64,10.6,-7.71,13
-2.65,-6.19,19.91,-4.2,21.0,1.66,-2.59,-10.35,17.96,-1.81,4.25,-0.78,-13.48,10.66,13.67,5.37,7.28,-7.18,13
-1.56,-6.03,20.56,-0.63,10.74,-2.29,-2.51,-9.67,18.18,5.96,6.98,-7.03,-13.75,8.95,13.57,2.88,-1.37,-4.54,13
-1.56,-5.31,20.63,7.42,-6.79,-1.07,-1.12,-10.71,19.04,4.74,-1.76,-5.22,-13.02,10.61,13.57,1.66,3.08,-0.44,13
-2.32,-5.55,21.04,10.4,-0.88,0.05,-1.13,-9.79,18.89,4.1,0.73,-5.42,-12.88,10.27,13.82,4.93,3.86,-0.54,13
-0.52,-7.4,20.98,-6.1,-8.89,7.71,-0.64,-10.16,18.89,-7.13,-0.59,0.93,-12.34,9.96,14.41,-8.59,13.57,-3.17,13
25.49,-9.51,-1.07,18.7,-164.5,13.62,23.12,-8.76,-5.45,12.4,-182.42,-4.05,21.9,14.85,11.19,70.75,-69.92,114.7,14
16.31,-5.33,-10.1,25.68,-94.87,12.74,15.53,-5.25,-9.7,20.21,-92.53,-0.1,16.83,2.09,8.6,25.34,-52.34,72.46,14
23.12,-7.88,-15.89,11.43,-90.38,13.13,22.24,-10.05,-14.52,0.59,-71.97,12.79,27.79,2.64,2.97,110.35,-79.79,88.57,14
29.29,-5.4,-15.19,-9.86,69.14,19.04,27.66,-8.21,-14.08,-16.5,83.45,27.05,27.84,3.43,0.72,-16.16,18.75,-34.28,14
20.12,-8.97,-7.9,-18.99,132.37,27.59,20.29,-11.39,-7.46,-6.98,133.35,51.03,17.92,0.17,6.92,-67.14,93.02,-83.74,14
21.68,-11.53,-3.05,-6.59,156.59,31.84,16.83,-13.49,-2.85,3.81,164.99,59.18,16.9,1.34,11.15,-52.05,118.65,-91.85,14
16.55,-8.05,5.59,30.96,159.96,-23.39,15.75,-10.51,4.2,32.62,173.24,11.38,5.65,2.93,15.29,6.84,100.59,-122.31,14
13.21,-6.87,11.28,22.22,123.24,-35.55,5.95,-8.2,11.2,21.14,131.93,10.64,2.2,11.38,18.27,52.98,70.02,-118.07,14
5.44,-8.07,17.7,20.56,60.74,-9.91,6.2,-10.46,16.36,41.5,60.84,0.73,-5.36,7.85,17.76,15.97,58.25,-54.3,14
4.07,-5.89,19.91,30.52,56.93,-5.66,2.75,-9.15,17.17,28.86,44.04,10.45,-6.33,10.86,16.7,0.05,55.08,-52.25,14
0.77,-4.89,19.91,13.57,41.31,-0.05,-3.77,-8.3,16.5,13.13,32.08,11.08,-9.79,10.15,14.61,5.71,42.43,-38.28,14
-2.32,-2.2,20.18,27.25,5.27,-12.6,-3.58,-5.99,16.72,19.34,24.22,5.37,-11.36,11.44,12.09,18.46,16.55,-19.53,14
-0.4,-1.1,20.63,-5.37,-15.38,1.66,-5.41,-6.78,19.32,-1.86,16.02,1.32,-13.09,10.5,12.63,2.98,13.87,-7.23,14
-1.82,-4.28,20.32,-3.32,-3.86,-5.76,-6.26,-7.78,18.79,-1.27,7.37,-8.54,-15.93,8.08,12.2,-0.44,9.33,-7.23,14
-4.18,-2.93,20.88,12.6,14.11,1.42,-4.27,-6.07,20.13,8.79,5.18,-9.57,-16.21,7.5,11.71,0.39,13.48,-1.76,14
-1.25,-3.14,20.31,-4.93,10.16,8.64,-5.64,-6.61,19.54,-2.49,4.3,5.62,-14.07,10.15,13.02,-4.83,6.74,-6.64,14
-2.36,-4.65,20.12,-0.1,16.55,1.61,-4.62,-6.58,20.1,0.44,-1.81,8.25,-13.57,11.36,13.03,3.37,5.71,-5.37,14
-4.3,-2.89,20.27,1.37,15.19,-0.63,-4.52,-6.97,19.3,-4.39,-0.93,2.64,-13.49,12.13,12.33,10.89,3.96,-5.71,14
-4.47,-1.66,20.75,1.86,2.1,-6.84,-6.07,-6.34,19.26,-0.54,-3.61,-0.39,-14.81,9.11,11.66,8.5,-1.07,-3.71,14
-3.26,-2.27,21.33,3.12,11.43,-3.17,-4.62,-5.73,20.22,-2.59,-0.2,-6.54,-17.05,10.19,11.4,7.18,3.81,-2.88,14
37.03,-6.13,-6.64,49.56,-144.38,-53.12,25.01,-5.97,-5.06,43.41,172.46,23.34,7.93,12.45,9.91,44.04,47.12,-73.68,15
17.49,-2.34,-9.92,10.94,-4.1,-11.77,15.89,-5.51,5.11,-22.46,214.94,32.57,6.16,17.05,8.96,48.93,31.64,-54.1,15
19.69,-3.03,-8.0,5.91,17.92,5.37,20.55,-8.68,14.36,23.97,175.78,2.2,2.49,17.07,6.99,9.72,6.59,-55.47,15
19.76,-6.62,-5.85,-7.86,168.46,-5.32,2.14,-2.2,15.67,78.56,98.54,-1.81,1.84,22.17,6.6,34.91,-3.66,-44.58,15
19.66,-5.45,4.35,0.54,159.57,-4.88,-4.8,-1.22,16.69,1.03,13.92,5.13,-0.49,16.07,5.77,13.67,0.63,-17.24,15
9.98,0.83,10.15,-51.81,159.77,-8.5,1.17,-5.37,21.33,-17.19,-25.15,1.86,-2.21,16.82,4.77,2.29,-0.83,0.73,15
5.62,1.7,15.74,73.68,160.35,-25.05,0.17,-2.01,20.89,10.94,4.54,-6.54,-0.18,19.13,4.67,10.3,-8.15,0.0,15
-0.67,-2.72,18.03,6.3,138.28,15.87,0.94,-2.03,21.48,6.88,1.22,-3.61,-1.68,18.93,4.65,-2.73,1.37,0.1,15
-2.28,-4.5,20.76,-10.6,-6.88,-2.2,-1.2,-1.85,20.22,13.04,6.74,-0.93,-2.12,19.53,4.21,0.59,0.88,-3.27,15
-2.08,-3.87,21.35,15.04,2.39,-5.18,-0.02,-3.67,21.79,8.59,7.18,-0.05,-2.49,18.84,3.66,1.76,3.13,0.15,15
-2.88,-3.62,20.62,1.46,-1.95,0.83,-1.83,-2.7,21.43,1.81,6.45,-7.28,-1.3,17.57,3.8,-3.27,-3.27,4.54,15
-1.79,-3.4,20.98,3.71,-2.49,1.56,-0.3,-2.33,21.11,1.42,0.73,-1.95,-1.18,18.32,3.6,1.76,-0.54,-1.61,15
-2.84,-4.71,21.47,-1.32,-5.03,0.93,0.01,-2.59,20.98,2.44,-0.63,-2.2,-0.24,18.58,3.7,2.39,-0.05,-0.59,15
-2.73,-3.06,21.12,4.64,-9.96,-4.3,-0.39,-2.35,21.36,1.51,0.98,0.15,0.07,19.88,3.67,4.25,2.69,-0.29,15
-2.36,-3.5,21.4,-2.44,-5.57,-0.15,-0.31,-2.94,21.25,-3.03,2.54,-0.1,-0.72,18.89,3.28,3.52,0.88,-1.81,15
-2.27,-3.24,21.64,-1.76,-4.44,-0.39,0.29,-2.55,21.22,-0.39,-1.12,-0.68,-0.52,18.31,3.09,-2.25,2.54,0.0,15
-2.12,-5.0,20.28,-4.25,-0.49,0.39,-0.29,-2.48,20.73,0.15,-3.76,0.0,-1.22,19.57,3.09,0.34,4.39,-0.2,15
-2.1,-2.92,21.45,2.54,-1.95,0.88,-0.07,-1.78,19.97,4.39,-1.17,-5.18,0.2,19.94,3.19,7.76,-0.39,1.46,15
-2.2,-4.35,20.91,0.73,-2.29,1.51,0.01,-3.03,20.98,1.66,-3.27,-2.2,-0.76,19.72,2.69,2.39,-0.1,4.05,15
-2.01,-3.38,21.36,-1.42,-4.88,1.22,1.03,-3.49,21.05,8.54,-3.32,5.08,0.35,19.28,3.21,3.22,2.2,0.05,15
18.23,-9.96,-1.84,-10.5,-112.16,31.84,12.51,-1.61,-12.68,18.41,10.79,-6.59,15.32,8.88,7.54,-30.62,-49.41,47.51,16
16.89,-2.45,-7.57,10.4,-68.51,-19.09,18.6,-3.95,-9.79,61.82,103.61,3.52,15.93,7.49,7.57,-23.78,-45.41,28.76,16
19.32,0.01,-12.02,-8.25,-39.75,3.27,23.27,-4.82,-3.02,-17.63,148.68,19.97,19.25,7.43,8.41,3.66,-5.66,-13.33,16
15.56,-4.43,-11.46,-11.28,-12.65,8.84,17.66,-2.89,3.75,-5.96,187.55,23.29,17.13,6.4,7.65,11.57,30.86,-35.99,16
15.55,-3.58,-10.51,29.98,70.7,2.15,14.09,-11.02,13.65,39.01,235.55,14.84,15.04,10.11,8.81,41.26,58.64,-62.21,16
20.41,-7.1,-5.64,20.8,155.57,-6.01,1.63,-4.45,14.56,7.28,124.85,7.86,10.25,12.45,8.25,50.15,63.62,-83.15,16
18.47,-4.15,2.14,-6.98,136.77,-5.22,-0.65,0.03,17.98,1.12,-6.15,-2.0,5.68,13.47,8.57,78.12,29.74,-78.27,16
20.16,-7.42,8.59,-25.49,176.81,-14.65,0.2,-5.27,21.59,-5.96,6.74,-2.2,4.5,17.72,7.53,29.49,17.87,-68.99,16
8.31,-1.66,14.33,-21.34,167.33,6.05,0.7,-2.44,20.24,-3.71,-4.59,-0.1,-1.54,14.01,4.7,20.9,-3.81,-11.57,16
-7.68,-5.95,18.26,-16.8,80.62,18.51,0.91,-3.06,20.98,2.98,2.34,-2.15,-1.78,16.43,5.01,1.61,2.29,-5.18,16
-1.69,-6.35,20.91,0.2,2.29,-2.44,0.1,-2.7,19.85,-3.13,-3.17,0.78,-0.12,18.63,5.81,12.6,-4.54,1.46,16
-1.36,-3.93,20.96,4.35,2.05,-1.76,0.0,-2.24,20.12,-1.42,-1.22,-1.12,0.19,20.0,5.77,0.73,1.66,0.54,16
-1.22,-4.67,21.11,4.2,2.0,1.12,1.31,-2.36,20.97,-4.49,-9.81,-2.44,-0.14,19.17,4.96,5.96,-1.95,-1.12,16
-1.99,-4.06,20.25,-0.29,2.44,-0.05,0.35,-1.4,20.42,9.96,1.66,-2.05,-0.86,18.66,4.0,4.69,0.0,1.37,16
-0.85,-3.44,21.15,6.1,-0.44,-0.1,1.46,-2.67,20.53,-3.76,-5.08,-2.78,1.13,19.11,4.95,2.44,-0.29,2.64,16
-0.63,-3.47,21.6,-1.47,-8.06,1.86,0.99,-2.32,20.89,4.15,-2.29,-1.32,0.48,19.48,4.31,11.47,0.54,0.59,16
-0.98,-2.91,20.91,4.93,-0.34,1.17,0.77,-2.22,21.61,-1.95,0.54,-2.44,0.85,19.71,3.26,6.69,-0.05,-4.54,16
-1.16,-3.28,20.54,-6.05,-3.47,-2.64,1.37,-1.69,21.29,-0.29,4.2,-0.83,0.49,19.36,3.93,2.1,3.37,-2.49,16
-1.59,-3.52,20.46,-2.2,1.03,1.27,-0.12,-3.15,20.17,-0.98,8.94,-3.76,0.33,19.18,3.16,-2.78,4.25,1.61,16
0.31,-2.55,21.73,-2.78,-14.79,-0.05,1.43,-3.24,21.15,3.95,-2.1,-0.54,0.3,19.15,3.65,0.98,4.1,0.93,16
12.76,3.0,2.6,31.93,-142.82,3.56,21.13,-2.22,-4.18,1.9,23.44,3.08,18.55,8.1,6.11,-4.64,4.25,-18.07,17
28.36,-5.96,1.02,-39.36,-80.08,30.13,26.44,-7.72,-1.48,-13.82,227.64,28.71,13.71,9.44,7.21,64.36,80.66,-100.93,17
22.2,-2.27,-5.67,-13.62,-52.34,5.47,14.64,-2.66,7.98,-15.04,220.12,-5.42,9.04,13.9,7.31,37.65,42.43,-115.72,17
22.96,-1.03,-4.85,3.81,26.51,14.16,8.09,-2.58,14.74,24.95,134.38,-17.19,3.58,15.68,5.36,31.98,9.08,-95.36,17
21.3,-3.58,-2.95,28.32,181.59,8.54,3.57,-2.47,17.56,10.69,54.54,2.15,-0.25,17.17,4.2,5.76,18.26,-44.73,17
18.22,-3.05,5.32,31.3,198.14,-3.86,1.22,-4.4,19.59,0.34,15.58,0.63,-1.35,18.88,3.94,6.45,3.81,-9.67,17
12.58,-4.12,12.33,-13.57,135.5,-18.7,0.85,-3.42,20.41,6.49,6.01,2.98,-2.05,18.3,3.41,3.91,2.49,-1.56,17
4.43,-1.92,16.89,-25.83,97.31,2.34,1.98,-3.43,20.77,0.93,-4.05,2.15,-0.99,19.44,3.21,3.52,-1.03,6.69,17
-0.7,-4.28,20.01,0.05,24.07,9.72,3.82,-4.12,21.83,-6.59,4.3,0.73,-0.79,20.13,3.06,0.39,3.66,3.08,17
1.72,-3.43,20.38,6.4,5.27,1.51,0.73,-2.88,19.64,0.73,7.71,-2.2,-0.12,19.35,3.26,7.32,-3.81,-5.57,17
2.26,-4.14,21.08,0.88,-5.32,1.76,0.42,-2.94,20.08,-1.07,5.76,-3.22,-1.31,19.1,2.99,9.52,-1.56,-3.03,17
2.81,-4.03,21.64,-0.83,3.96,2.93,0.69,-2.54,20.32,-4.93,5.81,-1.51,-1.49,19.16,2.62,6.49,1.37,-4.1,17
1.07,-3.27,20.47,0.78,7.71,-0.49,0.36,-2.68,20.23,-6.05,8.98,-6.74,-1.92,18.86,2.15,6.79,-0.49,-6.79,17
1.03,-3.46,20.8,0.05,13.13,-0.05,0.98,-3.3,20.36,-1.71,15.53,-10.99,-2.56,18.01,1.88,9.52,-2.78,-7.91,17
1.32,-2.98,20.91,-1.71,18.9,3.71,-0.72,0.4,20.39,29.05,20.8,-4.98,-2.19,19.95,1.12,18.9,-7.32,-11.67,17
0.41,-3.46,20.86,3.17,15.23,2.64,0.04,-2.22,21.17,10.4,24.22,-2.0,-3.21,18.02,-0.07,-3.66,3.86,-8.06,17
0.93,-4.39,21.28,5.27,20.56,-3.91,-3.41,1.06,20.43,-1.81,12.5,-0.34,-2.66,20.11,0.5,4.1,0.1,-2.05,17
-0.2,-4.35,21.28,15.53,15.82,-2.25,-2.32,-0.77,20.83,0.88,-2.64,0.1,-3.03,19.11,0.61,0.59,3.37,0.1,17
-1.02,-3.05,21.24,11.38,10.06,4.2,-2.78,-0.5,21.0,0.83,-2.29,0.34,-3.05,19.17,0.02,-0.24,2.98,0.49,17
-2.37,-1.5,21.42,3.42,11.43,3.47,-2.38,-1.36,20.67,-4.35,-3.32,-0.98,-3.03,19.1,0.58,2.88,-0.29,0.54,17
14.02,-3.36,-14.36,14.45,12.16,-1.71,19.51,-9.5,-11.33,-27.44,-29.83,21.04,16.47,4.23,7.57,-49.56,-9.96,20.46,18
18.39,-4.58,-13.89,25.05,75.93,2.25,13.19,-4.31,-11.19,7.86,-31.93,1.07,18.49,7.35,6.99,-8.15,-13.67,21.78,18
24.12,-8.61,-8.68,-21.29,65.67,-2.1,17.52,-3.17,-12.7,25.0,-5.27,2.88,18.87,5.98,7.22,0.63,-0.83,4.69,18
19.93,-7.31,-5.29,-0.63,50.88,6.35,16.84,-4.75,-12.19,13.38,29.98,0.44,16.06,4.02,6.62,2.73,10.55,-8.4,18
18.07,-6.2,-3.24,14.01,33.3,14.11,22.07,-5.99,-10.8,28.32,84.28,7.76,15.3,3.45,7.21,11.13,39.84,-26.32,18
19.33,-4.25,0.16,22.75,154.93,-11.43,25.41,-7.27,-5.8,-50.49,34.72,8.4,16.68,1.73,9.43,19.24,39.99,-36.91,18
14.26,-3.67,7.32,-2.1,116.65,-11.04,21.35,-1.81,-5.58,21.19,47.41,0.15,14.98,7.08,10.05,6.93,40.63,-49.02,18
13.95,-3.85,14.08,-10.84,80.76,-18.31,21.34,-5.2,-1.99,15.82,27.64,14.16,10.44,10.08,9.95,3.81,37.01,-26.07,18
8.7,-1.05,16.3,30.27,104.79,-17.63,18.67,-6.81,3.4,-8.3,156.88,20.85,7.68,12.91,10.73,58.94,40.48,-59.72,18
3.58,2.75,18.72,71.04,147.71,3.81,16.25,-6.47,9.87,11.87,123.88,8.84,4.5,17.11,8.71,46.73,24.8,-63.67,18
0.7,-0.79,20.43,5.81,64.65,10.99,14.64,-7.23,16.15,11.47,88.62,-12.11,2.11,19.27,7.29,42.43,2.25,-42.09,18
-7.21,0.6,21.58,4.54,31.69,7.52,10.26,-4.39,16.42,55.03,69.29,-8.06,0.32,22.71,5.47,52.39,8.4,-26.71,18
-3.56,0.16,21.36,10.35,-9.33,1.12,1.73,-1.46,20.54,114.16,83.4,23.24,-2.96,26.56,3.13,54.49,27.39,-18.7,18
-4.79,0.97,20.75,17.33,8.94,2.93,-3.08,-3.44,20.28,4.1,52.59,7.23,-3.23,19.11,0.39,7.32,17.82,-4.15,18
-4.33,3.12,18.26,-8.15,-5.08,-2.34,-3.06,-0.25,21.31,0.39,19.82,-1.32,-3.83,19.57,1.16,7.18,5.08,-5.27,18
-4.87,-0.14,20.8,-4.93,-4.25,-5.66,-2.54,0.99,21.19,15.04,13.38,-5.08,-1.83,19.69,1.53,13.13,-4.1,2.29,18
-3.7,1.74,21.96,-3.52,-4.15,7.96,-4.45,2.62,19.38,20.61,21.48,-3.81,-2.79,19.29,0.8,4.05,0.98,-3.81,18
-5.66,1.87,20.88,-27.49,-1.81,-10.79,-4.55,2.27,20.14,-25.78,-0.88,1.9,-3.88,17.98,0.65,-3.22,0.73,5.18,18
-3.59,-0.77,22.41,-1.71,1.51,-1.61,-1.05,-0.4,22.29,7.81,-4.49,2.54,-1.77,19.53,1.43,3.56,-3.66,3.76,18
-3.4,-0.41,21.32,-0.93,-3.08,-3.71,-2.88,1.43,21.21,-2.05,6.35,0.05,-3.03,19.32,1.08,-8.06,9.91,0.29,18
13.99,2.1,10.65,21.68,-181.4,-2.0,3.6,-6.56,19.46,-4.35,-1.56,0.68,5.15,16.51,3.53,-1.76,-7.91,13.82,19
20.37,6.31,5.44,22.61,-148.68,1.27,4.69,-7.07,19.55,0.93,-0.63,0.63,6.03,19.09,3.96,2.88,13.57,-41.41,19
18.24,0.29,-0.33,-4.54,-75.24,3.61,3.39,-6.24,19.35,-1.07,-4.93,-1.46,1.3,20.06,4.24,5.86,21.0,-83.3,19
20.02,2.08,-3.04,8.35,-38.13,6.3,3.71,-6.66,19.86,1.32,-4.54,0.29,-4.23,15.64,4.15,29.59,30.08,-123.29,19
24.03,1.97,-3.14,-9.13,-0.73,8.79,2.73,-6.16,19.53,2.25,6.25,3.08,-11.68,13.69,1.82,-8.84,22.66,-78.76,19
19.3,2.01,-0.91,-7.03,91.26,16.55,2.83,-7.02,19.49,-1.51,4.0,0.98,-12.39,17.0,0.51,10.5,8.45,-51.03,19
16.25,1.21,2.59,-6.3,119.19,-8.25,1.46,-6.4,19.43,-0.34,7.42,3.47,-13.86,16.49,0.36,25.88,-1.86,-39.99,19
7.97,1.01,10.84,-2.15,120.75,1.51,3.23,-6.8,19.59,2.05,0.88,1.07,-16.31,11.54,-0.06,14.7,-3.66,-23.49,19
10.22,0.53,15.37,-7.42,80.32,-9.47,2.8,-7.15,19.6,1.86,1.81,0.68,-17.71,6.84,0.06,-10.21,13.38,-17.09,19
5.13,1.11,18.11,-10.94,92.48,-6.25,3.08,-6.43,19.91,2.34,2.83,0.93,-17.28,11.78,-0.27,-14.4,6.3,-15.72,19
5.49,1.97,18.52,-10.89,42.04,-9.67,2.81,-6.74,19.48,0.63,2.2,1.27,-18.03,14.31,-1.04,11.08,7.47,-7.08,19
2.85,-1.58,20.95,-8.55,45.07,3.96,3.45,-7.19,19.74,-0.73,1.61,0.73,-17.51,13.0,-0.88,8.98,3.61,-1.66,19
5.67,-2.68,20.64,-17.24,9.86,-6.64,2.18,-6.58,19.41,-0.88,3.22,1.61,-17.29,12.17,-0.95,3.42,1.07,2.69,19
6.48,-1.86,20.62,3.12,-19.68,-8.59,3.19,-7.33,19.7,-4.88,-3.81,-0.54,-17.91,12.07,-0.95,7.37,0.59,-2.39,19
4.63,-1.0,21.29,0.44,-7.52,-1.42,3.97,-7.6,19.77,-1.37,-4.15,-1.61,-17.99,12.38,-0.76,8.35,1.76,-4.74,19
2.67,-2.16,21.02,-2.2,2.0,0.34,3.56,-7.24,19.71,-1.95,-4.44,-1.51,-17.84,11.57,-1.39,3.08,0.63,-1.66,19
2.68,-1.49,21.69,0.39,-2.05,0.39,3.79,-6.72,19.71,-2.0,-2.2,0.78,-17.94,11.58,-0.91,7.76,4.15,-2.25,19
4.44,-1.53,21.13,-1.47,-2.98,-1.46,2.87,-6.48,19.57,-0.98,0.0,0.78,-17.51,11.3,-1.63,4.44,0.59,0.98,19
2.77,-2.14,21.09,1.66,6.98,1.76,2.88,-7.03,19.6,0.1,0.88,-0.68,-17.85,10.32,-1.34,-0.29,1.51,0.98,19
2.52,-1.72,20.77,0.98,-3.81,1.03,3.09,-6.75,19.7,-0.54,0.59,-0.54,-17.91,10.67,-1.59,2.05,1.51,0.98,19
9.58,-1.39,0.47,-18.95,-149.56,-21.48,16.99,-9.84,4.47,28.61,161.87,18.75,-3.96,12.62,8.45,-7.18,42.43,-142.77,20
29.94,-7.01,-13.0,-65.87,-176.07,-33.54,7.58,-8.93,8.74,38.82,157.08,-10.35,-10.04,13.76,6.88,36.72,28.27,-124.22,20
24.96,-4.98,-13.32,10.45,38.57,15.43,3.35,-9.82,15.04,10.25,59.23,12.7,-13.32,12.69,5.5,-8.64,25.24,-65.23,20
17.75,-6.04,-7.45,11.18,126.56,27.93,3.46,-9.74,18.14,-9.62,2.39,3.32,-17.27,10.69,4.25,-13.09,11.13,-23.73,20
21.31,-6.78,-3.7,22.95,164.16,25.78,3.19,-9.46,18.96,-14.94,15.38,-9.91,-16.7,11.6,4.34,1.22,6.45,-9.13,20
15.57,-7.65,4.93,10.25,178.08,3.56,3.08,-10.65,18.86,-1.71,15.09,-8.64,-17.75,13.15,3.89,16.6,8.98,-1.86,20
7.89,-2.92,9.07,20.75,146.04,-21.29,3.12,-9.19,19.32,4.69,7.57,-2.15,-17.64,11.8,3.23,11.91,5.81,-1.32,20
4.15,-7.03,16.18,2.69,66.6,11.28,2.27,-7.68,18.97,9.77,26.81,1.86,-18.5,11.31,2.99,13.18,5.22,-13.04,20
4.96,-5.86,18.76,-0.49,8.3,1.9,1.07,-8.25,19.88,13.23,48.14,18.16,-19.47,9.49,2.94,-3.52,11.77,-34.37,20
4.79,-5.87,19.8,-1.51,22.31,-2.0,-3.06,-7.78,19.15,0.63,29.39,11.91,-20.17,7.26,1.73,-16.85,12.89,-34.52,20
3.47,-7.25,19.69,-4.54,10.16,-7.13,-3.87,-8.68,19.01,-4.05,3.71,4.3,-20.8,6.71,2.15,-17.77,3.52,-18.65,20
2.55,-5.42,20.57,11.77,4.44,0.44,-3.72,-9.41,19.39,8.54,0.39,3.47,-19.97,8.93,2.62,-1.95,3.61,-5.91,20
1.56,-5.34,20.73,2.93,27.34,0.44,-3.08,-10.2,19.39,-0.59,-3.52,4.83,-19.89,9.86,1.7,4.88,1.42,0.78,20
-0.71,-4.68,20.33,8.74,55.81,12.7,-4.09,-9.9,19.14,0.54,7.52,1.22,-18.82,8.56,2.18,2.49,2.05,-6.1,20
-4.26,-4.91,19.91,-3.32,39.16,8.84,-4.43,-8.43,18.68,-1.86,2.64,-4.0,-20.53,6.1,1.98,8.15,-1.76,1.22,20
-4.32,-5.47,20.43,-5.42,2.78,3.27,-2.8,-8.25,19.35,-0.05,2.78,-4.35,-20.42,5.77,2.18,1.17,-1.27,0.93,20
-3.31,-5.14,21.17,5.62,-8.4,2.29,-3.0,-9.18,19.31,0.05,-1.86,-1.66,-20.39,6.25,2.5,-8.01,0.63,-0.88,20
-3.16,-5.51,20.33,6.35,-9.81,4.74,-2.82,-8.62,19.57,0.63,1.61,1.76,-20.33,7.42,2.54,-6.2,1.66,-2.39,20
-4.02,-6.72,20.24,-4.1,12.21,5.13,-3.17,-9.19,19.29,0.54,-1.81,4.35,-19.61,8.83,2.36,-7.28,3.61,-1.27,20
-4.26,-5.2,20.34,-0.15,1.56,-3.71,-2.91,-9.25,19.24,-1.32,-3.03,2.39,-19.29,9.37,2.43,13.57,-0.98,5.03,20
39.07,-9.51,-8.56,-107.86,-342.24,12.84,-7.96,-4.98,8.48,-10.16,-144.58,-14.45,22.64,39.88,10.02,83.69,-61.08,132.96,21
16.79,1.47,-8.06,30.86,41.5,-27.54,20.81,-2.2,-0.51,-80.57,-406.4,-7.18,13.86,22.05,7.3,31.69,-18.99,-4.59,21
15.84,-3.2,-6.15,-1.07,6.2,6.79,39.05,-27.2,-1.26,-183.74,-176.12,19.97,9.48,13.7,8.74,9.13,-3.22,-7.86,21
27.41,-6.37,-4.83,-7.96,66.06,24.32,14.32,-1.08,-9.35,-28.91,-20.07,5.96,10.72,18.76,9.34,-0.63,17.24,-37.16,21
21.6,-4.9,-1.33,0.83,208.74,53.47,15.92,-5.2,-8.03,-9.86,-1.9,5.37,3.69,15.88,10.4,-20.22,52.49,-123.19,21
11.6,-7.68,6.19,-9.77,163.13,42.53,29.0,-11.07,-3.6,28.22,135.84,51.07,-2.19,13.68,10.04,-26.12,49.46,-105.62,21
8.32,-9.34,12.53,9.62,120.36,31.01,16.58,-8.22,-0.91,38.72,202.39,55.13,-9.01,13.58,10.52,-0.83,53.27,-87.16,21
4.74,-9.55,15.83,11.67,75.05,23.63,9.25,-11.22,7.28,6.25,119.68,36.38,-11.13,13.01,8.7,14.06,36.43,-65.33,21
0.97,-8.69,17.39,7.47,23.34,13.57,4.86,-11.96,14.28,21.04,77.44,28.37,-14.72,10.63,7.27,2.93,25.83,-36.38,21
1.36,-9.89,19.09,4.49,18.02,9.18,1.48,-10.02,14.53,17.19,39.01,18.12,-14.63,12.63,7.04,6.1,20.75,-33.4,21
-1.98,-7.45,18.57,13.09,15.28,2.34,1.41,-11.38,16.95,-0.1,5.37,5.52,-16.51,10.14,6.17,17.43,8.25,-18.51,21
-2.1,-6.79,19.74,3.47,15.38,-3.03,1.65,-12.39,17.87,4.25,17.04,9.28,-17.46,10.25,6.01,24.22,-1.17,1.76,21
-1.29,-6.59,20.23,0.1,16.94,0.59,1.12,-11.11,18.73,9.72,-7.37,1.22,-18.23,9.57,5.35,10.94,-5.52,1.71,21
-1.27,-4.58,20.66,12.6,23.0,5.13,1.54,-11.55,18.97,5.47,-5.47,-3.81,-18.76,8.39,5.59,-0.54,4.79,-15.62,21
-0.88,-6.15,20.46,1.66,10.25,5.32,1.73,-12.6,20.06,-12.45,-0.59,-3.96,-19.15,8.89,4.7,0.34,3.22,-9.47,21
3.17,-6.47,20.4,5.08,-3.08,3.96,-0.14,-11.07,18.73,-9.91,-0.05,-6.49,-17.94,11.21,5.0,-8.45,9.38,-18.07,21
1.69,-6.44,20.51,-0.73,-2.2,-4.54,-0.91,-9.48,18.0,-7.86,-1.42,-6.2,-18.1,11.02,4.67,6.15,4.25,-8.94,21
0.79,-6.41,20.28,5.76,-7.32,-6.88,-1.15,-8.45,18.04,-1.61,-3.81,1.9,-18.14,9.06,4.28,12.99,-2.1,1.56,21
-3.06,-7.05,19.96,4.39,3.81,-0.1,-1.7,-10.8,18.75,-5.71,-0.78,3.76,-19.87,4.68,4.69,0.1,5.22,-1.07,21
-3.31,-6.37,20.48,0.44,9.23,4.3,-0.49,-10.94,18.7,-5.18,-2.78,7.81,-20.3,6.92,4.45,-7.23,3.61,-4.93,21
-8.78,-4.14,11.96,56.45,-39.45,-3.66,25.12,-3.57,-4.05,35.55,-9.37,-22.85,15.57,25.9,7.53,-7.23,-17.04,-1.32,22
6.64,-3.36,6.14,-17.33,-200.88,9.52,22.66,-5.96,-2.04,-10.21,18.16,19.73,12.06,13.14,7.17,-8.35,6.93,-37.21,22
39.07,-8.39,-8.8,-46.39,-389.5,25.93,22.91,-10.64,1.82,5.22,211.47,62.94,4.97,13.77,9.6,-33.4,51.32,-120.65,22
29.0,-1.05,-6.13,20.36,-18.51,-3.03,11.07,-9.45,5.81,-2.83,119.43,20.9,0.64,13.03,9.08,17.28,49.41,-134.72,22
25.83,-4.7,-3.04,-32.08,48.39,29.74,9.97,-11.19,12.55,38.62,77.59,38.62,-5.33,14.92,8.91,-4.39,65.67,-112.65,22
18.52,-4.1,-1.06,8.69,232.67,42.58,7.91,-9.81,15.61,25.39,74.95,17.04,-11.99,12.98,6.79,13.13,42.77,-81.4,22
13.67,-5.79,5.66,16.31,133.45,11.91,2.18,-8.7,17.52,6.98,34.03,7.76,-13.93,9.56,4.99,19.29,35.94,-65.62,22
13.84,-6.22,12.69,29.05,80.62,27.44,-0.82,-7.94,18.6,7.62,11.47,2.93,-18.5,9.39,2.51,26.42,19.29,-35.74,22
10.02,-7.17,16.0,14.5,76.9,10.06,1.2,-9.45,19.58,-17.14,-4.05,5.22,-20.12,9.43,1.71,20.7,0.83,-12.4,22
2.69,-6.8,18.64,20.7,25.78,1.71,-0.96,-10.85,19.02,-7.86,-4.39,8.06,-18.5,8.78,2.61,10.64,-6.2,-5.96,22
-2.42,-5.66,19.88,21.14,8.69,-2.1,-3.06,-9.42,19.3,6.35,-4.49,-5.08,-19.92,7.35,2.05,13.87,-0.1,2.2,22
-0.72,-5.48,21.0,-7.81,3.17,2.64,-2.35,-9.4,18.96,4.49,4.69,-3.17,-21.05,7.87,1.97,14.5,1.46,-5.03,22
-0.28,-6.53,20.36,-8.64,-0.98,4.93,-4.58,-9.11,19.03,-2.15,6.1,2.93,-21.61,4.21,1.92,-5.96,11.04,-18.16,22
-1.44,-5.29,21.87,7.71,-17.68,-4.39,-4.07,-8.11,18.79,-2.0,6.45,1.12,-21.11,5.37,1.31,-2.39,6.88,-12.7,22
-2.96,-5.76,20.97,3.08,-2.2,-3.27,-3.09,-9.66,19.39,1.22,5.27,4.44,-19.9,7.4,1.62,4.49,1.95,-0.59,22
-6.52,-6.29,20.87,7.37,19.58,6.25,-1.44,-9.96,19.89,-1.32,1.32,6.93,-20.09,6.64,1.58,6.2,2.64,0.68,22
-5.41,-5.07,20.37,-3.17,12.4,4.69,-2.16,-8.73,19.33,7.18,-3.12,-3.17,-21.88,4.15,0.96,4.15,4.05,-3.32,22
-2.73,-5.7,20.68,-4.64,11.08,6.1,-4.76,-8.48,19.18,-3.91,2.88,-3.22,-21.11,4.93,1.5,-2.0,-1.07,-7.03,22
-1.69,-5.85,21.29,2.54,1.71,4.54,-3.45,-9.01,19.53,-2.49,-1.81,2.49,-21.6,6.28,1.85,-5.81,7.42,-10.5,22
-4.5,-4.12,20.6,11.77,-6.3,-1.9,-3.17,-8.08,19.63,-1.9,-5.96,0.63,-20.74,7.07,1.16,6.64,2.29,-2.59,22
-4.29,-7.18,14.1,1.22,-19.34,0.15,-1.26,-3.61,18.16,62.65,-48.1,11.43,-14.38,14.24,6.71,-17.72,-22.8,126.42,23
-0.62,-2.55,20.35,43.46,-74.02,12.94,4.36,-7.88,13.18,-65.72,-157.32,-10.25,-7.81,15.25,8.89,-26.12,-31.64,104.15,23
1.92,-4.38,14.87,-30.96,-116.94,6.69,24.05,-12.17,5.99,-84.62,-254.1,-26.71,2.41,27.1,8.11,14.06,-89.75,140.43,23
27.78,-6.68,2.81,-77.49,-323.58,-16.94,27.48,-9.36,-1.17,-38.87,-121.48,-0.24,11.08,26.27,9.75,-14.65,-48.54,68.16,23
39.06,-7.35,-2.55,-10.16,-214.16,-14.36,27.39,-13.02,-3.04,-21.92,5.18,20.9,10.55,18.82,9.95,-17.04,-0.93,-16.11,23
27.26,-5.89,-4.32,-21.88,-6.35,13.48,22.2,-9.32,-2.35,68.85,181.54,49.76,5.04,18.01,10.97,16.16,73.68,-125.68,23
23.3,-6.57,-2.2,45.26,168.26,42.09,11.37,-10.11,3.36,43.55,147.61,18.21,-4.71,12.23,9.4,35.06,75.54,-140.82,23
10.47,-6.98,4.41,39.31,163.82,18.12,7.1,-9.23,12.12,42.72,83.98,30.37,-11.33,15.82,7.37,28.17,61.67,-102.1,23
11.14,-8.4,12.69,25.73,96.04,23.14,6.12,-8.55,15.8,24.32,69.48,13.57,-16.08,10.64,4.54,12.89,33.11,-67.58,23
5.3,-6.46,16.95,25.2,78.32,11.04,0.94,-7.43,16.89,-10.4,37.99,-3.56,-20.14,9.19,2.39,17.43,22.31,-51.07,23
-0.9,-3.83,18.76,11.72,74.51,5.86,1.84,-8.59,18.34,-0.73,37.45,-11.67,-21.96,6.48,2.11,-11.13,27.69,-33.5,23
-2.74,-3.98,20.7,27.83,38.57,10.01,1.72,-7.33,18.59,-1.12,28.96,-16.94,-20.46,8.68,2.58,-5.91,3.96,-11.43,23
1.21,-4.95,20.91,4.93,1.76,-6.1,0.39,-8.71,18.58,-2.73,22.02,-10.69,-20.43,8.47,3.07,-10.06,4.0,-11.96,23
2.49,-6.05,20.77,6.84,-5.03,-7.03,1.63,-10.32,19.16,12.65,25.49,2.2,-18.74,10.33,3.67,-9.42,3.47,-9.72,23
2.3,-6.54,21.22,12.01,0.78,2.88,-0.33,-9.49,18.88,18.7,12.94,6.45,-18.45,11.14,3.52,8.5,3.81,-10.74,23
-1.58,-6.75,20.26,17.14,6.05,3.42,-1.13,-9.97,18.88,9.47,-2.0,5.03,-19.34,9.41,2.58,24.66,-2.0,3.71,23
-2.49,-6.07,20.33,4.59,-2.15,-4.05,-0.48,-12.28,18.91,-3.91,-5.57,6.98,-20.76,4.19,2.91,16.5,-6.64,4.3,23
-2.72,-6.38,20.37,1.9,12.11,-5.91,-2.3,-9.65,18.72,-1.32,10.4,-6.1,-21.8,4.05,2.59,4.98,2.93,-0.54,23
-1.39,-5.36,20.78,3.37,-3.22,-4.88,-2.81,-9.26,18.9,-2.49,6.98,-10.89,-20.81,4.8,2.71,-18.7,4.79,-8.5,23
-1.61,-5.62,20.79,-6.88,0.44,3.13,-1.41,-9.76,18.88,-5.47,-0.24,-2.29,-20.44,7.59,2.73,-14.16,6.79,-6.88,23
11.77,-2.57,6.34,-16.41,-227.29,-45.17,25.2,-2.46,4.27,-31.98,-233.25,-9.13,15.31,17.67,3.71,-5.96,8.15,22.46,24
27.76,0.05,-0.19,-42.68,-340.77,11.18,24.51,-7.65,-1.23,10.89,-121.24,-48.73,9.56,16.09,5.07,-5.96,31.54,-45.17,24
27.39,-3.81,-6.43,15.82,-147.66,-41.26,27.79,-3.23,-5.45,25.78,-13.96,13.04,3.36,19.76,7.15,6.59,47.95,-125.05,24
24.03,0.93,-8.88,32.08,-27.93,8.74,24.8,-6.35,-1.2,-26.66,75.1,33.74,-3.93,19.29,6.14,15.72,43.12,-123.78,24
27.86,-1.22,-5.39,-23.34,81.54,18.31,20.83,-8.26,0.21,31.84,151.37,38.72,-6.4,16.25,6.06,4.25,33.98,-90.19,24
24.42,-4.89,-2.64,7.81,131.93,25.29,13.35,-7.21,4.84,23.49,120.85,13.38,-12.52,15.47,5.04,12.01,25.39,-87.16,24
17.59,-4.57,3.56,15.23,116.89,9.28,15.53,-10.03,12.22,6.79,81.2,22.51,-16.34,12.72,3.1,11.87,19.87,-67.43,24
16.83,-5.44,11.84,-2.15,75.15,10.3,9.95,-9.57,14.82,12.74,87.3,10.21,-19.18,9.38,1.8,3.76,13.04,-45.21,24
11.52,-5.89,14.36,-1.12,95.31,4.39,4.65,-7.02,16.33,10.06,76.07,8.54,-20.31,9.21,1.74,-14.26,9.33,-32.23,24
6.49,-4.01,17.65,6.01,73.93,6.05,2.15,-5.58,18.97,-8.55,27.98,-3.76,-20.32,8.99,1.94,-13.13,17.92,-28.71,24
1.44,-4.03,19.38,-1.07,53.76,4.05,-0.3,-7.52,18.45,0.44,20.8,-3.71,-20.26,8.3,1.91,-4.1,8.64,-12.21,24
-1.46,-5.85,19.92,-2.25,35.69,9.67,-0.69,-6.97,18.96,12.3,18.85,-3.47,-19.74,9.5,1.59,5.37,10.06,-15.72,24
0.87,-6.59,19.92,9.42,34.96,8.84,0.18,-8.69,19.94,2.88,9.91,-0.54,-20.34,8.23,0.64,16.45,7.47,-5.27,24
1.49,-6.29,20.39,-1.86,13.38,2.64,-1.01,-7.78,19.28,4.15,17.48,7.08,-19.77,7.24,0.13,20.85,-2.29,3.13,24
2.64,-5.84,20.33,3.22,15.53,4.1,-1.77,-6.93,19.51,5.27,7.67,5.13,-20.43,5.37,0.08,12.26,2.05,-3.08,24
-0.31,-4.99,20.63,7.67,1.51,-2.78,-1.83,-7.48,19.73,-0.29,4.44,1.71,-22.43,2.65,0.05,-9.13,11.13,-9.57,24
0.48,-5.14,20.34,1.66,-3.52,-6.1,-0.19,-7.25,20.51,4.83,-1.03,-3.08,-20.46,6.67,0.17,-1.27,5.13,-6.54,24
-1.42,-5.01,20.67,1.37,-3.12,-4.74,0.87,-7.69,20.26,-7.91,6.2,-8.5,-20.01,8.2,0.05,16.94,-1.32,1.86,24
-5.23,-5.93,21.02,4.44,22.51,7.91,-0.58,-7.44,20.18,-1.66,1.07,-1.51,-20.61,4.08,-0.34,17.63,-1.42,3.96,24
-3.39,-6.01,20.68,-14.21,9.81,4.2,-1.57,-7.84,19.68,1.12,2.0,5.52,-22.2,3.08,-0.44,-0.49,4.64,-2.69,24
22.81,2.0,-1.7,38.96,-237.74,-35.21,28.41,0.13,-2.13,42.63,-16.7,4.3,8.96,12.86,5.83,-19.97,26.86,-67.09,25
31.58,-0.93,-6.3,27.1,-72.61,4.49,18.67,-2.11,-2.37,0.73,34.57,12.55,3.45,16.36,6.62,-12.7,40.09,-113.96,25
20.49,-1.06,-7.06,-1.51,39.5,20.31,20.9,-7.41,1.82,-7.62,64.36,24.76,-7.06,23.14,5.23,71.97,63.67,-138.57,25
20.94,-2.91,-3.89,-23.93,57.08,33.45,19.27,-7.36,3.35,4.64,112.89,30.96,-13.49,16.64,4.14,5.37,37.74,-122.41,25
21.78,-4.7,-0.36,-4.64,124.02,39.5,16.95,-8.24,6.36,21.04,71.04,22.56,-16.83,12.05,2.29,20.7,24.32,-99.71,25
18.85,-4.38,5.53,11.91,99.07,4.93,14.26,-8.48,10.75,-3.37,75.39,28.76,-18.37,10.92,1.01,10.25,15.53,-66.16,25
16.41,-5.08,9.49,-3.71,74.07,26.32,7.53,-7.17,14.58,15.04,83.2,16.75,-19.71,9.25,0.97,-0.54,13.67,-48.24,25
10.89,-5.71,12.65,2.59,105.52,9.77,3.65,-8.33,17.11,14.31,58.69,11.13,-19.72,7.78,0.2,41.99,1.81,-20.9,25
5.19,-6.5,18.09,-1.03,67.38,-1.56,1.04,-8.22,17.78,7.23,41.41,6.59,-19.57,6.45,0.54,14.99,3.47,-17.19,25
3.7,-6.49,18.92,-4.88,43.46,-1.66,0.38,-8.25,18.21,9.52,28.81,-2.29,-19.78,7.15,-0.09,20.26,0.68,-6.69,25
0.09,-6.07,20.33,-4.25,17.53,-6.05,1.7,-9.23,18.91,12.6,25.0,5.18,-19.87,6.97,-0.41,30.47,-6.4,3.96,25
0.48,-6.87,20.07,-1.71,2.34,-1.86,1.61,-8.07,19.47,7.86,20.02,2.83,-20.89,3.55,-0.58,8.79,-5.13,4.1,25
-2.12,-6.22,21.28,3.52,20.56,-4.88,0.45,-9.17,19.05,3.76,21.14,2.98,-22.32,2.9,-0.92,-4.39,-0.44,2.98,25
-3.93,-5.23,21.38,3.56,33.89,1.95,1.58,-9.72,19.22,5.91,13.53,-2.1,-22.41,2.53,-0.78,1.56,1.61,1.22,25
-3.94,-6.77,21.38,-7.91,30.18,7.57,2.6,-9.36,18.84,-3.08,2.15,-1.46,-22.94,3.66,-0.48,-1.51,2.54,1.66,25
-2.48,-6.73,20.87,-3.13,28.42,8.74,-1.36,-9.54,19.47,0.15,9.23,-2.54,-21.01,3.9,-0.05,-1.37,1.12,0.88,25
-2.79,-7.48,20.33,-11.72,35.35,11.08,0.31,-9.34,19.83,-0.29,4.64,-4.2,-21.39,5.37,0.35,1.27,0.15,3.27,25
-1.23,-6.09,20.84,0.68,10.74,1.81,0.27,-8.71,19.87,0.44,-4.49,-8.69,-21.31,5.82,0.33,-2.05,5.22,-2.0,25
-0.01,-6.03,20.39,-6.49,6.88,-1.07,0.89,-9.4,19.67,-4.1,-7.08,-3.66,-21.65,5.12,-0.01,8.4,-0.24,1.17,25
0.05,-5.18,20.64,4.78,-16.7,-9.03,0.08,-9.02,19.86,-1.12,-3.76,0.1,-21.06,4.43,0.05,-0.39,1.81,1.81,25
-0.67,-1.9,9.86,0.98,-158.06,-10.99,23.49,-2.92,-1.93,17.19,-21.04,7.76,12.51,20.0,3.28,-1.47,-3.12,-1.76,26
14.47,0.13,5.57,45.56,-300.68,-32.71,26.87,-8.73,3.28,-18.65,23.63,22.95,8.64,15.15,5.55,-15.43,15.97,-34.72,26
32.52,-6.29,-1.52,-32.18,-259.28,-3.22,21.4,-7.34,1.43,15.72,207.28,37.26,2.02,16.55,7.27,-19.48,36.77,-143.65,26
27.86,-0.95,-3.95,13.72,-33.15,11.72,13.16,-7.61,8.64,17.24,135.16,14.11,-2.96,15.29,6.46,14.79,39.5,-149.85,26
19.88,-4.28,-0.51,-22.02,10.21,26.46,10.53,-7.81,15.49,-18.8,112.79,27.64,-11.29,16.23,4.85,-14.7,33.59,-121.48,26
29.5,-4.02,2.23,0.63,187.26,28.61,-1.55,-5.53,14.03,10.69,121.48,19.43,-13.74,11.83,4.98,-9.91,10.55,-119.73,26
16.26,-4.71,5.64,-0.73,139.36,-0.63,-4.52,-8.81,18.1,8.2,23.05,-3.76,-19.54,7.15,2.81,24.32,10.35,-43.9,26
10.93,-3.36,14.28,-7.37,96.29,13.72,-0.99,-8.95,19.06,-30.47,-15.19,-13.92,-22.26,3.33,2.79,6.45,13.23,-26.03,26
5.72,-3.93,16.56,-4.3,133.15,12.84,-0.65,-10.02,18.82,-3.81,-11.04,-4.3,-20.97,2.2,3.24,-7.37,9.03,-18.41,26
-5.0,-8.67,17.61,-16.55,51.66,-0.88,-4.22,-9.38,18.61,-6.01,5.66,5.18,-20.58,5.65,2.88,-13.38,8.4,-21.48,26
-0.36,-4.97,20.31,0.15,3.37,-3.17,-1.55,-6.99,18.5,-6.74,-14.75,1.12,-20.17,7.75,2.31,14.11,1.86,-0.83,26
0.64,-6.48,19.01,-1.61,14.89,6.05,-3.16,-10.46,18.71,14.11,4.1,3.27,-20.77,4.57,1.77,25.39,-2.59,3.56,26
-0.01,-6.76,20.27,2.93,14.16,6.74,-2.36,-12.05,18.69,-5.37,1.27,-3.56,-20.64,2.57,1.28,12.65,-4.15,11.18,26
-2.33,-6.75,19.56,5.27,6.2,-6.64,-2.63,-10.16,19.26,-3.76,8.2,-1.12,-21.07,4.63,1.73,7.81,-0.63,0.93,26
-5.17,-7.52,20.6,0.29,20.8,-8.59,-2.13,-9.3,18.78,2.29,7.37,-1.9,-20.95,4.26,1.94,-7.37,3.03,-2.49,26
-5.25,-9.6,19.69,-7.52,-0.73,2.44,-2.11,-8.75,18.81,1.17,3.47,1.66,-20.7,7.26,1.87,3.03,2.93,-0.49,26
-3.52,-7.89,21.42,-1.9,-10.94,-0.29,-2.7,-8.81,19.04,1.81,2.0,-0.05,-20.29,6.4,1.51,8.84,1.42,0.44,26
-2.9,-8.22,20.6,-1.47,-13.82,-0.34,-0.91,-9.29,18.98,3.22,6.49,1.71,-21.19,5.37,1.64,6.01,-0.34,2.59,26
-3.26,-6.91,20.09,2.93,-7.47,-2.44,-1.48,-9.65,19.05,1.76,7.67,0.05,-21.72,4.12,1.41,0.78,3.08,0.73,26
-3.81,-7.33,20.48,2.88,-2.93,-1.17,-1.46,-9.65,19.19,0.93,10.3,-1.27,-21.38,4.5,1.53,-3.22,1.17,-0.78,26
-1.52,-7.76,3.36,19.34,-312.6,-9.77,26.0,-2.94,-8.23,26.9,23.54,-46.39,16.45,33.06,-0.07,137.55,-95.21,39.26,27
36.54,8.63,-7.03,32.03,-368.46,66.11,27.67,-7.11,-4.54,5.76,93.9,35.94,9.98,15.92,4.04,-32.72,36.52,-67.24,27
24.01,-5.16,-10.26,-78.86,-47.07,-10.6,21.84,-4.75,-1.1,55.42,205.37,41.94,3.69,17.19,4.68,-13.13,35.74,-157.18,27
26.1,-3.6,-8.85,8.3,67.38,33.69,11.97,-3.64,7.37,68.36,173.93,8.74,-6.62,17.87,3.19,46.58,33.5,-155.22,27
23.68,-4.51,-3.55,32.52,171.14,26.71,10.23,-6.52,14.09,-20.95,153.42,18.21,-14.8,12.43,2.16,-8.25,22.41,-121.24,27
13.45,-5.07,2.32,35.06,215.67,9.33,-1.2,-9.06,17.19,-11.28,75.0,9.08,-18.24,7.92,2.03,4.69,9.57,-84.96,27
7.01,-2.78,14.68,-11.57,164.06,19.48,-3.98,-7.82,17.84,4.49,9.81,7.81,-18.77,10.02,1.7,-0.34,6.54,-24.41,27
-1.09,-4.3,15.9,-17.43,166.99,4.59,-3.02,-9.01,19.05,0.98,-12.5,2.34,-19.21,10.8,1.38,9.72,2.64,1.37,27
-8.99,-5.52,18.3,0.24,64.5,-7.37,-3.7,-9.98,19.56,4.15,2.34,1.66,-20.07,9.33,0.9,-4.39,-1.17,-0.29,27
-7.86,-5.98,19.43,1.9,20.17,-2.25,-4.72,-7.67,18.94,-2.93,4.83,-8.64,-20.36,7.77,0.8,9.23,-4.2,2.0,27
-5.51,-6.12,19.99,-11.43,12.01,1.03,-5.17,-8.1,19.09,-1.27,3.13,-7.62,-21.28,4.95,1.23,3.76,-2.2,1.03,27
-5.21,-6.68,20.61,-11.77,3.52,0.59,-5.19,-8.43,18.95,-5.37,1.32,-6.25,-21.18,3.96,1.39,-7.86,-1.56,-5.03,27
-4.4,-4.5,20.32,-7.76,-5.81,3.52,-5.03,-7.88,18.97,-10.55,-1.61,-9.67,-21.46,5.08,1.68,-11.08,-2.88,-4.1,27
-2.72,-4.8,20.9,-2.88,-11.52,4.54,-3.97,-9.33,19.33,-9.03,1.46,0.39,-20.68,7.3,2.61,-12.11,3.86,-9.23,27
-2.32,-4.67,20.61,-2.64,-12.65,-0.15,-4.14,-8.97,19.32,-2.78,0.1,2.64,-19.67,8.14,2.37,-6.64,4.3,-6.79,27
-0.82,-5.43,21.0,-12.35,-15.43,-7.86,-3.93,-8.83,18.73,-9.57,2.44,-2.1,-19.94,8.95,2.08,4.49,0.93,-1.03,27
-2.91,-5.49,20.73,5.42,-9.77,-4.79,-1.9,-9.67,19.04,-4.49,-2.78,0.59,-19.73,8.05,2.61,4.25,-1.95,1.07,27
-3.88,-5.51,20.2,0.59,-4.98,-3.17,-3.16,-9.73,18.84,-3.27,0.88,-1.03,-20.03,6.15,2.53,6.84,-0.49,-1.76,27
-4.82,-6.5,20.08,-2.93,-0.63,-2.64,-2.71,-11.48,18.77,-2.34,-2.25,-1.32,-19.91,6.35,3.12,5.57,-2.78,2.2,27
-5.27,-7.6,20.33,-7.67,1.66,0.93,-3.66,-10.03,18.42,-5.27,-0.63,-4.93,-20.13,5.79,3.24,-5.62,1.12,-7.03,27
22.44,-0.96,-9.46,7.52,87.45,21.14,23.43,-3.68,-8.45,23.05,100.73,21.63,12.92,17.32,3.43,-9.81,25.0,-71.58,28
17.27,-2.3,-6.02,29.49,171.88,30.66,17.3,-4.78,-5.75,59.03,170.8,36.87,7.3,17.1,4.61,-4.69,35.4,-138.53,28
15.27,-2.87,0.95,15.33,123.78,15.33,13.64,-6.46,2.54,25.29,126.71,21.09,-1.66,19.27,4.6,18.21,29.44,-114.11,28
12.95,-3.6,10.17,2.78,99.17,19.43,12.28,-7.25,9.69,-14.94,85.55,19.29,-8.91,17.34,4.63,2.83,20.85,-89.7,28
14.15,-4.76,14.01,-10.6,106.01,21.09,13.84,-8.96,13.64,0.98,110.4,25.98,-12.83,19.14,4.43,8.2,3.22,-90.92,28
2.2,-6.61,16.43,-7.03,101.66,3.96,2.64,-8.31,17.12,3.27,40.87,3.52,-14.72,10.01,4.43,2.05,11.91,-67.77,28
4.04,-6.97,18.5,-3.27,7.86,-3.71,4.21,-9.78,16.59,-7.96,2.54,2.25,-16.63,14.73,3.51,25.2,6.84,-17.58,28
4.12,-8.44,19.41,-2.88,5.66,-12.99,5.4,-10.99,16.85,-4.88,25.39,-8.15,-16.72,10.28,3.97,28.95,-14.06,-0.59,28
4.4,-6.39,21.03,2.44,-29.25,-14.21,9.9,-9.94,18.75,1.46,7.28,-7.47,-17.57,11.0,2.96,24.85,-6.15,8.45,28
6.72,-7.15,21.06,-7.18,10.89,3.61,7.01,-10.59,19.08,-5.66,49.22,2.39,-18.14,9.87,3.2,-9.18,0.05,-18.7,28
0.94,-8.48,19.57,-1.56,18.26,8.98,1.31,-10.8,18.44,4.74,19.78,5.22,-18.99,8.85,3.63,-12.35,12.11,-24.37,28
3.37,-6.69,19.62,5.22,-2.59,-0.63,1.66,-9.55,18.55,2.69,16.55,3.66,-17.81,12.2,2.77,0.1,7.47,-11.91,28
1.31,-6.32,20.48,2.88,-12.11,-2.34,2.04,-8.06,18.71,1.03,5.81,2.69,-18.89,11.43,2.3,9.57,6.25,-2.98,28
0.28,-6.76,20.88,8.06,-20.02,-10.35,1.89,-8.73,18.85,5.32,1.17,-3.47,-18.59,9.17,2.77,15.48,0.1,4.59,28
-0.82,-7.19,20.52,3.27,-8.3,-4.79,1.53,-9.22,19.65,5.18,-0.49,-1.17,-19.72,6.27,2.42,10.01,0.29,4.44,28
-2.01,-6.38,20.79,5.96,5.37,0.83,0.13,-7.96,19.45,3.12,1.22,-3.12,-20.5,7.09,2.08,4.64,3.27,-1.86,28
-2.73,-6.37,20.41,3.17,1.66,2.44,0.34,-8.36,19.76,3.27,-2.73,-3.66,-20.65,6.82,2.01,-1.76,3.22,-3.08,28
-2.45,-6.86,20.9,4.05,12.06,4.79,0.91,-9.28,19.61,1.71,-2.1,-3.86,-20.58,6.56,2.47,-2.15,-7.47,-0.59,28
-1.84,-6.48,20.74,0.63,10.4,6.54,0.55,-8.88,19.48,3.86,2.83,-4.05,-20.62,6.79,2.03,-3.52,7.62,-6.45,28
-0.13,-6.9,20.32,-0.73,7.62,5.13,-1.95,-8.5,19.31,-3.37,-3.17,1.61,-20.3,7.88,2.11,-11.82,8.01,-10.99,28
6.96,-5.05,12.11,28.32,-122.22,-23.05,14.48,-4.61,10.17,-15.48,-146.24,-5.62,-0.1,14.0,7.45,-11.87,-73.97,136.82,29
13.97,-2.95,4.19,-5.08,-195.9,-0.73,24.73,-2.66,0.48,-22.07,-254.69,-61.13,11.23,17.43,5.88,17.63,-102.05,121.83,29
28.93,-2.94,-7.96,-28.81,-217.87,-14.06,29.21,-5.63,-4.13,-91.7,-172.02,-27.78,15.31,16.38,5.44,17.53,-34.37,26.12,29
21.51,-5.76,-10.27,-40.53,-56.4,-1.76,21.77,-6.89,-8.21,-8.11,-17.38,-4.54,13.81,15.41,4.78,0.34,9.47,-8.11,29
16.68,-2.01,-12.18,8.84,27.25,9.08,21.06,-4.57,-6.96,8.06,21.88,16.55,10.22,17.54,5.7,10.35,39.7,-64.16,29
22.43,-2.88,-7.48,-4.25,100.34,19.48,23.48,-8.81,-4.46,44.53,117.92,27.29,5.97,16.94,6.79,27.54,45.46,-119.04,29
19.01,-2.79,-5.29,41.75,142.48,13.04,21.58,-7.05,-0.52,27.2,140.33,8.74,-4.18,18.13,4.03,67.92,36.87,-104.83,29
10.13,-2.99,0.11,44.43,164.11,-8.25,19.85,-5.05,7.83,-17.53,91.02,5.42,-7.76,15.0,3.0,18.26,21.39,-101.71,29
10.12,-5.61,7.07,3.76,151.27,26.03,16.99,-5.07,11.17,-4.25,82.86,12.01,-13.04,16.05,1.89,37.55,12.74,-92.24,29
7.41,-5.39,11.02,-24.22,136.13,18.95,12.93,-10.51,14.63,-7.03,44.87,11.33,-17.52,7.28,-0.11,11.77,16.75,-73.54,29
12.94,-3.71,15.91,2.44,66.89,21.63,5.3,-10.69,16.51,9.37,65.53,6.25,-21.96,4.39,-2.04,10.01,11.13,-29.64,29
5.63,-5.21,18.41,15.72,52.25,3.61,2.68,-9.01,17.66,-19.92,42.92,7.28,-21.53,0.99,-1.47,-47.31,4.83,-14.65,29
2.83,-5.84,18.93,5.37,38.87,18.9,3.8,-10.94,18.34,-23.54,18.02,1.22,-21.47,2.27,-0.34,-4.88,-6.54,4.1,29
0.63,-5.52,19.87,11.82,17.97,9.47,4.21,-10.03,18.71,-13.67,-1.27,2.2,-21.09,2.66,0.31,-5.27,-0.39,1.66,29
4.43,-6.51,19.69,2.25,24.22,13.18,3.81,-9.2,18.76,2.73,3.52,-0.59,-20.41,5.17,-0.21,-11.33,5.37,-4.88,29
4.85,-6.74,19.42,-0.63,15.72,13.87,3.38,-8.76,19.6,3.12,7.47,6.69,-20.3,5.89,-0.1,-12.06,7.71,-13.92,29
4.94,-6.09,20.13,3.27,17.68,14.36,2.03,-8.93,19.63,3.37,0.78,-2.78,-19.85,9.53,-0.45,-0.2,2.49,-4.49,29
2.28,-6.33,20.53,0.2,-2.15,-2.0,-0.24,-9.21,19.4,0.05,5.03,-4.59,-19.36,10.79,-0.59,4.88,2.29,0.78,29
-0.4,-6.11,21.35,4.74,-9.62,-7.76,0.2,-8.42,19.48,-3.37,5.13,-0.54,-19.35,8.85,-0.61,9.67,-0.39,2.88,29
-1.93,-6.56,21.19,2.39,7.23,-1.07,0.07,-7.7,19.23,-3.47,7.47,0.39,-20.22,7.73,-0.79,7.47,1.71,0.78,29
15.46,-4.09,9.11,19.04,-167.63,-12.99,0.17,-7.95,19.51,-4.05,-0.34,0.93,11.14,15.6,4.48,10.74,-49.95,103.76,30
22.13,0.2,1.18,32.23,-205.03,-37.6,0.22,-7.66,19.19,0.05,4.59,-1.07,14.29,15.49,3.62,-17.14,-24.46,22.27,30
26.3,1.3,-4.03,-0.1,-120.85,-20.7,0.68,-7.56,19.93,0.29,-2.34,-1.17,12.7,16.53,4.72,-12.45,10.79,-38.53,30
25.67,-0.61,-6.68,-12.89,-25.83,2.54,0.64,-7.89,19.63,-1.9,-0.39,2.69,8.74,15.8,6.18,-2.3,32.81,-81.15,30
23.0,-3.76,-6.47,-6.1,68.8,29.74,1.39,-8.02,19.71,0.44,1.03,4.93,3.81,18.18,6.98,12.16,56.59,-110.94,30
19.22,-2.48,-2.57,10.6,63.82,24.76,0.38,-7.41,19.7,-0.54,2.1,1.66,-4.5,17.95,5.2,31.05,56.69,-143.31,30
20.22,-6.31,0.98,26.03,97.71,23.54,-0.03,-7.69,19.59,1.46,6.1,1.17,-10.0,16.37,3.38,4.05,36.18,-91.8,30
12.22,-3.84,4.49,17.43,145.75,14.36,0.72,-8.39,19.73,0.73,-0.44,3.71,-14.22,12.42,2.49,16.16,12.01,-68.36,30
12.77,-3.78,12.29,-4.25,79.15,10.79,0.86,-7.36,19.6,0.39,1.37,1.32,-16.54,11.64,1.95,26.51,5.27,-51.27,30
10.8,-5.67,15.12,-4.74,60.01,1.17,1.18,-7.67,19.8,-2.59,-1.46,-2.39,-21.75,3.13,-0.19,4.3,4.74,-39.36,30
8.74,-6.83,16.94,-8.45,46.92,1.17,0.87,-8.75,19.76,1.71,4.35,-1.51,-21.95,2.1,-0.17,-25.93,10.25,-28.22,30
2.79,-5.91,18.72,-6.25,40.19,-13.72,0.29,-6.87,19.71,4.98,1.46,-0.78,-21.84,4.58,0.72,-33.84,17.82,-34.47,30
2.63,-5.89,19.59,-9.13,38.04,-7.23,0.09,-6.31,19.87,-2.59,0.24,1.51,-21.56,3.83,0.55,-21.78,18.12,-33.35,30
3.06,-7.05,20.27,-9.77,42.14,6.35,0.65,-7.67,19.74,-2.93,-1.46,-1.61,-20.06,7.58,-0.47,-27.59,14.16,-24.76,30
0.43,-5.7,20.15,6.79,30.57,1.27,0.6,-7.84,19.75,-1.51,1.17,1.32,-19.13,9.81,0.19,-9.42,5.08,-10.99,30
0.63,-4.49,20.42,0.49,24.76,8.74,0.48,-7.66,19.72,-2.1,-1.71,3.32,-19.25,11.09,0.48,15.28,0.83,0.15,30
2.61,-5.27,20.05,-3.86,19.78,11.62,0.57,-7.96,19.94,-1.22,0.44,-0.29,-21.38,4.29,-0.78,26.81,-6.49,10.74,30
4.23,-5.07,20.54,7.13,0.44,3.47,0.89,-8.21,19.94,1.27,1.9,-1.61,-20.99,5.44,-0.0,-9.77,-0.78,-6.79,30
5.6,-5.57,19.75,6.2,-15.87,-8.4,0.28,-7.71,19.85,1.07,2.59,-3.03,-20.56,8.08,0.26,-11.13,5.62,-7.18,30
0.82,-5.31,20.59,-0.39,-7.67,-5.08,0.72,-8.11,19.92,1.07,0.39,-1.07,-19.62,9.7,0.35,-0.2,1.42,-3.96,30
17.55,-4.04,-6.64,-1.42,4.83,6.4,26.44,-9.19,-3.66,15.92,25.59,18.02,10.47,20.72,7.07,6.01,33.94,-42.24,31
16.91,-3.16,-5.81,2.54,8.89,6.59,14.05,-4.8,-4.28,36.87,58.64,23.58,5.52,15.65,6.88,-14.06,33.89,-57.67,31
18.48,-3.13,-5.86,2.25,-7.86,4.74,21.64,-8.28,4.59,20.41,83.98,16.02,0.08,19.22,7.01,11.67,26.51,-59.77,31
25.13,-4.79,-4.95,21.53,49.71,21.58,11.68,-12.58,4.72,-21.97,85.84,8.35,-4.46,17.53,7.37,25.29,27.98,-92.68,31
13.4,-3.63,-3.05,27.39,61.08,19.68,12.78,-9.71,9.29,-8.64,40.14,14.89,-7.52,15.93,6.67,1.17,20.9,-59.18,31
21.75,-5.95,3.12,27.44,79.74,17.87,14.29,-11.76,11.92,-0.0,56.01,15.53,-10.42,17.07,7.0,10.74,17.19,-58.06,31
17.59,-8.61,4.89,-0.05,83.59,7.08,10.05,-13.58,13.96,-0.24,56.79,22.9,-12.9,17.11,6.05,7.86,24.71,-78.08,31
13.78,-5.58,8.85,2.05,49.9,11.96,7.76,-11.97,15.03,15.67,62.55,-0.44,-16.88,12.49,3.31,41.99,27.93,-83.25,31
16.39,-8.25,11.49,0.15,60.99,8.35,4.24,-11.53,15.98,-6.69,61.43,11.33,-18.5,8.65,1.65,16.45,12.84,-67.58,31
13.16,-9.04,14.14,5.96,72.8,12.65,-2.59,-9.15,17.02,42.58,54.0,-0.98,-22.9,4.72,-0.84,7.67,18.36,-49.61,31
8.69,-7.45,16.81,10.89,74.27,-10.69,-3.45,-9.56,17.7,4.2,22.85,9.47,-21.58,2.82,-0.05,-12.7,2.54,-28.47,31
4.3,-7.23,18.06,-1.61,86.82,6.59,-1.54,-10.65,16.83,3.08,14.99,14.45,-19.08,5.82,1.09,-4.25,3.27,-22.66,31
0.38,-7.28,19.25,42.87,82.23,8.01,-2.3,-11.07,16.99,3.03,6.15,7.23,-19.11,4.46,1.02,1.61,-0.39,-5.81,31
-6.61,-6.57,19.5,1.95,36.38,9.47,-1.28,-10.29,18.93,9.52,7.23,-7.37,-21.06,3.94,0.04,13.23,3.47,6.05,31
-1.79,-8.23,18.55,-3.96,21.04,10.6,-1.12,-10.56,18.51,6.3,10.94,-8.06,-21.48,2.78,-0.04,10.79,-1.46,3.76,31
-0.63,-6.8,18.42,-3.27,-0.44,2.83,-1.81,-9.06,18.51,5.66,5.47,-5.08,-21.84,2.43,-0.81,6.74,4.98,2.1,31
0.16,-5.74,21.0,10.99,-17.19,-11.28,-1.24,-8.72,18.91,1.03,3.71,-6.93,-22.45,1.57,-0.83,-2.64,7.23,3.03,31
-0.92,-6.34,20.54,3.42,-6.59,-10.25,-0.57,-10.24,19.04,-3.86,-4.74,0.73,-21.97,1.77,-0.12,-25.0,7.32,-3.61,31
-2.36,-5.01,20.41,4.93,-1.56,-4.59,2.19,-8.61,19.99,4.25,-10.4,-3.37,-20.86,6.19,-0.79,-8.74,7.91,4.59,31
-2.55,-5.17,21.04,6.88,-9.37,0.44,0.44,-9.83,19.19,-0.88,-3.22,-2.39,-20.28,6.78,-0.5,3.95,-4.74,5.62,31
-5.08,0.49,17.37,20.21,-98.39,-7.57,8.37,-2.17,18.07,-87.3,-181.3,-31.35,5.56,20.86,6.82,10.3,-12.65,12.35,32
14.97,-2.2,16.83,-65.58,-153.96,-16.5,17.97,-4.29,8.92,30.66,-207.52,-35.11,8.05,19.69,6.42,3.03,-5.37,1.42,32
19.37,-1.61,9.17,38.67,-227.83,-46.19,28.64,-10.38,2.35,-78.22,-156.01,-0.78,9.05,17.39,7.01,-2.34,6.93,-12.94,32
33.27,-6.08,-5.14,-40.09,-216.26,2.98,17.28,-4.06,-4.03,-16.41,-57.28,-5.08,7.85,15.07,7.74,-21.92,15.82,-42.43,32
17.43,-2.86,-5.53,-32.32,-44.97,-0.05,18.46,-2.96,-7.62,-11.38,-21.34,-8.2,3.26,8.48,9.07,-29.88,38.04,-25.59,32
18.97,-0.77,-9.1,-7.76,-27.25,-2.2,25.08,-4.3,-4.6,-4.79,70.51,37.84,2.16,15.27,8.63,-35.16,24.37,-37.16,32
24.78,-2.45,-6.42,-3.32,45.21,15.43,20.05,-6.36,-1.8,27.0,145.36,34.38,-1.1,14.09,10.51,11.18,39.99,-61.77,32
22.39,-3.99,-4.48,1.71,135.4,37.74,13.97,-7.37,1.77,17.09,235.69,-3.61,-6.88,14.93,7.03,7.08,46.44,-124.27,32
18.95,-9.1,6.38,10.55,202.49,25.88,12.65,-6.14,12.59,-8.11,93.16,8.64,-10.81,13.45,6.13,11.77,20.41,-142.63,32
13.43,-6.88,10.08,-6.54,75.54,25.93,13.67,-9.2,15.38,-51.9,33.64,22.8,-15.47,9.19,4.35,51.9,45.56,-88.33,32
12.65,-8.68,15.71,-16.6,40.38,24.9,11.71,-10.5,14.75,-36.38,35.25,27.64,-19.58,8.18,1.34,57.18,15.58,-28.42,32
15.17,-7.49,16.99,-9.47,14.84,15.48,2.76,-13.52,12.26,-21.29,49.76,32.86,-19.79,2.35,0.13,17.14,5.32,-3.37,32
7.63,-8.26,12.71,-17.38,65.97,18.31,0.68,-12.46,14.28,51.07,65.72,20.21,-20.67,4.06,-0.93,22.75,-3.91,5.91,32
3.62,-10.46,15.6,28.76,63.13,-4.64,-1.87,-11.31,16.08,20.7,23.19,2.39,-23.01,1.48,-1.25,9.13,-0.63,-1.51,32
-3.29,-6.24,19.07,27.78,45.51,-12.7,-0.45,-13.45,17.47,22.12,-3.47,-10.21,-22.71,2.32,-1.03,-0.54,4.3,-4.35,32
-5.01,-7.45,19.68,9.72,10.99,-8.4,0.99,-12.54,18.49,16.36,-0.83,-2.69,-21.86,2.12,-0.62,-21.14,11.67,-10.64,32
-4.78,-5.68,20.78,14.26,13.48,-6.4,1.07,-11.74,18.86,-1.03,-3.66,-5.03,-20.17,9.5,-0.99,-2.39,6.64,0.83,32
-3.87,-4.98,21.11,3.08,8.35,-3.03,-0.22,-10.1,18.99,1.03,-0.78,-10.16,-19.78,8.56,-1.33,28.27,-4.88,12.6,32
-2.8,-5.6,21.17,1.71,10.89,4.69,2.15,-11.11,19.16,10.16,8.64,3.32,-21.41,3.99,-1.29,13.04,-0.98,4.88,32
-2.48,-6.46,21.29,-2.05,9.03,8.89,1.2,-9.58,19.16,8.3,6.98,9.33,-22.82,0.45,-1.22,-9.91,8.15,-7.08,32
23.29,-1.02,1.15,-70.22,-194.34,-49.66,19.68,-0.15,-3.57,-74.07,-212.35,-44.73,4.05,30.83,2.81,74.27,-59.67,103.32,33
25.2,0.52,-3.16,-21.63,-32.47,-18.07,25.19,-3.44,-7.66,-19.38,-37.74,-3.32,-1.97,29.44,0.1,48.34,6.64,1.12,33
12.09,4.27,-2.82,24.46,22.07,1.61,10.92,1.54,-8.69,13.82,9.33,4.88,-0.76,17.88,-1.04,6.15,6.35,-8.35,33
19.5,-0.63,-3.45,0.05,-2.88,6.69,18.09,-3.05,-7.43,5.18,-1.27,4.69,0.65,20.9,-0.17,-10.89,4.93,-0.54,33
18.6,0.99,-3.18,0.49,6.3,3.91,16.75,-1.85,-7.76,1.12,7.23,2.44,0.82,20.55,-0.06,-6.79,0.93,-4.79,33
24.23,-3.05,-1.4,39.11,27.05,24.41,26.62,-6.37,-4.84,41.45,153.27,10.3,-0.12,20.58,0.7,-5.08,18.07,-41.75,33
18.99,-1.71,3.06,46.09,134.08,39.5,19.5,-4.59,2.65,40.53,183.94,28.08,-1.75,19.31,0.81,-19.82,12.74,-68.02,33
13.59,0.34,9.61,-0.59,46.39,31.69,18.25,-1.97,11.7,11.13,79.83,26.37,-6.64,21.23,1.39,-33.3,14.94,-60.74,33
13.98,-6.1,13.2,-6.79,71.39,28.37,12.88,-6.77,13.38,0.59,68.65,21.14,-9.3,19.71,2.25,3.91,7.47,-62.99,33
13.08,-4.52,14.31,-8.5,50.68,32.32,12.2,-8.31,15.07,-49.02,35.6,32.71,-13.77,17.89,1.84,-11.72,3.08,-62.89,33
9.51,-7.61,14.91,0.1,90.72,39.5,8.88,-11.72,15.22,21.44,68.31,42.04,-12.62,10.3,2.43,-19.58,14.75,-73.78,33
5.54,-9.28,18.51,34.47,96.97,23.93,2.85,-8.96,16.62,29.39,87.84,31.93,-18.23,8.63,1.31,-2.15,33.98,-61.62,33
-2.81,-4.99,19.38,30.47,83.3,10.06,-2.86,-7.26,18.05,17.97,67.82,20.07,-20.46,7.0,-0.21,-3.47,16.06,-38.04,33
-3.59,-2.89,20.29,5.76,5.47,-0.44,-3.01,-7.15,18.92,8.11,13.67,1.76,-21.67,8.29,-0.36,27.0,12.16,-12.6,33
-4.76,-3.52,21.08,8.25,-11.38,12.45,0.78,-9.79,19.65,-7.32,-2.83,9.28,-21.74,6.24,-0.82,5.62,7.67,-3.42,33
-2.13,-4.12,21.42,6.93,-18.46,10.94,-0.34,-9.78,19.76,2.83,19.29,-2.39,-19.94,6.04,-0.44,-2.73,-0.44,-0.2,33
-2.68,-3.91,20.72,13.38,-3.22,0.73,-2.49,-7.81,19.13,11.57,12.3,2.29,-20.95,4.53,-0.88,2.78,8.84,-2.54,33
-4.54,-3.98,20.64,6.59,-3.27,1.86,-3.13,-7.7,19.39,13.67,8.64,0.24,-19.86,6.33,-1.07,-9.23,4.3,-0.24,33
-4.02,-2.55,20.91,6.49,-4.83,-2.49,-3.34,-7.91,19.44,-2.2,-0.83,4.49,-20.5,8.06,-1.28,-2.39,3.08,2.54,33
-3.88,-2.76,21.11,6.69,-6.88,-1.76,-2.19,-7.92,20.11,8.3,2.44,-2.59,-20.32,7.93,-1.53,9.33,4.83,7.57,33
24.01,2.27,-1.53,14.11,-147.36,-16.65,22.17,-5.38,-2.57,11.23,38.62,9.52,-18.42,4.52,10.98,-11.91,21.48,-6.59,34
19.33,1.22,-4.34,10.94,-41.06,-5.47,19.68,-5.37,-0.79,23.19,98.58,10.69,-16.7,5.7,10.73,-0.93,5.13,3.08,34
19.78,-0.32,-5.37,-11.08,-17.33,13.72,20.63,-5.33,4.41,-5.52,85.21,4.3,-16.01,8.61,11.27,15.48,-2.54,0.0,34
18.84,0.36,-3.76,18.12,52.1,5.71,16.99,-7.64,8.12,-37.7,64.31,20.56,-16.66,7.28,11.05,8.35,-7.18,-0.39,34
16.93,-1.18,-1.74,15.48,104.79,10.16,18.89,-9.02,10.52,-11.08,52.0,20.02,-16.2,6.41,12.16,-1.66,5.08,-3.22,34
20.29,-3.9,2.59,-5.13,92.43,7.81,15.03,-5.99,11.68,14.16,70.17,8.59,-15.87,8.25,11.49,3.27,-2.1,0.29,34
15.98,-2.32,9.37,15.43,74.32,20.12,7.89,-5.68,12.63,58.35,120.8,24.12,-15.74,8.26,11.69,6.2,-6.01,0.05,34
17.55,-5.02,11.59,-4.0,66.36,16.16,0.83,-5.24,16.81,17.87,52.54,13.28,-16.89,7.77,11.73,-5.76,-2.49,4.25,34
12.38,-3.05,13.86,10.5,75.15,0.44,-2.88,-3.78,19.21,25.93,44.14,3.61,-15.91,7.83,12.04,-2.34,-2.78,4.88,34
5.92,-1.03,14.29,32.42,123.73,19.73,-4.19,-2.81,19.72,11.33,20.07,5.18,-15.54,8.88,12.66,4.78,-8.01,9.62,34
-0.93,-4.38,17.14,32.67,109.42,15.63,-1.63,-2.97,20.91,0.2,-12.16,3.71,-15.48,9.55,12.63,7.96,-3.52,1.17,34
-5.41,0.41,20.13,26.42,43.55,3.86,0.02,-3.88,21.58,0.2,-8.54,4.79,-16.21,8.41,12.3,4.44,1.22,-2.59,34
-5.74,-0.81,19.78,16.7,28.91,7.52,-1.45,-4.23,20.82,-2.25,-11.77,-4.0,-15.84,8.5,12.6,-1.71,4.59,-4.79,34
-5.91,-0.42,20.35,0.68,-1.51,7.76,-2.1,-1.47,20.24,-2.44,-5.42,-3.52,-15.31,8.46,12.55,1.81,2.64,-1.71,34
-4.02,-0.14,21.31,7.32,-11.23,2.15,-1.52,-2.1,20.44,5.42,-8.01,7.13,-15.33,8.55,12.12,-1.66,4.1,1.03,34
-4.64,-0.56,20.32,5.66,-11.38,-1.32,-1.02,-3.6,20.71,-1.12,-6.49,1.76,-15.27,9.45,12.37,-0.83,3.08,-2.0,34
-5.29,-0.63,21.07,-2.64,8.94,-0.78,-0.63,-3.86,20.83,-4.05,-6.64,-1.07,-15.48,8.62,12.56,5.32,-2.2,-3.61,34
-4.18,-0.4,21.47,-7.67,5.03,3.08,-0.45,-4.33,20.6,-7.62,-6.54,-1.51,-16.06,8.78,12.23,1.95,3.37,-3.08,34
-3.54,-0.85,21.23,-3.71,-4.0,-1.95,1.37,-3.45,21.18,0.2,-1.95,1.66,-16.18,7.65,12.36,-1.17,2.54,-3.42,34
-3.54,-0.78,20.95,-4.83,-5.32,4.25,1.22,-3.84,20.98,-0.15,-4.15,0.83,-16.01,7.31,11.91,0.78,1.61,-1.03,34
28.8,-4.16,-0.63,-30.22,-94.63,-12.16,23.66,-0.71,-0.44,7.28,-52.0,-0.49,12.27,15.79,1.03,12.94,0.78,8.35,35
23.0,0.34,-2.69,-9.91,-49.22,1.07,19.52,-0.92,-2.63,5.81,-19.87,2.29,12.88,17.0,2.28,-10.35,48.49,-19.92,35
18.38,1.3,-3.77,-6.98,-22.36,2.69,21.85,-3.31,-3.71,-16.11,-10.84,9.18,11.45,17.62,4.56,-48.78,67.33,-61.87,35
19.51,1.41,-4.74,4.25,-0.63,9.08,24.68,-5.77,-1.4,-18.31,93.41,32.67,5.99,16.71,7.56,-61.82,69.34,-64.45,35
26.02,-1.08,-4.83,2.59,127.73,26.81,20.25,-3.35,1.49,54.59,119.09,30.47,0.87,15.15,10.62,-36.87,70.46,-64.45,35
20.44,-0.58,1.66,9.67,112.06,26.9,16.16,-5.63,8.47,21.58,102.29,20.17,-2.99,13.66,12.07,-47.56,77.44,-49.95,35
16.02,-1.72,8.99,5.96,100.29,18.85,13.96,-5.28,13.6,50.88,80.66,8.3,-7.49,9.84,13.74,-26.32,57.32,-40.82,35
13.56,-1.24,14.94,37.89,70.26,4.54,9.02,-3.64,15.13,-16.99,51.81,19.97,-12.12,8.23,13.19,-19.38,46.88,-29.3,35
11.44,-1.54,16.44,-7.72,68.95,17.87,8.66,-4.33,18.76,11.67,30.37,14.16,-13.58,9.18,12.11,-18.31,39.6,-24.17,35
4.74,-1.74,19.74,14.36,46.44,9.47,5.68,-4.64,19.16,13.62,51.12,14.26,-17.0,6.64,11.46,-11.72,29.44,-21.63,35
2.95,-1.92,20.55,12.4,52.29,12.79,1.6,-3.7,19.53,4.83,44.19,14.11,-17.39,6.21,10.87,-9.81,25.0,-10.45,35
-0.04,-1.26,20.7,-1.07,47.36,13.13,0.02,-3.69,19.95,4.35,35.16,5.42,-18.05,5.57,10.49,-18.9,21.19,-7.86,35
-2.96,-0.52,21.17,2.88,35.99,3.22,-0.02,-2.57,20.48,15.58,34.57,-0.44,-19.53,5.08,9.17,-12.4,13.72,6.98,35
-2.59,-0.22,21.28,4.93,18.16,3.56,-3.91,-2.32,20.5,13.96,26.27,4.44,-18.62,7.02,10.07,-17.09,1.37,10.06,35
-4.32,0.41,20.33,-1.66,14.4,7.37,-2.67,-1.99,20.65,14.31,2.78,3.22,-19.06,6.85,10.49,-11.62,3.22,3.56,35
-5.56,-0.07,19.8,3.81,-15.82,9.38,-1.09,-4.16,21.44,-0.44,-7.81,11.77,-16.83,6.75,11.05,-5.42,-2.15,-1.03,35
-5.5,-0.72,20.68,-4.54,-15.97,13.53,-2.22,-2.6,21.14,-7.08,-6.45,0.05,-17.3,6.6,11.0,1.32,-2.73,-0.68,35
-7.76,-0.12,21.01,-2.25,-4.35,9.62,-1.78,-4.15,21.11,-7.52,0.93,0.59,-18.31,5.48,11.0,5.03,-2.15,1.86,35
-4.49,0.01,21.41,-3.52,-5.62,0.83,-2.05,-4.32,20.52,-0.83,-1.37,3.27,-17.5,6.79,11.46,5.37,-0.15,-0.73,35
-5.5,-1.78,20.22,-4.79,-7.08,-0.24,-0.91,-4.77,20.75,0.05,-10.45,0.73,-18.75,5.77,10.93,-1.37,2.1,-1.27,35
22.6,-5.9,2.4,5.81,2.05,-16.26,17.52,-1.96,-1.44,16.99,-9.57,-1.17,14.4,13.51,2.61,1.12,-7.28,-0.83,36
23.16,-2.49,-0.35,-6.49,-16.41,4.35,17.57,-4.3,-0.74,-2.44,-9.33,1.42,13.63,12.7,3.12,7.71,-0.63,-3.86,36
24.49,-3.33,-1.32,-18.8,-29.74,8.94,23.35,-6.24,1.15,5.47,32.18,17.53,15.13,12.59,2.52,1.61,21.68,-5.27,36
18.35,-1.92,-2.74,2.54,-15.77,3.96,17.91,-5.28,1.11,9.28,69.53,21.48,13.07,11.77,4.84,-25.1,51.95,-29.98,36
18.12,-0.24,-2.15,-1.47,-4.25,0.73,19.5,-7.79,6.62,17.33,75.59,28.61,12.56,13.53,7.36,-28.71,56.2,-32.13,36
22.53,-1.2,-1.93,13.67,38.72,15.43,16.91,-8.25,10.13,27.25,105.62,22.8,8.99,15.78,10.5,-19.58,65.53,-51.46,36
18.34,-1.52,0.63,7.37,74.95,21.44,11.29,-7.42,12.86,-4.2,61.47,12.6,4.47,13.5,11.72,-26.76,59.47,-47.95,36
20.67,-2.56,5.14,8.2,78.66,29.0,10.0,-7.47,15.66,1.32,29.44,11.67,-0.17,13.07,13.48,-25.1,48.1,-31.35,36
16.64,-4.59,9.6,7.18,114.01,26.12,8.0,-7.74,16.85,34.72,50.2,11.82,-2.7,13.19,14.99,-5.86,48.88,-42.58,36
13.46,-5.67,12.74,-14.7,77.98,18.21,5.48,-8.24,18.13,18.6,45.02,6.05,-6.21,11.76,14.77,-4.83,58.3,-47.85,36
12.56,-5.38,15.64,0.93,28.91,11.77,2.73,-7.71,18.98,29.39,26.56,15.43,-8.88,11.57,14.38,-7.62,57.42,-42.04,36
7.61,-5.5,18.08,19.24,53.76,12.3,-0.44,-5.96,18.71,21.97,29.59,10.89,-13.21,10.06,12.38,-21.24,45.85,-44.87,36
2.09,-6.78,19.11,17.24,85.35,16.21,-0.88,-6.75,21.11,35.2,22.95,8.4,-14.62,11.49,11.12,22.27,30.76,-25.34,36
-0.76,-6.65,19.94,26.17,36.28,19.68,-1.85,-6.22,20.63,-5.27,14.11,-6.98,-14.86,8.89,11.06,15.14,10.69,-20.26,36
-2.42,-5.57,19.06,38.09,28.96,18.7,-0.09,-6.88,20.66,-26.47,-12.6,-11.33,-16.62,4.94,11.48,0.1,1.61,-8.64,36
-2.9,-2.11,20.45,27.0,25.34,6.3,2.49,-5.82,21.33,-15.92,-1.76,-4.83,-16.78,6.6,12.14,-14.4,11.96,-8.69,36
-3.59,-3.98,20.03,11.47,27.29,-2.88,-1.34,-10.77,20.66,-31.3,5.71,-4.74,-17.95,5.66,11.7,-14.36,22.31,-18.6,36
-3.59,-4.39,20.93,-5.37,-3.17,-6.64,-5.21,-4.97,20.87,10.45,-29.59,-5.32,-17.52,4.35,11.01,-0.63,-5.62,-12.01,36
-4.06,-4.71,21.9,-2.25,5.91,1.42,-2.37,-8.36,20.57,-3.13,-1.86,-0.88,-17.54,5.86,10.93,6.1,-4.93,-8.54,36
-6.84,-2.91,20.76,0.34,19.48,7.47,-2.43,-7.39,19.96,-8.01,-3.22,-5.08,-19.06,4.4,11.38,6.93,-3.47,-6.15,36
-10.46,-6.88,12.07,2.78,-24.9,-40.92,23.97,2.77,15.88,56.35,-143.26,1.51,17.9,23.35,9.09,40.97,-82.86,35.6,37
-3.19,-2.27,12.89,21.24,-209.13,-32.32,28.69,2.23,9.87,-5.62,-142.19,17.33,15.88,18.02,6.03,38.09,-34.86,42.77,37
14.38,0.48,15.73,5.57,-177.0,-19.87,25.7,-2.59,7.74,-25.44,-7.96,33.79,14.69,16.05,6.75,-11.77,30.18,-5.81,37
14.04,1.59,12.14,11.77,-67.82,-22.12,18.75,-5.07,5.89,4.83,79.98,42.24,10.61,13.43,9.12,-50.54,75.34,-39.45,37
21.87,5.6,4.5,36.96,-160.06,10.3,15.57,-7.83,9.43,-7.18,60.74,26.56,4.61,13.75,10.16,-14.6,100.2,-65.38,37
24.2,2.11,5.83,-13.72,-26.81,18.41,14.78,-6.77,12.61,4.49,69.09,29.98,-0.38,13.78,13.46,-24.61,90.09,-56.25,37
24.23,-2.26,3.4,-0.54,73.44,41.94,8.06,-9.25,14.29,18.41,89.84,18.46,-6.44,13.02,14.04,5.42,68.02,-63.67,37
19.42,-4.72,5.07,-20.51,99.8,33.11,7.94,-5.03,16.99,24.56,52.1,9.57,-10.81,9.66,14.68,-4.59,68.16,-40.48,37
15.78,-3.21,10.27,7.71,66.41,16.55,3.1,-8.2,17.56,-3.56,38.13,6.74,-13.18,9.27,12.85,-2.34,44.04,-32.23,37
10.56,-3.97,15.64,8.79,83.15,6.98,2.39,-6.3,18.9,27.05,44.97,16.89,-15.9,10.35,10.81,-0.49,54.39,-32.37,37
5.65,-4.77,17.12,14.21,65.72,12.65,0.17,-4.44,18.86,9.62,35.01,-6.54,-18.88,3.78,9.2,8.59,36.82,-23.19,37
2.57,-3.74,18.6,22.27,56.45,4.49,-2.17,-1.37,19.82,0.98,16.6,0.24,-21.41,5.24,8.01,-16.55,25.15,-11.04,37
1.53,-4.63,20.02,17.87,48.49,9.18,-1.28,-3.37,20.37,5.71,16.16,7.96,-20.24,5.92,8.26,-13.18,17.77,-9.08,37
-2.46,-1.12,19.98,21.44,47.85,14.94,-1.05,-4.55,20.81,11.47,8.69,4.93,-19.85,6.55,8.46,-2.1,15.38,-7.32,37
-3.15,0.38,21.92,22.36,6.15,7.03,-0.67,-5.31,20.64,5.81,0.68,0.59,-19.47,6.81,8.01,5.18,2.69,-2.15,37
-3.44,-0.85,21.44,3.42,-20.26,-5.03,-1.03,-3.71,20.16,-7.52,-1.76,-0.63,-19.08,6.58,8.6,0.39,1.27,0.0,37
-3.88,-2.07,20.91,3.76,-2.15,-5.08,-1.25,-3.79,20.89,-3.08,4.49,-4.35,-19.31,5.2,8.21,-2.59,9.57,-2.59,37
-4.18,-1.58,20.62,0.83,3.13,-8.64,-1.8,-4.33,20.44,-8.45,-2.29,-0.15,-19.58,6.03,8.25,-6.01,2.59,-1.42,37
-4.11,-1.28,21.59,4.69,-1.61,-1.76,-1.72,-5.0,20.91,-2.2,-1.9,4.1,-18.52,7.43,8.03,2.34,0.54,0.93,37
-1.63,-0.09,21.47,12.06,-12.5,3.76,-1.93,-4.85,20.54,-2.64,-4.74,0.15,-19.48,7.64,8.08,8.98,1.17,-1.81,37
0.57,-0.16,17.88,-1.47,-65.67,-0.39,5.91,-8.18,16.62,-6.49,-101.27,-25.63,-8.05,7.44,11.64,20.85,-76.03,74.41,38
1.63,-2.78,16.5,-2.05,-138.62,-11.91,13.51,-1.72,14.79,-10.16,-128.42,-21.14,-1.1,17.62,14.61,46.63,-96.53,83.01,38
12.73,-1.48,14.15,-6.1,-144.38,-20.65,30.79,-8.29,12.94,-75.63,-188.43,-17.68,11.45,17.32,13.67,27.88,-104.05,86.52,38
19.02,-1.71,14.13,-32.18,-196.09,-10.21,31.48,-6.01,11.67,-38.43,-87.5,0.15,14.65,23.52,12.07,25.39,-33.11,30.81,38
28.46,-1.96,8.18,-26.22,-97.22,7.13,21.63,-4.24,5.64,14.26,8.89,23.05,11.07,18.13,11.06,-16.41,37.6,-20.31,38
20.85,-0.33,5.43,15.53,16.31,20.07,18.86,-6.33,8.1,16.41,43.6,13.77,6.55,15.06,12.02,-23.29,60.64,-44.14,38
17.18,-2.18,7.02,11.62,59.67,13.33,12.63,-6.42,10.69,26.61,85.55,22.12,3.07,17.54,12.52,-37.55,95.7,-79.39,38
12.28,-4.1,9.07,16.31,127.88,21.04,6.8,-4.07,13.59,15.33,99.12,6.88,-7.56,11.36,12.61,-21.68,85.6,-75.68,38
7.48,-3.72,12.2,15.67,147.46,17.43,7.86,-4.53,17.65,10.45,46.63,-1.51,-10.92,9.29,13.26,-7.47,43.31,-45.7,38
4.53,-2.4,18.56,14.55,65.58,-1.27,4.13,-5.45,18.54,3.66,32.47,0.54,-13.28,9.74,13.07,-2.64,32.28,-36.04,38
0.88,-2.41,19.59,17.43,49.85,1.46,0.45,-4.75,19.05,8.54,36.23,2.78,-12.25,9.46,12.51,7.86,23.29,-32.08,38
-1.38,-3.34,19.8,15.53,59.52,1.71,-3.57,-3.79,19.0,-3.66,19.78,-7.03,-18.77,5.73,10.57,11.33,18.07,-30.66,38
-5.54,-1.79,19.0,17.04,52.54,0.63,-2.16,-2.61,19.84,2.88,7.28,1.03,-15.63,6.57,9.6,6.59,13.13,-4.39,38
-4.13,-1.53,20.33,7.03,9.23,0.73,-1.52,-1.29,20.15,6.15,4.83,-3.56,-19.68,4.77,8.79,-11.62,12.11,-1.71,38
-3.62,-0.65,20.67,3.86,8.5,4.39,-0.13,-3.41,20.97,6.69,-1.37,4.15,-16.75,8.26,9.57,-3.32,2.98,2.83,38
-2.83,-2.07,21.1,-0.63,-0.78,4.98,-0.83,-2.44,21.07,7.62,7.28,-0.63,-16.86,7.41,10.44,6.84,-3.22,0.54,38
0.59,0.92,21.35,7.18,-12.6,-4.49,-0.9,-2.22,20.6,-3.32,-1.12,-2.73,-18.1,7.12,10.05,6.74,0.44,-2.25,38
-0.72,-0.03,21.15,-4.54,-2.39,-5.86,0.17,-2.52,20.97,2.93,-2.73,-6.64,-18.5,6.34,9.63,5.27,-0.39,-0.24,38
-3.23,-0.99,21.21,5.71,-2.2,-3.52,0.04,-0.91,20.78,4.93,2.59,-3.47,-17.84,6.73,10.46,-2.49,0.49,0.93,38
-1.33,1.4,21.76,6.84,-1.51,4.79,0.73,-2.63,20.93,2.49,0.68,-1.27,-17.45,8.91,10.44,-6.45,2.1,1.32,38
16.66,-1.15,17.51,-22.36,-166.5,-14.11,22.49,-6.1,8.62,-12.16,27.39,15.63,-12.88,10.56,13.44,1.42,-2.88,0.0,39
24.33,4.48,13.62,28.47,-244.43,-17.19,20.49,-9.55,9.88,38.53,99.27,30.32,-13.33,10.59,13.13,4.64,-0.44,0.0,39
12.95,2.12,10.42,19.48,-126.81,-0.63,13.56,-5.55,10.85,5.42,77.1,6.74,-14.41,9.49,13.34,7.32,0.54,-3.17,39
20.74,1.82,8.03,11.08,-14.65,5.62,11.37,-6.34,14.99,-8.25,55.81,9.86,-13.99,9.37,13.04,-5.47,7.37,0.05,39
22.3,-0.65,5.64,-4.2,36.08,13.82,8.49,-6.91,16.56,2.15,48.44,7.91,-13.47,10.18,13.48,-0.93,0.1,0.05,39
20.16,-3.23,6.47,15.77,107.81,26.95,3.69,-7.39,16.49,4.83,35.94,9.18,-14.14,10.08,13.03,1.76,2.39,-0.39,39
14.17,-2.54,10.4,-2.93,86.82,8.5,2.01,-7.8,16.99,-5.08,8.01,-1.22,-13.77,9.42,13.42,7.37,-1.22,-0.98,39
14.09,-3.54,14.44,-9.13,63.33,10.5,1.41,-7.5,17.96,11.52,17.43,3.17,-13.33,10.07,13.19,-4.1,3.91,3.27,39
9.45,-4.38,17.59,-4.54,59.23,6.84,2.32,-5.51,18.95,12.3,13.57,6.49,-13.08,10.22,13.44,0.63,-0.73,1.17,39
2.1,-4.94,18.45,6.15,58.54,14.84,2.98,-5.15,19.81,18.31,13.87,5.81,-13.16,10.76,13.13,-2.0,2.64,0.44,39
0.96,-4.79,18.75,5.76,23.83,1.76,3.54,-5.54,20.27,9.67,8.98,-3.08,-13.06,10.81,13.5,4.3,-0.44,-2.25,39
1.72,-4.4,19.22,14.36,25.15,7.67,3.48,-6.17,20.76,3.71,7.76,2.78,-13.68,10.53,12.87,0.39,4.64,-0.88,39
3.21,-2.4,20.35,14.6,15.38,5.66,1.81,-5.99,20.31,-3.52,0.83,-1.86,-12.69,10.83,13.49,1.81,-0.68,-0.59,39
4.37,-2.36,21.11,13.67,5.76,2.98,2.33,-4.95,19.98,-0.98,-4.15,-0.39,-12.98,11.46,13.12,0.54,5.13,-1.81,39
3.28,-1.87,21.28,6.74,-0.24,-2.78,2.03,-5.92,20.08,1.32,0.2,-0.83,-13.78,9.31,12.71,2.69,-0.29,-2.83,39
3.27,-2.83,21.4,2.59,2.73,-0.34,2.08,-6.07,19.93,-1.17,2.69,2.93,-13.12,9.46,13.26,-1.12,1.12,-0.44,39
0.5,-2.01,20.86,-0.78,0.2,-2.59,1.58,-4.85,19.81,-5.76,2.25,-5.32,-13.19,9.96,13.31,2.1,0.44,-1.17,39
0.31,-2.12,21.21,-0.24,-1.27,0.63,2.2,-6.45,20.11,-1.76,0.34,1.37,-13.41,9.99,12.92,5.66,5.08,-1.66,39
1.1,-2.76,21.12,0.88,-1.56,-2.0,2.71,-6.1,20.21,-0.88,-1.66,3.13,-13.6,10.44,12.93,-0.34,2.2,-0.2,39
2.01,-2.31,21.57,1.32,-0.05,1.12,2.61,-6.76,20.56,-0.49,-1.37,3.32,-13.04,10.15,12.92,-0.15,-2.0,-4.05,39
-2.73,-2.74,19.59,2.29,-1.71,-8.64,5.34,-5.86,17.25,-0.88,-53.42,-6.59,-1.87,13.83,12.96,27.88,-36.72,51.32,40
-1.82,-2.9,19.68,-0.88,-22.12,-2.88,6.74,-9.25,15.77,1.9,-47.8,-4.59,2.09,15.66,11.8,18.51,-37.3,56.69,40
1.56,-3.89,18.88,-0.88,-46.34,3.66,12.41,-5.08,14.7,16.45,-60.35,-4.1,9.92,21.73,12.04,21.92,-48.29,39.5,40
4.7,-2.56,18.87,1.46,-72.27,-2.29,17.98,-5.02,11.18,4.39,-79.59,-5.18,10.57,17.89,11.06,-18.85,4.64,10.21,40
5.46,-4.34,16.23,10.94,-44.82,1.32,25.91,-5.6,11.23,-31.2,-69.97,-6.79,6.9,14.81,12.52,-21.68,55.52,-33.3,40
12.55,-2.41,15.84,9.91,-71.87,-4.98,27.43,-8.64,10.66,-16.55,-2.39,16.46,2.26,13.45,13.16,-28.96,57.67,-52.64,40
16.48,-0.65,11.12,11.23,-100.05,-11.08,20.6,-6.5,8.97,6.98,58.98,20.51,-2.59,13.23,13.23,-27.69,49.61,-56.88,40
28.03,-1.44,9.47,-9.96,-68.36,-1.51,15.7,-6.46,11.46,14.31,63.53,14.6,-7.14,10.88,13.87,-13.53,36.77,-37.06,40
28.35,-2.52,9.05,-13.82,-4.44,18.7,9.21,-7.19,13.35,17.63,55.91,9.47,-9.11,11.2,13.88,0.68,20.07,-21.78,40
21.54,-1.67,9.58,3.91,63.48,18.55,7.04,-8.55,16.14,10.5,37.16,9.33,-10.39,11.84,13.69,1.22,13.77,-13.23,40
16.66,-2.5,12.59,3.52,65.63,9.47,5.83,-6.71,17.36,10.5,23.05,2.05,-12.09,11.43,13.18,0.34,17.19,-13.82,40
7.99,-3.67,15.71,10.5,55.91,4.83,5.94,-6.53,18.48,6.45,15.82,2.44,-11.34,11.99,12.91,10.4,6.79,-6.64,40
4.31,-4.39,17.85,10.16,49.41,7.03,4.93,-5.42,18.87,4.64,12.55,0.34,-11.95,10.88,13.38,0.83,5.96,-9.37,40
4.21,-2.94,19.05,12.21,27.69,2.25,4.32,-5.23,19.38,3.86,8.84,-2.25,-13.69,10.52,13.13,0.83,12.74,-12.3,40
4.5,-2.8,19.85,7.81,15.77,1.9,4.1,-6.91,19.57,-0.63,11.77,-0.88,-13.59,9.8,12.9,2.93,12.6,-11.13,40
2.83,-2.67,20.16,4.54,17.04,1.95,3.33,-6.36,19.43,0.1,11.08,0.34,-14.22,8.88,12.49,1.86,6.01,-4.2,40
4.37,-2.65,20.62,2.49,14.99,-4.0,2.07,-5.87,19.26,-0.73,12.35,0.49,-13.65,10.56,12.96,1.9,7.47,-4.05,40
3.65,-3.91,20.47,-1.81,11.04,-1.27,2.2,-5.97,19.59,-0.34,4.83,-0.68,-14.32,9.39,12.65,-0.2,2.59,-3.71,40
2.45,-3.21,20.77,2.1,14.5,0.98,2.72,-4.93,19.71,4.05,13.18,2.05,-14.3,9.02,12.65,-3.13,2.54,-6.35,40
1.32,-3.05,20.53,3.56,19.19,2.88,3.31,-5.51,20.55,0.54,5.76,-1.51,-14.64,7.92,12.32,-1.9,-0.59,-4.93,40
24.62,-2.03,3.33,-9.96,-16.31,10.6,22.95,-2.85,17.98,-9.86,-138.92,5.81,13.75,12.69,7.81,-7.28,16.99,-4.69,41
17.62,-1.37,3.16,-5.03,-3.17,4.3,26.81,-2.16,10.77,-63.43,-100.63,11.62,12.26,11.92,8.18,-13.57,12.11,-12.06,41
15.88,-3.91,3.86,1.61,15.23,2.73,20.81,-3.35,5.03,0.93,-17.48,8.06,10.05,11.74,9.01,-3.71,12.94,-11.28,41
18.98,-3.69,4.13,-4.05,14.31,6.84,15.5,-4.69,2.62,20.75,5.52,7.08,9.42,12.92,9.56,-1.22,16.6,-8.69,41
18.84,-3.54,4.97,-1.32,12.11,6.64,16.46,-6.58,4.24,15.48,12.3,3.91,10.45,13.43,10.11,-6.59,13.09,-6.98,41
25.16,-4.84,7.96,3.37,54.79,19.82,18.2,-8.44,5.31,-4.83,12.6,5.62,11.56,16.0,11.26,-4.93,42.14,-20.51,41
20.07,-2.56,9.56,17.53,86.52,26.07,18.39,-7.85,5.61,-2.25,9.33,7.03,6.36,13.9,11.79,-19.73,78.13,-39.01,41
19.18,-4.31,16.62,15.43,97.12,18.65,23.73,-10.27,9.41,10.94,56.4,24.12,3.04,14.85,14.89,-19.78,82.52,-46.04,41
3.56,-5.49,18.5,47.75,129.59,25.24,18.44,-6.96,9.46,25.24,76.81,31.01,-4.46,10.42,14.41,-6.1,101.81,-74.27,41
-5.56,-0.3,19.58,50.68,111.23,27.73,16.69,-14.76,17.76,21.97,119.68,29.88,-13.46,6.62,12.64,-21.0,102.69,-60.45,41
-8.96,-0.16,18.52,39.06,47.85,5.66,9.64,-8.84,16.06,48.93,130.27,29.3,-17.13,5.05,9.29,-4.1,73.05,-55.52,41
-13.49,3.73,18.17,48.29,30.37,6.79,-0.06,-5.16,16.66,27.98,88.82,22.02,-19.2,5.51,7.86,-7.67,28.32,-30.37,41
-8.04,-1.28,19.51,-15.38,-10.99,-0.93,-6.43,-2.32,16.74,32.23,53.61,7.96,-18.96,6.44,7.39,0.2,3.81,-0.54,41
-6.7,0.17,20.22,1.61,-1.12,-6.25,-6.55,-1.6,19.04,8.25,-9.77,0.59,-17.96,6.59,8.15,10.06,6.05,-9.33,41
-7.93,1.17,19.98,-1.9,7.37,-8.35,-3.24,-3.14,20.58,-15.92,-8.69,1.42,-20.4,3.29,7.37,13.62,7.13,-12.79,41
-7.51,1.67,19.72,6.1,-5.96,0.24,-6.15,-2.95,20.24,2.69,8.45,-0.05,-21.61,0.5,7.41,2.0,9.23,-8.35,41
-9.43,-0.57,19.8,12.7,-18.8,1.86,-7.45,-3.43,19.26,-4.54,10.84,-2.49,-18.85,3.84,6.94,-10.16,-5.22,-0.15,41
-10.12,-0.66,19.87,2.39,-19.43,-6.45,-7.28,-2.57,19.96,-1.71,6.45,-7.18,-19.52,6.73,7.35,-1.17,-11.52,1.56,41
-10.35,-1.13,19.85,-4.25,5.37,-3.17,-3.52,-4.01,20.66,4.2,0.34,-1.81,-20.06,4.18,7.75,6.49,-4.93,-4.2,41
-7.85,0.24,20.04,-4.88,-22.66,-3.27,-4.61,-4.03,20.55,-15.48,-16.5,-4.83,-20.19,1.65,7.84,3.12,-6.84,4.35,41
-7.82,-4.06,9.58,-33.11,-26.32,-3.71,39.05,-10.08,8.69,-143.8,-148.78,4.0,22.78,21.71,7.48,-6.01,-43.95,43.7,42
10.67,-1.49,15.47,-38.28,-164.75,-48.05,22.54,-0.95,-0.4,54.74,8.74,4.79,19.49,22.66,6.42,-1.07,11.72,-8.06,42
20.95,5.39,3.08,5.66,-433.45,5.42,23.34,-5.09,3.66,17.04,32.96,22.07,14.43,15.3,6.93,-11.96,42.09,-18.02,42
37.29,-4.18,2.57,-54.59,-84.47,14.11,19.49,-7.51,4.5,49.66,98.19,33.74,10.32,14.13,10.31,-32.28,75.59,-59.57,42
25.75,-2.86,-0.33,-10.79,3.91,20.02,13.8,-6.27,7.84,40.62,114.94,22.8,4.07,12.79,12.11,-48.54,85.84,-83.94,42
23.79,-1.5,2.56,-5.76,47.56,19.82,6.2,-9.2,11.69,40.67,84.08,10.55,-2.27,12.74,13.47,-31.79,72.46,-82.76,42
18.94,-2.75,5.99,19.38,91.02,20.31,6.08,-8.57,16.26,-3.08,44.04,-5.27,-5.87,11.36,14.75,-5.76,41.8,-55.37,42
14.67,-2.15,10.02,7.67,108.15,12.89,2.94,-10.02,17.23,10.45,49.85,7.37,-11.23,9.19,14.0,-3.08,42.77,-45.95,42
5.76,-3.36,14.97,32.86,78.96,3.32,-0.21,-7.98,17.7,15.33,39.26,6.35,-13.66,8.38,12.32,-10.55,45.21,-38.67,42
5.89,-5.34,18.08,-7.23,60.01,-6.98,-0.56,-6.94,19.14,18.12,21.53,4.93,-15.05,9.32,11.42,4.83,37.45,-26.22,42
1.98,-4.67,18.88,22.22,58.35,5.76,-2.45,-5.81,18.64,2.0,4.25,-0.2,-16.88,8.36,10.52,9.91,13.77,-16.31,42
-1.52,-4.46,19.3,15.92,44.43,7.18,-2.0,-5.0,19.66,3.91,10.25,-5.42,-17.48,6.77,9.85,17.09,10.45,-12.4,42
-2.45,-4.51,19.97,14.6,28.22,5.62,-1.35,-4.25,20.01,2.1,12.99,1.46,-18.13,6.48,9.61,2.88,12.7,-7.47,42
-4.6,-4.21,19.52,2.05,25.78,3.13,1.57,-7.25,20.92,-10.11,-9.91,0.54,-17.38,8.07,10.07,-4.0,-1.42,3.08,42
-2.78,-4.19,20.37,0.68,22.07,-2.54,-0.14,-6.43,20.53,-1.86,-4.88,1.07,-17.06,8.36,9.77,-4.93,0.34,0.39,42
-2.13,-3.55,20.75,-6.15,18.95,3.91,-0.58,-5.26,20.3,0.29,-4.35,-6.64,-18.05,8.27,9.78,8.74,-2.69,-2.44,42
-2.65,-2.99,21.97,0.05,-4.98,0.63,-0.53,-6.32,20.48,1.61,-2.78,-4.1,-18.39,6.1,9.95,2.73,-0.59,-5.03,42
-2.87,-2.51,21.16,6.15,-14.16,0.78,-1.53,-5.81,19.95,-4.54,-1.17,-4.25,-19.69,4.5,9.53,-5.96,2.25,-3.76,42
-3.67,-1.16,21.44,7.03,-10.06,-7.13,-1.28,-5.26,20.55,3.12,-3.61,4.49,-18.86,6.0,9.86,-5.71,8.15,1.66,42
-4.87,-2.93,21.0,1.61,2.88,-0.49,-1.25,-4.72,20.55,-1.71,-5.08,2.0,-18.86,7.51,9.67,-2.44,5.08,-0.1,42
11.9,5.98,7.12,120.36,-468.46,-28.08,31.51,-1.37,10.31,111.43,-352.78,4.05,14.75,22.41,8.02,96.92,-153.08,112.3,43
34.89,-1.73,3.98,-96.0,-114.45,27.88,38.43,-1.63,9.23,-118.75,-144.29,33.69,16.42,20.73,4.93,12.5,-0.29,49.27,43
24.65,-3.74,1.27,-15.33,65.38,21.48,22.88,-7.61,3.51,-10.01,43.85,27.69,16.23,17.88,6.85,-19.09,45.12,-42.14,43
22.69,-0.7,4.74,10.25,76.86,33.69,23.28,-5.63,6.42,2.98,85.55,43.02,10.86,11.44,9.08,-33.64,77.0,-32.47,43
17.69,-2.49,9.72,-15.23,97.17,21.19,17.17,-6.69,10.3,-0.2,104.59,24.27,5.96,12.42,11.88,-41.75,69.92,-55.76,43
9.84,-3.7,14.6,14.36,93.12,9.62,9.48,-7.36,14.82,19.58,78.27,17.72,1.0,12.4,15.41,-27.15,44.58,-61.91,43
5.29,-4.76,17.96,22.41,84.08,-5.18,5.14,-8.13,16.11,29.83,60.45,-1.07,-2.92,8.21,15.36,-23.29,49.9,-67.38,43
0.61,-6.83,18.18,23.34,68.85,6.64,1.15,-6.6,17.59,32.62,24.9,7.47,-7.68,11.61,14.49,-3.96,56.98,-61.57,43
-2.01,-4.85,18.25,20.46,37.35,12.21,-0.17,-7.53,18.76,6.25,7.13,2.39,-12.61,7.56,13.13,-25.1,50.63,-47.51,43
-3.8,-3.96,19.94,6.93,41.6,-3.61,-0.92,-5.5,19.06,-1.9,19.68,-11.18,-15.41,7.51,11.59,5.27,17.04,-25.1,43
-6.08,-1.94,19.67,8.25,36.91,9.23,-2.75,-3.41,18.6,-0.63,6.2,-0.54,-18.22,7.1,10.68,-12.35,16.06,-21.58,43
-3.54,-2.71,20.59,9.37,24.12,3.56,-1.73,-5.56,19.14,1.9,-1.17,-2.0,-17.67,7.0,11.19,-3.17,2.29,-8.69,43
-2.47,-2.16,20.86,9.03,13.28,5.62,-1.11,-5.84,19.6,-1.37,-4.59,-2.73,-17.39,7.06,11.39,-0.63,3.61,-5.81,43
-0.39,-2.46,21.68,6.64,2.59,2.69,0.92,-6.86,20.28,0.98,2.34,0.63,-16.41,7.07,11.34,-0.88,1.07,-1.56,43
-1.2,-1.32,21.36,2.54,1.46,4.25,0.09,-5.84,20.29,-2.05,4.83,-1.56,-17.36,6.67,11.1,-5.03,4.39,-1.76,43
-1.34,-2.62,21.52,-0.98,-11.87,2.88,0.92,-5.93,20.64,1.95,-3.03,-2.39,-17.0,6.64,11.73,-7.62,3.91,2.29,43
-3.43,-2.14,21.2,-0.68,12.55,5.22,-0.8,-6.19,20.08,6.69,-0.59,-1.37,-18.29,7.7,10.57,3.27,4.88,-2.78,43
-1.78,-3.51,21.29,2.49,2.88,-2.73,-1.2,-7.03,20.22,-1.61,0.44,-1.12,-17.21,7.6,11.47,5.08,-0.83,-4.0,43
-0.95,-0.53,21.4,7.67,-3.52,5.08,-0.46,-4.44,20.09,4.83,-1.51,0.63,-16.47,7.31,11.6,-7.37,5.62,-2.15,43
-1.49,-2.73,21.43,-3.56,-3.03,-1.03,-0.17,-7.56,20.66,4.64,-7.67,4.83,-15.98,8.7,11.65,-4.05,0.29,0.68,43
34.71,0.82,7.45,-8.84,-149.46,6.84,20.83,-7.81,5.35,4.83,32.76,12.6,15.97,26.9,12.25,53.81,-95.51,111.33,44
29.38,-1.37,2.06,-0.24,-34.62,-17.29,18.53,-7.69,7.28,16.5,86.33,14.26,18.03,24.34,9.48,39.36,-34.42,5.13,44
18.77,-1.08,1.5,21.19,14.84,25.59,13.64,-7.33,11.27,20.07,77.54,11.72,10.18,13.88,8.35,-15.63,35.99,1.42,44
20.88,-2.55,3.39,4.78,36.23,13.72,9.52,-6.23,13.8,18.85,73.44,2.29,8.06,16.44,10.23,-9.13,36.28,-24.66,44
17.87,-3.81,6.93,8.54,94.68,14.75,5.43,-8.14,15.78,21.09,65.33,12.79,5.9,14.64,11.92,-23.93,54.2,-52.1,44
14.05,-4.62,11.45,10.69,89.79,10.4,1.93,-3.9,17.41,19.29,57.18,5.18,1.44,13.72,13.31,-22.27,61.23,-58.94,44
10.98,-4.75,13.9,10.01,101.71,0.59,1.42,-3.76,19.12,9.91,31.4,0.34,-3.68,13.94,13.17,-9.81,61.08,-72.22,44
7.86,-4.85,16.18,15.48,71.97,9.08,2.38,-3.01,20.35,11.57,9.13,8.2,-10.33,8.24,13.01,-20.95,79.25,-45.21,44
4.64,-3.16,18.11,10.74,64.84,7.52,0.22,-3.61,20.24,-4.59,-2.88,0.29,-14.19,11.59,12.39,-5.81,45.61,-41.65,44
2.03,-2.3,19.67,5.52,32.32,0.24,0.72,-4.33,20.24,-3.61,1.95,0.93,-16.14,9.96,11.54,6.15,31.74,-26.61,44
0.51,-0.9,21.13,11.82,10.25,5.71,-0.22,-4.94,20.06,0.44,5.76,-5.27,-15.39,10.15,10.87,-8.25,15.87,-8.54,44
-2.28,-1.79,20.62,8.2,6.05,1.81,0.15,-4.56,20.07,-4.59,6.93,-4.39,-15.72,9.88,10.81,-12.99,1.51,-4.35,44
-2.19,-1.35,21.22,6.4,13.92,1.03,1.21,-4.91,20.86,4.1,2.15,1.27,-14.69,12.64,11.28,4.74,-0.1,-6.69,44
-0.9,-2.67,21.2,9.18,10.45,-5.52,0.77,-4.14,20.44,2.49,6.69,3.71,-15.63,11.66,12.15,13.09,-4.79,-12.11,44
0.66,-2.98,20.97,-6.88,8.64,-2.49,1.12,-5.8,20.96,-2.44,-2.73,4.93,-16.43,8.42,11.1,3.71,2.44,-11.28,44
0.84,-3.91,21.26,0.05,0.34,2.34,0.55,-4.32,20.47,-0.59,-0.63,4.64,-16.56,8.27,11.85,-1.07,3.47,-3.17,44
-0.4,-2.38,21.29,-0.59,8.35,7.76,1.33,-5.4,21.0,-2.3,-1.86,-2.69,-16.24,9.01,11.13,-8.55,11.23,-4.3,44
-0.33,-3.49,21.15,-3.03,-3.52,-1.95,0.26,-4.12,20.33,0.1,0.98,0.59,-15.47,10.37,11.7,-0.93,0.54,0.05,44
-0.96,-2.55,21.09,-0.0,4.93,2.93,1.09,-5.57,20.83,-0.24,0.88,0.49,-16.27,10.69,11.16,0.24,6.79,-2.0,44
-0.55,-2.38,21.57,0.15,-3.47,-2.29,0.25,-5.05,20.53,1.07,-0.93,5.76,-16.54,8.82,11.52,3.71,-0.34,-1.03,44
1.36,-3.14,20.63,1.61,5.03,0.93,2.52,-4.95,19.42,0.1,-0.15,-0.49,-6.74,15.03,11.77,5.76,0.54,-3.17,45
1.91,-3.4,20.75,-1.22,7.08,2.98,2.86,-5.59,19.98,1.61,-1.07,1.56,-6.64,15.1,11.84,3.61,1.51,-1.51,45
2.17,-2.87,20.77,-0.29,3.86,3.91,2.84,-5.49,19.96,1.56,-1.9,1.07,-6.8,14.49,11.72,-0.2,3.47,-0.83,45
1.45,-3.35,20.63,1.27,3.71,2.98,2.78,-6.07,20.0,0.88,-1.86,1.42,-6.38,15.4,11.63,0.29,2.59,-1.81,45
1.53,-2.87,21.09,6.25,0.05,1.56,3.33,-6.12,20.28,1.9,-1.27,-0.1,-6.62,15.29,11.54,2.34,0.78,-1.12,45
1.53,-3.6,21.17,-5.13,13.28,0.83,2.99,-6.65,20.31,-5.71,6.88,-0.88,-6.5,16.03,11.64,1.22,3.08,-7.13,45
0.45,-3.53,20.69,-5.81,18.51,2.05,1.97,-5.27,19.88,1.9,7.67,-1.03,-7.39,14.71,11.38,-0.73,4.1,-9.57,45
-0.55,-4.17,19.92,-8.79,16.11,-0.78,-0.11,-7.04,18.96,-9.52,8.15,-1.56,-7.76,14.74,12.2,0.59,0.73,-8.98,45
-4.18,-4.14,15.4,-15.43,6.2,5.42,-6.0,-5.49,13.92,-19.82,-12.45,-0.83,-8.94,11.42,11.12,-9.38,-7.76,6.98,45
0.01,-6.84,12.3,-31.35,-147.07,-18.07,3.37,-12.13,11.39,-32.86,-148.0,-14.99,-1.91,7.32,11.76,10.5,-49.17,86.87,45
15.12,-3.49,12.91,63.62,-241.16,-6.88,16.39,-5.42,11.68,41.8,-148.14,-1.32,3.73,12.59,11.13,36.03,-77.54,90.63,45
22.95,-1.52,5.57,24.76,-154.49,22.02,26.15,-5.18,9.69,34.37,-117.04,24.12,11.84,19.36,9.88,23.63,-30.42,77.83,45
25.84,1.16,2.63,-15.14,-62.74,1.17,28.95,-4.88,6.84,-23.93,-54.35,1.51,13.56,21.0,7.51,20.02,-26.95,30.96,45
22.81,-1.45,1.46,-18.9,74.8,11.77,20.68,-6.12,5.27,-20.12,58.69,3.76,11.19,15.76,8.51,-16.16,28.27,-18.12,45
22.37,-3.16,6.48,-0.34,117.48,-1.81,17.97,-6.76,6.61,8.89,124.66,-0.78,8.48,15.9,10.96,-9.23,47.66,-56.15,45
19.97,-1.48,10.67,-6.45,100.68,-3.52,13.28,-6.46,11.25,1.32,94.29,2.69,2.56,15.47,10.95,7.32,67.97,-64.5,45
14.9,-1.2,14.86,-9.57,89.89,3.71,11.28,-5.9,14.76,-9.72,90.67,7.81,0.15,16.72,10.82,-27.1,57.57,-57.03,45
8.07,-2.89,17.53,-6.05,83.25,3.47,4.37,-5.94,16.97,10.84,74.12,8.98,-5.86,17.11,11.77,-14.99,52.39,-64.11,45
2.93,-3.52,18.77,-19.58,78.71,6.4,-1.62,-6.56,17.9,-13.09,46.09,-0.15,-10.49,12.14,12.67,-20.46,43.07,-53.71,45
1.18,-3.38,18.71,-10.21,-11.77,0.2,1.87,-6.56,18.77,3.76,3.37,-3.76,-11.18,8.86,13.04,-14.06,20.02,-19.63,45
21.0,1.65,13.34,15.43,-161.57,4.98,19.06,-3.78,4.61,10.74,72.8,-0.1,7.45,15.59,12.04,-13.23,41.99,-41.41,46
25.44,-0.58,8.33,10.3,-204.93,14.99,17.72,-7.08,8.0,6.69,124.95,13.09,3.94,17.49,12.41,-15.72,54.3,-66.75,46
20.79,-4.6,2.56,-12.01,-4.49,13.04,13.63,-5.65,12.18,6.93,92.24,15.58,-0.52,14.76,13.18,-20.36,49.71,-60.84,46
19.61,-1.37,4.3,9.28,74.56,6.01,10.05,-7.2,15.34,-9.57,92.33,15.48,-5.0,16.84,13.32,-12.7,54.0,-67.58,46
17.03,-2.31,6.48,17.38,133.01,7.57,5.38,-7.63,17.01,-21.24,42.58,8.69,-9.67,10.9,13.62,-22.8,36.57,-52.39,46
14.51,-2.91,11.42,4.78,110.35,9.52,1.56,-6.95,17.01,-4.2,26.95,0.98,-12.96,7.75,13.89,-23.34,28.32,-22.36,46
11.12,-4.17,15.18,-9.23,112.3,11.91,0.45,-6.57,18.17,13.72,6.93,6.69,-12.45,8.72,13.99,-15.77,19.68,-26.17,46
3.44,-4.57,18.28,-15.19,57.76,5.66,2.43,-7.58,18.96,1.42,3.76,-2.34,-13.19,9.8,13.74,1.32,2.0,-12.06,46
-0.18,-4.51,19.01,2.25,44.78,4.88,1.14,-8.05,18.56,-1.47,9.42,-1.81,-14.15,7.23,13.38,1.46,6.54,-12.01,46
-1.59,-4.33,20.11,11.82,32.18,9.67,1.19,-7.73,19.33,3.52,6.74,-1.9,-14.24,8.48,13.04,6.4,3.37,-9.91,46
-1.09,-4.2,20.83,8.25,10.16,-1.12,0.22,-9.02,19.81,-7.67,5.52,-4.35,-15.01,7.21,13.25,3.12,0.68,-8.2,46
-1.71,-4.09,20.52,4.0,18.75,0.44,1.74,-7.64,20.16,1.27,0.68,-7.13,-16.63,6.88,12.84,4.64,7.23,-6.45,46
-0.41,-3.11,20.9,6.49,12.11,-2.93,0.58,-7.46,19.8,-2.64,-4.93,-4.15,-15.85,5.14,12.36,-10.94,9.72,-3.66,46
-1.17,-3.8,21.26,1.61,8.15,-3.61,1.11,-6.86,19.83,1.81,-2.1,1.03,-15.58,7.83,12.48,-3.03,6.35,-3.47,46
-0.81,-3.04,21.35,8.59,-0.2,-4.44,0.13,-8.26,19.58,-3.71,-0.05,2.44,-15.01,8.37,12.95,1.42,-0.15,-3.56,46
-2.88,-3.85,20.84,1.51,9.86,6.69,1.2,-6.64,20.32,-0.73,-2.88,-2.2,-16.42,8.44,12.69,7.18,6.2,-2.1,46
-1.08,-4.47,20.93,-0.44,10.06,6.25,1.09,-7.49,19.88,0.98,-1.27,-0.39,-17.15,7.39,12.31,2.93,0.63,-2.83,46
-0.48,-3.99,20.7,-6.49,5.52,0.83,1.62,-6.76,20.07,4.93,-2.44,-1.71,-15.41,6.52,12.52,-1.37,-1.95,-1.27,46
-0.96,-4.81,20.99,-0.78,5.62,0.59,1.94,-7.44,20.21,-1.32,-1.95,-0.39,-16.05,7.06,12.75,-8.06,5.86,0.39,46
-1.85,-3.98,21.41,4.59,3.13,1.37,0.47,-8.28,20.1,-4.1,-0.78,1.86,-16.01,7.54,12.75,-2.2,4.44,-0.63,46
10.32,-2.11,12.82,14.31,-113.38,-8.69,21.83,-2.92,4.98,4.0,-16.75,5.86,10.26,15.05,7.78,-0.0,12.16,1.76,47
18.38,-0.63,9.71,29.3,-119.78,-10.79,19.88,-3.92,4.5,7.62,18.36,10.25,10.1,16.11,8.5,-6.05,25.34,-9.72,47
29.49,1.19,5.32,12.94,-84.47,-1.86,21.28,-6.34,7.05,12.45,60.94,9.81,9.26,16.34,9.73,-15.82,41.02,-31.2,47
21.4,0.15,2.98,1.81,-4.79,7.76,17.57,-7.58,8.24,12.79,111.72,8.94,5.75,19.7,11.29,-8.69,64.6,-75.1,47
20.83,-0.1,3.8,1.17,17.58,10.89,15.16,-5.61,12.18,-10.5,91.99,11.62,0.25,16.42,12.37,-29.69,69.09,-73.29,47
21.04,-0.87,5.41,8.15,65.58,8.94,11.83,-6.22,15.21,0.05,84.23,29.44,-5.96,14.64,13.01,-58.4,83.69,-72.36,47
14.5,-2.51,9.0,22.7,107.67,9.86,3.26,-6.3,17.16,-26.07,53.13,7.57,-12.2,10.96,13.05,-27.1,52.98,-66.8,47
11.4,-3.58,12.76,12.45,107.23,17.14,-1.26,-6.73,17.63,-0.29,49.17,2.05,-14.91,8.46,12.95,-8.74,27.54,-45.02,47
9.42,-2.51,15.68,7.42,99.9,26.81,-0.52,-7.58,17.97,-4.0,33.89,0.2,-15.35,5.97,13.09,-1.22,21.09,-33.45,47
0.41,-3.59,19.09,-2.93,70.46,9.72,-1.53,-7.93,18.28,6.15,24.12,1.03,-14.73,4.66,12.37,-1.22,9.81,-18.8,47
-2.94,-3.62,19.41,10.06,62.16,6.93,-0.95,-7.06,19.15,8.5,13.87,-7.23,-16.66,4.16,12.06,12.89,9.33,-11.57,47
-3.03,-4.93,19.23,4.83,53.22,3.91,-1.7,-6.64,18.55,2.54,9.42,4.93,-16.24,4.5,11.63,-0.98,4.64,-2.93,47
-3.47,-6.33,19.02,0.34,32.52,3.81,-0.22,-6.42,19.7,13.53,2.29,-5.42,-16.77,5.83,11.97,9.33,1.61,4.98,47
-2.2,-5.84,19.71,3.22,24.22,-4.15,1.67,-6.47,20.73,9.28,4.0,-1.32,-16.01,8.34,12.17,9.52,-0.78,4.64,47
-2.02,-5.4,19.46,-4.98,11.62,5.03,0.54,-7.38,20.48,2.54,5.03,-1.27,-16.56,6.9,12.06,2.78,-0.1,-1.51,47
-0.91,-3.0,21.17,10.2,-9.57,-3.17,0.4,-7.62,20.31,1.27,3.66,-1.46,-16.01,6.08,12.44,2.1,-0.68,-3.47,47
1.12,-3.22,21.7,-3.71,-1.76,-2.2,-0.56,-5.5,19.54,-2.69,2.1,-2.2,-17.96,5.31,11.89,-3.03,5.47,-4.49,47
0.54,-3.09,21.49,-6.25,0.1,-2.29,-1.21,-7.73,19.78,-5.52,-0.54,-0.29,-17.37,5.14,12.22,0.29,1.71,-2.83,47
0.37,-4.13,21.0,-8.64,-5.08,-4.44,-0.73,-6.77,19.95,0.63,-1.07,-1.32,-16.74,5.94,12.05,3.56,2.73,0.73,47
-3.06,-4.79,20.78,-6.2,4.25,-0.24,0.04,-7.04,20.33,1.95,-2.05,1.61,-16.14,6.62,12.56,5.13,-1.37,0.63,47
7.14,-3.29,19.77,-29.25,-72.31,-14.31,-0.4,-5.84,20.12,3.66,-0.49,-1.27,13.37,21.11,10.71,38.09,-51.61,51.32,48
8.08,-7.23,17.87,24.85,-48.97,-11.38,-0.03,-6.16,20.13,-0.93,-3.86,0.1,13.55,18.35,9.16,24.37,-37.94,11.18,48
12.84,1.96,13.3,42.04,-219.48,-4.79,-0.03,-6.72,20.32,0.49,0.93,2.73,10.97,16.3,9.88,1.37,24.37,-4.0,48
28.85,3.53,9.28,-1.27,-120.17,11.62,-0.12,-6.6,19.99,-0.49,-3.17,1.22,8.5,13.84,10.98,-9.23,58.15,-43.75,48
21.64,-0.6,3.08,-14.11,-57.42,-1.12,-0.24,-7.01,20.3,-0.39,-2.83,2.05,5.41,16.47,13.57,-39.6,71.68,-86.77,48
24.91,-1.81,2.33,-13.09,7.81,12.21,-0.43,-6.48,20.02,0.73,-2.2,2.05,-1.45,11.13,13.99,-97.9,79.0,-94.19,48
23.6,-2.3,5.9,-6.59,75.44,14.7,-0.37,-6.88,20.03,-1.81,-0.93,1.27,-10.07,6.1,15.06,-63.38,53.03,-75.24,48
24.67,0.2,11.02,8.89,48.58,-6.93,-0.4,-6.16,20.1,-2.34,-1.51,-0.68,-14.16,4.41,14.54,-8.3,33.94,-33.94,48
10.42,0.7,14.69,-11.04,109.28,19.73,-0.18,-7.04,20.22,-0.34,0.49,-2.64,-15.34,4.45,13.94,-5.76,36.23,-27.69,48
-0.43,-3.81,17.02,14.94,144.14,34.23,-0.89,-6.08,20.01,2.49,0.15,0.39,-13.57,6.65,13.13,-1.61,17.33,-8.74,48
-0.6,-7.92,18.97,19.38,69.73,13.53,-0.62,-6.85,20.14,-2.0,-2.98,-1.81,-16.91,4.45,11.44,4.98,5.08,-1.03,48
-1.0,-5.32,20.5,20.61,45.46,6.45,-0.9,-6.81,20.13,-1.22,0.63,1.12,-18.56,3.75,11.16,14.21,0.78,0.93,48
-4.93,-4.62,20.64,17.63,16.11,7.28,1.12,-7.29,20.45,-1.32,0.63,0.73,-19.16,3.58,11.26,3.71,0.83,2.64,48
-9.9,-5.36,19.96,12.11,-3.66,0.29,-0.29,-6.31,20.23,4.1,4.59,2.1,-17.4,5.17,11.88,1.46,-0.68,1.07,48
-8.43,-4.25,20.71,17.19,4.64,-2.88,-0.17,-6.38,20.04,-0.54,0.98,-1.81,-19.05,4.68,11.27,6.1,0.05,-0.2,48
-6.65,-4.02,20.97,17.48,-1.51,1.42,0.09,-6.66,20.23,2.64,0.05,0.15,-18.81,4.16,11.38,0.63,4.15,-1.9,48
-4.11,-5.08,21.11,3.17,0.63,3.66,0.28,-6.56,20.08,-0.54,-0.88,-3.71,-18.04,5.06,11.68,-4.0,1.46,-1.12,48
-5.45,-3.58,21.08,9.33,3.27,0.83,0.54,-6.83,20.46,2.54,-1.9,-2.54,-18.25,6.09,12.15,-1.07,0.59,-0.68,48
-3.8,-4.41,21.09,2.34,6.49,2.64,0.11,-6.81,20.16,-0.93,-1.66,-3.76,-17.81,6.86,11.36,4.44,0.39,0.68,48
-3.06,-3.97,21.15,-0.73,5.91,4.49,-0.16,-6.64,20.41,1.32,1.86,-2.2,-17.87,4.67,12.07,4.39,-0.1,-0.98,48
14.42,-2.92,17.53,20.21,-119.73,-7.52,11.45,-5.99,17.68,5.18,-131.93,-27.64,5.68,12.83,13.55,35.84,-81.15,92.24,49
18.99,-2.44,7.5,70.61,-250.83,-15.58,21.2,0.34,8.27,59.96,-198.88,5.37,12.83,16.48,10.88,47.9,-46.87,52.44,49
25.97,2.91,2.72,32.23,-113.57,-0.1,26.1,-2.73,5.76,12.94,-84.91,0.05,14.87,17.49,8.41,23.29,-19.09,31.45,49
21.12,0.19,-1.67,18.9,-48.58,-6.64,20.23,-3.08,1.32,6.74,-31.4,-3.61,14.12,15.72,6.45,9.52,-13.57,7.03,49
24.03,1.17,-2.16,-8.45,-31.79,1.27,25.14,-4.2,2.03,-15.04,-20.12,2.34,15.23,14.95,5.81,5.62,-4.83,6.4,49
24.61,0.15,-1.2,-21.92,32.67,17.68,25.0,-4.31,2.25,-26.03,30.86,23.73,14.79,14.99,6.55,0.44,33.5,-15.62,49
24.0,1.5,2.04,-18.07,66.5,9.67,22.8,-3.17,5.01,-1.22,73.73,10.84,11.99,13.38,8.84,-12.26,49.22,-36.91,49
14.94,1.17,8.33,49.02,74.61,17.38,18.3,-4.53,7.49,13.92,81.98,20.26,4.52,12.88,11.43,-31.54,78.76,-36.23,49
9.73,-1.82,13.83,35.99,111.43,7.91,14.97,-1.84,13.31,20.75,104.88,2.93,3.74,16.04,13.8,-14.26,53.37,-43.41,49
8.97,-5.6,17.65,-8.55,106.2,0.73,7.96,-6.34,17.68,1.12,91.6,5.13,1.68,14.29,14.0,-9.18,41.5,-53.17,49
2.98,-0.94,20.79,-18.46,74.07,-14.36,4.51,-4.61,17.65,12.26,66.85,1.9,-5.06,12.64,13.68,-4.05,26.81,-37.06,49
3.4,-2.04,21.36,-15.72,29.0,-8.74,2.52,-7.41,19.96,-19.63,42.82,5.57,-7.2,14.99,14.1,-8.98,30.86,-25.68,49
2.06,-4.15,20.93,-10.01,32.86,-4.15,-0.33,-6.5,18.88,-0.49,56.1,7.52,-8.99,11.84,14.08,1.42,28.13,-22.61,49
-1.7,-2.32,20.09,4.64,28.61,2.59,-3.4,-4.81,18.55,17.82,45.61,5.62,-10.12,10.24,13.24,-0.93,26.07,-18.8,49
-3.2,-0.7,21.75,2.2,9.77,6.79,-5.28,-1.95,18.35,5.18,18.55,4.93,-10.65,12.1,13.06,-4.1,12.3,-11.38,49
-3.1,-0.8,21.42,4.93,-12.7,4.0,-4.12,-3.66,18.39,7.47,2.15,8.84,-10.92,12.01,13.27,-1.03,5.76,-3.22,49
-3.04,-2.1,21.28,3.76,-9.13,0.63,-4.67,-2.98,19.97,4.15,-7.13,11.23,-11.27,13.2,13.37,0.63,3.96,-2.25,49
-4.08,-2.32,21.47,6.64,-5.81,2.0,-4.07,-4.28,20.64,-1.12,-0.39,4.98,-10.48,12.81,13.03,2.05,0.0,1.76,49
-3.81,-1.37,21.97,5.37,-18.02,-1.51,-2.48,-2.69,21.39,-2.25,-1.32,-2.05,-10.02,13.09,13.14,9.96,-0.93,4.0,49
-5.11,-2.02,21.52,7.52,-21.73,-6.45,-2.6,-1.73,21.15,0.88,3.13,0.2,-9.74,13.96,13.15,2.73,0.0,-0.63,49
21.79,0.27,-0.49,13.72,-82.86,-8.11,17.85,-5.44,1.37,-3.03,0.73,2.05,8.27,10.85,13.52,2.15,4.35,-2.59,50
20.64,-1.57,-0.01,5.91,-32.08,-5.57,20.4,-6.07,1.32,-13.04,-17.04,3.17,9.4,11.7,14.16,3.03,0.34,-1.71,50
22.0,-2.71,-2.29,-0.78,-3.71,4.3,24.21,-7.73,3.55,1.61,53.27,13.13,9.35,14.0,14.81,-2.59,33.5,-21.34,50
18.74,-3.04,-1.67,-6.45,0.63,5.22,17.06,-6.68,4.5,10.84,75.29,6.79,6.1,12.75,15.5,12.6,47.41,-41.5,50
21.38,-3.05,-1.32,-11.67,-6.45,4.69,15.51,-7.64,9.66,12.35,89.99,12.55,0.69,12.68,15.07,4.59,58.79,-45.46,50
23.66,-3.7,-0.2,-12.94,90.04,20.17,10.79,-7.12,11.9,21.97,86.52,11.52,-2.77,11.63,15.16,6.4,60.55,-50.54,50
17.51,-3.48,4.53,-0.05,83.4,4.1,8.81,-7.1,14.96,10.2,61.57,7.37,-6.83,11.72,15.14,11.62,46.0,-33.94,50
17.28,-4.38,8.06,12.11,92.14,13.96,6.14,-6.33,16.71,16.55,34.08,4.15,-9.3,11.62,13.83,7.52,32.67,-27.78,50
11.87,-4.38,12.06,16.7,91.46,8.15,5.7,-6.02,18.47,10.55,21.04,1.22,-10.3,14.18,12.86,18.85,22.17,-15.92,50
8.98,-4.29,15.4,11.43,72.22,7.67,4.96,-6.37,18.91,-3.56,19.19,-1.76,-11.69,12.0,12.52,6.49,14.6,-14.6,50
6.58,-3.69,17.38,10.5,46.0,3.32,4.88,-7.29,17.2,-5.86,23.14,-3.27,-12.74,11.74,11.85,0.93,9.72,-12.5,50
6.01,-3.39,19.56,12.45,19.04,0.34,3.14,-5.34,19.23,4.25,16.26,4.49,-13.02,11.15,11.55,-2.1,11.52,-13.87,50
5.68,-3.59,19.73,2.49,19.97,-1.07,2.5,-6.1,19.62,3.22,14.94,5.22,-13.85,10.97,11.38,-5.81,11.23,-12.3,50
4.44,-6.16,22.29,-3.03,29.74,-0.29,2.8,-6.85,20.45,4.05,10.3,4.64,-13.43,12.87,11.12,6.49,10.55,-4.64,50
2.18,-3.38,20.42,-4.44,22.56,1.71,1.75,-6.84,20.07,6.69,1.76,-2.44,-14.8,10.83,10.9,4.88,3.96,-3.86,50
2.68,-3.95,20.69,-1.37,16.46,2.93,1.88,-6.59,20.25,6.01,0.0,-0.44,-15.3,10.27,10.69,-2.0,8.35,-2.78,50
2.21,-3.49,21.59,7.96,-4.59,1.51,1.47,-6.96,20.25,3.76,-2.29,1.42,-14.27,11.72,10.7,-0.15,4.59,-1.56,50
0.61,-4.06,20.96,6.79,-10.99,-4.35,2.42,-7.38,20.52,-5.47,-3.91,-2.64,-14.9,10.53,11.04,7.71,-2.59,1.12,50
0.61,-3.6,21.26,7.13,-8.98,-0.39,2.19,-5.68,20.4,-23.1,-22.36,-7.67,-13.92,11.19,10.63,13.82,-2.39,4.05,50
0.56,-3.98,21.09,-0.39,-6.3,1.71,2.73,-5.8,19.76,-2.69,-9.77,-6.3,-15.37,9.84,10.39,4.39,0.15,-1.37,50
-1.96,-5.34,20.21,-4.0,-9.03,8.98,12.45,-5.44,17.27,-11.33,-106.1,-11.87,-2.09,15.41,14.73,12.65,-55.18,50.59,51
-1.29,-5.21,18.34,10.6,-16.6,5.52,12.91,-6.45,13.12,5.71,-96.83,-24.61,2.43,15.45,14.28,23.24,-54.35,39.6,51
1.54,-5.2,18.22,5.08,-26.95,-1.37,18.32,-4.85,10.57,1.9,-91.36,-16.16,6.09,16.74,14.08,29.35,-54.2,43.41,51
7.23,-3.36,17.56,2.39,-84.86,-11.38,22.37,-2.23,7.78,6.79,-77.05,-1.32,9.5,19.51,13.97,23.14,-29.98,24.37,51
12.8,-3.51,15.86,-8.45,-48.49,-5.47,22.26,-4.06,7.84,-12.01,26.12,4.44,9.04,16.05,12.91,-0.63,17.38,-16.46,51
20.4,-1.94,11.76,9.96,-116.99,-14.45,20.51,-6.46,8.88,-6.54,89.01,3.37,6.23,15.97,13.01,11.77,38.48,-44.78,51
24.72,-0.92,8.06,22.75,-108.15,-6.4,15.23,-4.69,11.02,16.45,87.26,16.21,3.29,14.58,13.41,-7.81,52.44,-45.07,51
28.14,0.29,6.73,-2.69,-49.51,4.05,12.17,-5.11,13.8,11.18,71.53,10.55,-1.37,13.9,13.12,-9.23,55.03,-49.61,51
21.12,-0.81,5.52,-12.5,45.02,-7.67,8.23,-3.86,15.23,-1.71,52.83,8.98,-5.92,14.44,12.69,0.93,38.13,-40.72,51
15.63,-1.89,8.8,1.07,81.84,8.35,8.01,-4.81,17.47,-1.03,32.42,1.51,-8.02,12.56,12.52,-0.88,20.02,-24.61,51
14.48,-1.65,11.82,-2.15,87.84,18.26,6.2,-5.17,18.35,6.49,31.69,1.9,-9.21,12.22,12.49,-6.45,17.24,-22.75,51
11.33,-1.97,15.26,1.81,65.97,10.5,3.46,-4.71,18.29,4.3,26.22,1.22,-10.58,12.07,12.41,-8.94,13.96,-20.65,51
6.33,-3.44,17.11,-4.1,49.27,8.06,3.0,-4.69,19.2,2.64,17.29,0.1,-11.65,11.55,12.27,-2.2,11.08,-15.48,51
6.03,-3.3,18.65,4.59,28.52,3.22,1.49,-4.35,18.84,3.56,22.31,-0.29,-11.68,11.46,12.37,4.49,8.89,-12.79,51
5.0,-2.54,19.73,1.46,26.51,-1.32,1.22,-4.25,19.69,-0.63,12.11,0.2,-12.9,11.02,12.29,1.46,14.31,-11.18,51
2.79,-3.87,19.87,-2.73,15.53,-2.44,2.21,-5.09,20.56,-2.93,3.17,-1.51,-12.5,10.65,11.92,-0.2,3.13,-3.08,51
2.55,-3.49,20.83,0.15,13.04,-2.1,1.18,-5.27,19.96,-3.13,10.79,-0.2,-13.11,12.23,11.76,3.52,4.74,-4.39,51
1.7,-3.44,20.61,-2.1,13.77,1.9,2.62,-5.33,20.7,-3.76,8.69,-3.47,-12.56,11.18,12.25,5.86,-1.66,-0.24,51
0.26,-3.12,20.21,-3.03,8.74,0.73,1.71,-4.45,20.61,6.88,7.81,-0.44,-13.3,11.84,11.54,4.93,0.59,1.27,51
0.98,-2.85,21.17,4.69,6.35,1.22,1.14,-5.07,20.57,6.69,3.32,-5.91,-13.38,11.28,11.47,0.2,-1.03,-1.22,51
16.25,-3.83,10.3,27.88,-167.68,-21.48,24.97,-1.9,8.27,-13.57,-139.01,-11.23,9.1,18.93,12.64,25.05,-61.47,72.27,52
24.51,3.18,7.91,3.91,-139.26,-15.33,22.88,-3.45,6.53,6.1,-32.28,-5.66,9.68,18.44,11.81,14.84,-14.84,16.7,52
22.75,1.0,5.48,9.86,-30.57,-7.08,19.34,-3.08,3.82,7.18,-1.66,0.73,9.38,14.95,10.18,3.52,0.73,0.49,52
18.21,0.24,2.83,9.86,-14.75,2.25,21.43,-3.22,4.32,-10.3,-20.21,6.45,9.55,13.66,10.56,-10.89,-1.46,5.86,52
21.51,-0.31,2.55,-8.84,-22.85,10.3,22.45,-4.26,5.1,-6.93,47.02,14.21,9.28,16.22,11.83,-9.96,31.93,-27.2,52
21.74,-0.13,3.18,-8.15,60.94,16.21,17.04,-4.45,6.48,25.93,91.55,11.82,6.21,16.56,12.49,-6.69,49.71,-54.3,52
17.51,0.26,5.64,13.18,99.8,13.28,16.34,-8.02,11.31,25.0,90.09,20.65,1.21,16.22,13.04,16.45,88.87,-81.98,52
18.93,-0.45,8.62,41.6,102.64,23.05,13.74,-4.77,13.61,18.7,100.73,20.46,-4.57,15.84,11.94,3.47,75.2,-76.81,52
14.82,-1.34,12.98,15.72,106.49,16.5,5.95,-4.41,17.07,3.56,56.15,4.74,-10.88,11.76,10.23,-4.83,45.17,-48.24,52
4.51,-2.17,17.08,3.71,67.97,5.96,3.94,-4.52,17.78,-14.4,23.54,-3.32,-13.58,12.84,9.5,3.37,9.62,-23.68,52
2.36,-2.71,18.99,-5.96,45.95,-1.81,1.5,-2.61,18.71,-4.64,21.58,-7.37,-13.96,9.63,9.52,5.13,4.25,-16.6,52
3.03,-4.66,21.53,-13.97,29.98,-1.27,4.78,-5.58,19.32,0.83,7.23,-3.42,-14.64,9.12,10.7,-3.13,3.08,-7.91,52
3.99,-3.31,20.62,-4.88,5.57,-3.91,2.58,-5.17,19.39,2.1,14.75,6.4,-14.8,10.67,11.12,-11.33,12.99,-12.06,52
4.16,-2.85,20.62,-4.98,14.7,7.18,2.59,-5.38,19.92,6.54,14.36,7.76,-14.96,12.05,10.59,-6.98,16.41,-10.84,52
3.58,-2.39,20.96,1.22,8.06,3.81,0.97,-5.61,20.09,2.44,5.76,2.73,-14.49,13.92,9.45,4.05,3.52,-1.12,52
1.16,-2.31,20.98,9.77,-2.78,-3.03,2.03,-6.23,20.26,5.91,-0.59,5.22,-13.76,12.55,9.38,7.03,0.24,0.24,52
0.05,-3.07,20.7,6.93,-6.15,1.51,2.16,-7.62,20.61,0.83,0.93,-1.07,-15.07,12.23,9.55,4.05,-1.95,-0.93,52
-0.38,-3.4,21.36,7.18,-2.88,-1.86,0.59,-7.15,20.01,-4.39,-0.05,-5.71,-16.37,10.09,9.27,6.15,-0.24,-4.69,52
-1.82,-3.84,20.67,-1.03,8.89,-1.42,1.25,-7.07,20.18,-7.76,-0.93,-4.3,-16.24,9.31,9.76,-6.79,3.42,-4.2,52
-0.45,-4.17,21.16,-4.69,7.32,1.61,1.11,-5.46,19.95,-5.86,-0.24,-0.49,-16.21,9.97,9.77,-9.23,7.03,-4.1,52
25.95,-1.68,5.31,3.42,-152.59,-34.91,21.24,-5.77,7.47,6.2,58.89,13.23,8.29,16.15,10.58,-8.01,36.96,-31.69,53
26.28,0.36,4.72,16.16,-0.05,5.71,16.3,-7.91,8.63,8.15,90.72,9.52,4.19,15.01,10.43,3.66,47.66,-52.39,53
18.91,0.95,2.58,1.9,-6.88,14.6,12.46,-5.12,13.16,-4.54,58.74,6.35,1.77,14.25,11.47,-12.7,31.25,-41.6,53
20.42,-0.91,3.62,0.2,-19.14,11.04,10.33,-5.74,15.86,2.73,41.11,4.3,0.64,17.22,12.94,-5.22,20.51,-27.25,53
20.61,-0.26,2.77,1.46,16.85,13.57,9.42,-6.75,17.06,1.12,39.11,3.76,-1.56,16.29,13.08,13.72,14.5,-22.46,53
21.07,-2.33,5.35,-0.39,64.7,17.68,8.11,-5.43,17.72,1.12,31.49,4.83,-4.04,14.29,12.58,2.0,21.48,-23.97,53
17.64,-0.52,6.86,8.69,109.18,4.98,5.58,-6.34,18.55,2.15,21.34,6.15,-4.59,15.15,12.64,-10.64,17.38,-20.61,53
14.26,-2.97,13.13,-10.21,60.64,7.37,5.39,-5.62,18.93,-3.13,8.89,-1.32,-5.76,16.03,12.46,-3.42,7.76,-12.99,53
10.86,-2.18,15.0,-1.22,66.31,5.37,4.17,-6.1,19.15,1.66,8.3,-7.62,-8.27,14.12,12.02,9.96,-0.24,-9.67,53
10.68,-3.69,16.85,2.88,49.51,4.3,4.31,-5.74,18.83,1.66,6.59,1.27,-7.6,13.27,12.22,-2.15,4.15,-8.25,53
9.7,-3.42,18.41,-5.18,34.47,7.42,3.93,-6.12,19.57,-0.15,8.25,2.2,-7.59,14.47,12.62,-3.91,5.32,-4.25,53
6.25,-3.45,19.43,3.27,27.54,1.9,4.15,-6.27,19.83,3.71,6.54,5.42,-7.5,14.47,12.59,-2.34,11.08,-4.1,53
4.34,-2.41,19.83,1.61,17.29,-1.46,3.26,-7.07,20.21,2.34,11.28,0.93,-8.42,14.44,12.55,-5.27,12.11,-8.59,53
3.81,-2.98,19.27,3.81,17.43,0.59,2.4,-5.46,19.91,6.1,17.48,7.37,-8.87,14.51,11.98,-5.71,22.75,-10.4,53
4.48,-3.59,19.74,-4.05,9.18,2.83,1.42,-5.03,20.09,8.89,9.08,5.52,-10.22,14.12,11.49,5.03,18.95,-9.86,53
3.92,-3.54,21.09,4.64,1.56,-0.44,0.09,-4.84,19.69,4.93,6.01,-0.24,-10.76,13.83,10.72,4.88,6.01,-7.42,53
2.8,-4.04,20.72,4.64,4.59,1.86,0.6,-4.84,19.83,0.05,-0.29,-2.78,-11.34,12.9,10.55,-3.96,3.32,-2.44,53
2.17,-3.88,21.08,-2.44,13.28,1.22,1.98,-4.32,20.89,3.47,-3.42,-1.95,-10.56,14.75,11.21,5.86,0.44,3.22,53
0.71,-3.31,21.31,6.25,29.88,10.45,1.4,-4.88,20.44,1.66,-0.54,2.25,-10.15,15.68,11.5,-5.57,3.91,-2.59,53
-0.2,-3.41,20.96,2.54,25.05,10.25,1.19,-5.44,20.63,-4.98,-1.22,4.74,-9.75,15.43,11.58,9.72,-0.68,-2.1,53
34.51,3.01,6.27,25.34,-270.8,22.17,23.06,-6.94,1.57,1.71,15.67,8.94,1.86,21.91,11.38,4.98,-38.23,107.52,54
23.38,-3.65,4.08,-48.88,-22.22,-5.13,22.41,-7.17,1.09,-7.03,26.51,9.33,6.49,18.89,14.74,-8.64,-4.69,-8.11,54
18.66,-2.48,-1.03,-10.64,-11.77,0.83,23.83,-6.77,5.52,5.96,109.77,9.81,6.36,12.65,12.55,-1.61,-5.76,-6.05,54
20.79,-1.86,-1.11,8.25,32.47,5.52,11.16,-5.28,8.84,1.27,138.96,-3.91,5.09,14.75,13.46,4.39,15.28,-14.21,54
23.23,-3.7,1.29,-2.1,62.4,13.87,10.13,-7.16,14.72,-12.6,87.84,14.6,6.34,12.91,14.66,3.81,23.05,-21.87,54
23.26,-5.07,6.16,-5.18,153.52,22.71,7.37,-8.17,17.3,-2.34,44.92,7.13,1.99,13.88,13.78,3.86,37.35,-45.02,54
12.52,-2.25,11.9,-3.17,117.19,0.29,3.8,-7.95,17.88,9.52,41.36,14.7,-2.7,16.38,13.07,19.63,44.09,-57.62,54
8.54,-4.9,16.11,5.42,89.94,8.15,0.86,-7.99,17.87,8.06,35.21,4.59,-5.36,15.56,12.89,7.96,29.64,-43.55,54
7.37,-4.69,17.88,-0.73,67.38,3.91,0.4,-7.79,18.82,7.91,8.11,-2.1,-7.96,13.75,12.69,14.21,20.26,-32.08,54
3.15,-4.27,19.72,-1.27,46.48,7.08,1.35,-6.66,19.24,9.42,2.78,-1.9,-10.39,12.19,11.59,2.25,30.42,-32.71,54
-2.04,-4.66,19.61,15.19,23.83,0.15,1.13,-7.06,19.89,6.64,-1.37,-0.83,-10.89,14.02,10.34,9.57,13.43,-21.34,54
-2.14,-4.91,20.66,16.02,-2.69,-3.37,0.29,-7.3,20.41,8.54,-8.89,-5.66,-12.63,13.16,9.2,8.89,6.35,-8.94,54
-0.92,-4.59,20.76,7.08,-3.27,-3.56,1.74,-7.17,20.04,0.93,-2.2,-1.37,-13.44,12.55,9.15,8.01,2.05,-3.56,54
-0.37,-4.43,21.27,4.93,-8.79,1.37,1.33,-6.52,19.87,0.63,-6.98,2.88,-12.94,13.75,9.5,0.05,2.54,-0.1,54
-1.55,-4.91,21.24,26.46,-7.13,3.76,1.16,-7.1,20.11,1.32,-3.32,2.54,-12.9,14.98,9.67,8.3,-4.05,2.1,54
-1.96,-3.64,21.3,19.82,-4.0,2.88,1.79,-5.88,19.87,-7.13,0.54,-3.86,-12.85,13.16,9.11,4.39,-2.93,2.39,54
-1.88,-2.92,21.11,3.08,-6.93,-0.98,1.3,-6.6,20.38,1.37,-3.32,-3.22,-13.71,13.04,9.16,-0.39,1.17,0.88,54
-1.41,-3.26,21.17,0.44,-2.59,1.37,3.12,-5.8,19.9,4.35,-6.4,-0.34,-13.09,13.4,9.07,1.56,2.2,0.24,54
0.15,-2.23,21.21,6.4,0.83,-0.15,2.67,-7.48,20.55,3.22,-1.27,-1.46,-12.84,13.79,9.12,-1.27,-4.35,-1.07,54
-0.23,-3.02,21.66,5.57,-8.64,-1.07,1.84,-6.34,19.93,-1.27,3.61,-2.2,-12.41,15.33,9.69,3.22,-3.22,1.22,54
-5.02,-3.58,14.28,12.94,-173.78,2.25,20.36,-3.25,-1.88,-0.29,-20.51,5.71,8.61,18.39,11.3,-3.61,2.88,4.1,55
15.83,-1.25,3.78,-18.51,-306.69,-15.14,24.83,-4.63,1.26,0.73,51.03,5.03,8.2,14.7,12.63,10.5,27.39,-17.43,55
34.02,1.05,-0.32,2.0,-117.82,-29.2,17.53,-4.65,2.04,41.99,130.03,19.48,3.8,15.88,12.7,12.26,53.22,-54.64,55
22.12,-1.26,-4.91,-4.25,-24.76,-7.57,16.42,-3.8,9.27,20.9,79.35,14.31,1.39,18.17,11.98,-2.2,41.31,-44.82,55
21.16,0.04,-3.65,1.07,-18.75,9.81,15.07,-5.16,13.89,23.93,79.69,20.51,-3.66,15.71,12.23,-7.67,53.37,-47.85,55
28.36,-2.01,-1.55,-2.44,75.54,16.55,8.0,-6.49,14.83,-0.93,78.76,9.91,-6.97,13.38,12.17,8.94,43.99,-50.15,55
16.34,-1.1,3.2,30.96,119.19,8.15,5.92,-5.62,17.41,21.87,42.53,13.13,-10.84,12.83,10.95,12.01,36.38,-32.57,55
16.81,-2.14,9.52,14.94,74.41,18.26,3.07,-3.87,17.68,-1.76,18.02,3.17,-13.29,10.96,9.59,3.91,27.59,-24.17,55
15.62,-2.85,13.07,8.89,88.09,17.29,4.04,-4.75,19.26,4.35,9.42,5.03,-13.43,11.06,8.71,0.83,12.21,-10.35,55
7.82,-4.28,14.8,16.16,89.06,12.16,2.41,-5.19,19.07,-5.86,7.28,4.69,-13.49,13.56,8.97,-13.92,9.03,-10.6,55
6.47,-3.44,17.65,16.11,52.05,12.06,1.85,-5.83,18.92,1.27,2.73,-5.22,-13.26,17.53,9.01,12.21,0.98,-0.34,55
3.15,-2.83,18.37,-5.22,35.74,4.0,3.14,-5.32,19.53,-1.66,4.69,-7.37,-13.69,14.13,8.78,26.51,-3.42,6.1,55
4.7,-2.11,19.85,-1.12,15.87,1.81,4.52,-5.65,19.81,0.88,4.69,-3.37,-14.0,11.42,8.38,-0.54,4.49,1.51,55
2.6,-2.22,20.23,-6.49,10.74,4.25,5.41,-5.41,20.25,-3.86,3.27,-0.54,-13.04,12.23,8.9,0.83,4.59,-0.24,55
0.91,-2.73,20.21,4.59,-1.27,-0.2,4.16,-4.18,19.84,4.93,2.88,5.81,-13.75,13.54,8.58,-14.99,9.18,-2.49,55
3.43,-1.75,21.17,16.31,-0.59,-3.17,3.7,-5.53,19.76,-0.39,-1.51,4.54,-13.33,16.34,8.85,-4.3,3.37,-2.64,55
3.4,-2.87,20.74,10.6,5.03,0.0,2.59,-5.13,19.57,0.05,1.07,4.59,-13.1,15.98,8.16,12.99,4.1,-4.05,55
3.85,-3.71,20.95,-0.54,6.84,3.42,2.95,-6.05,19.73,-4.69,2.34,-3.27,-14.02,12.01,8.57,3.03,-0.05,-2.59,55
3.33,-2.15,20.78,-1.86,4.59,6.93,2.97,-6.39,19.79,-2.34,4.0,-1.07,-13.78,12.6,8.67,3.71,-2.34,-1.22,55
2.46,-2.18,20.89,-2.83,-1.95,5.13,3.02,-5.88,19.59,-3.96,4.25,-1.17,-13.71,11.54,8.68,-2.64,2.83,-1.66,55
22.13,-0.89,-1.75,-25.59,-56.69,8.15,22.37,-5.91,1.93,-37.84,-73.14,6.54,5.34,16.79,10.53,-4.25,-0.68,2.25,56
21.41,-1.21,-2.37,-13.57,-1.76,7.28,19.95,-4.72,-0.43,-17.72,-9.42,6.93,5.54,15.41,11.65,-6.05,6.49,-13.92,56
22.72,-2.28,0.11,-5.66,39.4,14.5,19.91,-6.84,0.4,3.56,52.59,14.21,2.93,16.12,12.04,2.0,25.73,-28.03,56
17.99,-4.85,0.01,-4.44,-4.98,11.57,22.57,-6.34,2.52,-10.3,6.1,6.3,2.8,14.44,11.88,-0.93,3.61,-5.86,56
24.03,-1.36,2.62,1.86,55.57,11.38,24.43,-5.58,4.45,0.83,90.14,22.75,1.92,17.67,12.63,-9.96,20.8,-35.6,56
17.39,-3.43,6.8,12.01,121.92,9.86,15.82,-6.73,7.35,29.05,126.56,16.99,-1.61,16.73,12.66,6.01,45.07,-66.7,56
12.16,-4.18,11.56,5.37,95.61,8.06,9.36,-7.21,11.93,7.57,69.53,10.3,-7.19,16.41,11.94,16.11,39.11,-61.38,56
11.75,-4.94,14.64,-0.1,45.85,3.17,9.13,-9.45,17.3,7.32,55.42,10.21,-8.91,12.35,10.81,-2.44,25.54,-33.15,56
8.05,-4.07,17.26,11.67,86.08,14.01,5.6,-7.38,17.01,13.18,64.06,16.16,-11.81,12.47,10.48,4.05,35.5,-35.55,56
4.6,-3.68,18.18,11.77,77.98,16.02,1.11,-5.8,18.08,14.36,45.07,14.99,-13.58,11.28,9.31,-1.42,24.46,-25.49,56
1.09,-2.65,19.68,5.62,44.82,8.64,-0.07,-6.19,19.04,-5.32,14.4,0.78,-14.31,11.93,8.36,10.01,10.64,-7.86,56
0.45,-2.59,21.1,0.93,-2.88,-1.76,2.45,-6.73,19.95,-6.54,0.73,-3.76,-14.59,13.23,8.4,-0.68,3.27,-1.12,56
0.72,-2.45,21.51,4.0,-0.1,-0.73,2.42,-6.56,20.22,0.68,5.47,-3.17,-14.96,12.1,8.33,8.01,0.98,-4.74,56
1.35,-2.28,21.99,5.42,-4.25,1.56,2.16,-6.09,20.05,2.83,4.88,5.08,-15.55,13.48,8.31,-9.13,12.01,-9.91,56
-0.97,-2.87,20.34,3.27,6.49,-2.15,0.37,-7.13,19.22,2.15,2.49,0.29,-14.96,14.72,7.85,6.79,1.51,-4.69,56
-0.54,-4.31,20.93,0.44,-1.12,-1.37,0.65,-7.06,19.44,8.69,2.15,-2.73,-16.05,11.43,7.82,20.17,-0.49,-0.98,56
0.84,-2.17,21.19,-0.34,-2.59,5.47,2.76,-6.17,20.8,3.03,-4.93,1.03,-15.58,10.91,7.44,-6.59,5.86,-0.73,56
0.76,-2.62,21.14,-4.0,13.48,3.27,1.8,-7.44,20.14,-1.9,-2.0,1.03,-15.82,11.62,8.24,-11.13,7.13,-5.42,56
0.4,-1.98,21.37,1.81,2.29,1.81,1.2,-6.48,19.87,-3.91,-0.63,1.27,-15.92,12.34,7.57,-4.35,4.74,-1.81,56
-0.17,-2.8,21.28,-1.03,2.78,-0.98,2.15,-7.94,20.39,-3.13,0.1,-0.59,-15.68,13.43,7.54,4.1,2.34,0.83,56
0.52,-4.41,15.42,34.23,-131.64,-8.15,21.07,-4.36,7.51,0.83,-36.47,-13.09,7.96,18.53,11.39,27.64,-18.31,10.4,57
14.67,0.23,12.35,25.88,-217.53,2.0,18.93,-2.2,3.94,-3.17,-18.51,11.52,7.08,17.32,9.75,-13.77,1.56,-0.78,57
25.77,2.61,8.18,0.44,-136.62,-3.52,23.25,-5.38,8.08,-12.89,48.88,7.47,6.86,16.28,11.04,-2.64,26.86,-31.74,57
21.86,-0.02,4.39,2.49,-41.8,-12.99,16.54,-4.84,6.91,6.74,84.28,-5.47,3.68,17.86,10.78,22.9,34.13,-67.53,57
18.6,1.67,1.58,2.15,-31.74,11.13,14.56,-4.21,11.78,1.27,54.93,16.02,-0.8,17.45,9.95,-3.03,36.08,-44.78,57
