ACC-X-Ring1,ACC-Y-Ring1,ACC-Z-Ring1,GYRO-X-Ring1,GYRO-Y-Ring1,GYRO-Z-Ring1,ACC-X-Ring2,ACC-Y-Ring2,ACC-Z-Ring2,GYRO-X-Ring2,GYRO-Y-Ring2,GYRO-Z-Ring2,ACC-X-Ring3,ACC-Y-Ring3,ACC-Z-Ring3,GYRO-X-Ring3,GYRO-Y-Ring3,GYRO-Z-Ring3,TEST
6.53,-4.84,19.32,-0.0,-1.61,1.86,5.9,-2.18,19.83,-0.88,-0.39,0.44,0.55,16.9,9.43,0.83,2.15,-0.05,1
6.45,-4.79,19.35,0.05,-1.22,1.07,5.76,-2.16,19.82,0.34,0.2,0.44,0.41,17.37,9.46,0.98,2.2,-0.29,1
6.57,-4.93,19.3,0.05,-0.59,0.73,5.77,-2.08,19.74,-0.0,0.2,0.0,0.39,17.36,9.47,1.03,2.1,-0.2,1
6.53,-4.96,19.38,-0.24,-1.27,0.88,5.77,-2.06,19.76,0.68,-0.05,0.39,0.27,17.38,9.54,1.27,2.73,-0.05,1
6.52,-4.83,19.37,0.34,-1.17,1.17,5.92,-2.18,19.77,-0.29,-0.34,0.0,0.44,17.37,9.41,1.51,3.08,-0.34,1
6.58,-4.84,19.42,0.78,-1.27,0.78,5.9,-2.16,19.76,-0.29,-0.2,-0.34,0.35,17.42,9.36,1.03,1.86,-0.44,1
6.6,-4.81,19.42,0.39,-1.03,0.49,5.84,-2.19,19.88,-0.05,-0.39,0.05,0.36,17.31,9.42,0.68,2.44,-0.34,1
6.6,-4.82,19.39,0.1,-0.59,0.88,5.78,-2.14,19.93,-0.2,-0.24,0.34,0.28,17.32,9.43,1.07,2.49,0.0,1
6.79,-4.87,19.6,0.68,-0.78,0.59,5.93,-2.21,19.78,-0.44,-0.15,-0.59,1.0,17.24,9.86,0.93,1.42,-0.83,1
6.69,-4.93,19.36,-0.29,-0.68,0.49,5.71,-2.15,19.81,0.2,0.39,0.05,0.32,17.56,9.32,1.03,2.25,-0.15,1
6.58,-4.87,19.3,-0.39,-0.63,1.12,5.92,-2.19,19.8,-0.05,-0.15,0.2,0.27,17.45,9.34,0.2,2.34,-0.1,1
6.44,-4.73,19.52,0.59,-0.73,1.03,5.82,-2.19,19.87,-0.59,-0.83,0.0,0.31,17.39,9.42,1.03,2.39,0.0,1
6.74,-4.94,19.38,0.1,-1.46,0.93,5.91,-2.31,19.86,1.22,-0.68,-0.24,0.27,17.5,9.37,0.83,2.15,-0.24,1
6.55,-4.73,19.52,0.24,-0.93,0.78,5.95,-2.07,19.79,-0.15,-0.73,0.0,0.3,17.36,9.4,0.78,2.15,-0.1,1
6.57,-4.83,19.43,0.05,-0.83,0.88,6.04,-2.05,19.88,-0.05,-0.49,-0.2,0.2,17.37,9.39,0.34,2.34,-0.34,1
6.53,-4.38,19.38,-2.59,0.59,2.64,5.76,-2.27,20.22,-8.15,0.49,0.44,0.58,17.44,9.65,1.12,1.32,-1.71,1
6.36,-5.13,19.29,-2.49,0.0,2.1,5.87,-2.73,19.95,-2.39,-0.93,1.56,0.17,17.35,9.35,1.32,2.39,-0.54,1
6.47,-5.28,19.46,0.05,0.15,0.68,6.13,-2.43,19.71,-0.34,-0.73,0.05,0.09,17.56,9.25,1.71,1.95,-0.83,1
6.46,-5.05,19.45,0.15,-1.12,0.44,6.01,-2.44,19.77,-0.59,-0.59,-0.24,0.11,17.42,9.24,1.12,0.05,-2.2,1
6.39,-5.19,19.51,-0.05,-1.42,0.49,6.02,-2.48,19.8,-0.54,-1.46,0.1,0.08,17.39,9.22,0.59,2.25,-0.05,1
5.3,-4.41,20.13,0.34,-0.63,0.93,5.05,-1.31,20.33,-0.54,-0.05,0.05,0.05,17.36,9.42,0.68,2.05,-0.1,2
5.33,-4.29,20.1,0.63,-0.73,0.88,5.05,-1.25,20.27,-0.15,-0.05,-0.05,0.06,17.43,9.44,0.78,2.1,-0.2,2
5.33,-4.33,20.02,0.63,-0.83,0.88,5.0,-1.3,20.21,-0.1,-0.2,-0.05,0.04,17.39,9.41,0.83,2.15,-0.34,2
5.32,-4.29,20.0,0.39,-0.88,0.93,5.01,-1.23,20.25,-0.24,-0.2,0.0,0.05,17.4,9.43,0.68,2.1,-0.2,2
5.35,-4.33,20.06,0.54,-0.78,0.93,5.0,-1.26,20.24,-0.24,-0.15,-0.1,0.01,17.39,9.38,0.93,2.15,-0.24,2
5.33,-4.3,20.04,0.39,-0.73,0.93,4.99,-1.25,20.22,-0.54,-0.1,-0.05,0.07,17.42,9.35,0.83,2.05,-0.24,2
5.27,-4.29,20.04,0.44,-0.73,0.98,5.03,-1.31,20.26,-0.29,-0.15,0.1,0.03,17.41,9.38,0.98,1.81,-0.2,2
5.79,-4.76,19.99,-3.22,0.63,1.27,5.41,-1.4,20.34,-3.91,0.0,0.59,-0.53,17.79,9.75,-1.56,-2.05,1.03,2
4.29,-4.55,20.67,-15.38,3.66,7.67,4.13,-1.97,20.68,-16.5,-2.29,5.81,0.46,17.59,9.08,18.21,2.25,7.96,2
4.41,-6.22,19.82,-31.2,5.03,6.69,5.44,-3.68,20.43,-36.52,-5.27,3.47,0.35,19.73,9.2,3.22,4.2,-8.15,2
5.53,-7.21,19.03,-28.32,-17.63,-4.83,4.1,-2.0,19.89,-4.79,-17.38,1.81,1.24,16.17,8.24,-5.76,-2.54,-10.84,2
7.56,-9.87,18.59,-28.47,-1.12,-10.01,8.34,-7.26,19.04,-41.7,-24.46,-8.5,-0.56,18.58,9.61,2.59,-4.54,-7.62,2
6.17,-10.09,17.9,-11.43,-0.59,-13.43,8.51,-8.63,17.33,-19.24,-7.03,-11.43,-0.64,17.12,9.76,-2.0,-9.72,-3.08,2
6.14,-10.76,15.03,-38.43,-22.85,-16.41,8.21,-8.22,14.4,-24.71,-28.17,-13.33,-1.66,17.57,9.92,-31.84,-24.9,-24.76,2
7.67,-12.59,15.07,-18.46,-12.3,-11.43,10.37,-9.69,14.91,-20.26,-15.28,-11.72,-1.42,19.08,9.64,14.99,-1.51,9.08,2
8.57,-10.09,15.56,3.86,-2.64,-2.34,10.61,-8.63,14.71,4.69,2.05,-2.83,-2.51,16.13,8.27,-15.87,1.56,-11.47,2
7.18,-10.64,15.1,-24.22,8.5,2.34,9.46,-8.61,14.22,-15.77,7.13,0.39,-2.19,17.37,8.7,-10.01,-3.08,-22.22,2
6.98,-10.71,14.08,-36.77,15.58,4.83,9.38,-8.1,13.18,-33.59,12.5,6.93,-0.04,13.37,9.18,-26.86,-4.3,-21.48,2
6.19,-13.47,14.13,50.29,41.5,-13.48,11.62,-11.58,14.23,-3.81,37.35,-6.35,0.56,19.79,7.72,120.7,-6.79,13.62,2
4.32,-8.79,18.15,37.35,24.37,-7.32,6.18,-4.97,15.79,45.12,55.81,-14.16,-3.37,23.01,8.66,39.26,-19.63,29.79,2
3.68,-3.57,20.64,-1.03,0.0,1.07,3.77,-0.3,20.48,-0.93,-0.15,0.2,0.24,17.45,9.11,0.63,2.05,0.2,3
4.08,-3.37,20.58,-0.78,0.83,0.68,4.14,-0.21,20.39,-0.93,-0.63,0.15,0.21,17.54,9.17,1.12,2.2,-0.44,3
3.73,-3.95,20.28,-1.51,-2.15,0.44,3.82,-0.41,20.4,-0.93,-0.05,0.0,0.23,17.5,9.15,0.68,2.0,-0.05,3
3.6,-3.83,20.36,-0.1,-0.73,0.73,3.73,-0.57,20.41,0.05,-0.2,-0.44,0.27,17.52,9.15,0.93,2.1,-0.2,3
3.93,-3.57,20.5,1.71,-1.56,0.44,3.86,-0.62,20.22,-0.44,-0.63,-0.29,0.19,17.61,9.14,0.98,2.15,-0.15,3
3.84,-3.26,20.97,4.98,-0.15,1.22,3.89,-0.65,20.28,-0.59,-0.44,-0.68,0.28,17.54,9.07,0.83,2.15,0.0,3
3.84,-3.47,20.43,1.12,-1.81,0.59,3.41,-0.41,20.44,1.12,0.15,0.05,0.22,17.48,9.18,0.88,2.15,-0.05,3
3.92,-3.49,20.6,0.2,-1.76,0.93,3.84,-0.32,20.39,0.15,-0.05,0.0,0.23,17.49,9.17,0.83,2.15,-0.1,3
4.03,-3.54,20.6,0.24,-0.93,1.07,3.74,-0.38,20.45,-0.59,-0.2,0.05,0.25,17.58,9.14,0.98,1.95,-0.34,3
4.0,-3.52,20.62,1.03,-0.83,0.78,3.96,-0.84,20.23,1.76,1.81,-0.29,0.19,17.65,9.14,1.03,2.15,-0.49,3
3.9,-2.85,20.88,4.54,0.59,1.32,3.41,-0.21,20.62,1.71,-1.03,-2.25,0.31,17.51,9.18,0.83,2.0,-0.2,3
3.84,-3.39,20.51,-0.24,-0.98,0.68,3.74,-0.23,20.48,-0.83,-0.34,-0.1,0.28,17.49,9.19,0.88,2.05,-0.15,3
3.91,-3.36,20.59,0.24,-0.93,0.98,3.72,-0.03,20.39,0.44,0.2,0.2,0.23,17.58,9.16,1.12,2.15,-0.24,3
3.97,-3.38,20.58,1.81,-0.2,1.03,3.66,-0.19,20.53,-0.39,-0.1,-0.29,0.29,17.49,9.19,0.88,2.05,-0.15,3
3.98,-3.67,20.54,0.44,-0.83,0.68,3.74,-0.21,20.47,-0.63,-0.39,-0.05,0.28,17.45,9.21,0.93,2.15,-0.1,3
4.15,-3.5,20.52,1.51,-0.2,1.03,3.74,-0.4,20.48,-0.78,-0.15,0.05,0.23,17.49,9.15,0.73,2.1,-0.1,3
3.96,-3.39,20.63,0.63,-0.63,0.93,3.7,-0.26,20.51,0.24,-0.2,0.05,0.28,17.52,9.15,0.98,2.1,-0.24,3
4.02,-3.4,20.65,0.59,-0.83,0.98,3.71,-0.22,20.46,-0.54,-0.24,-0.1,0.27,17.49,9.16,0.83,2.15,-0.2,3
3.94,-3.38,20.62,0.68,-0.63,0.98,3.72,-0.24,20.48,-0.59,-0.24,0.0,0.29,17.47,9.15,0.73,2.1,-0.1,3
3.97,-3.45,20.62,0.73,-0.73,0.88,3.75,-0.2,20.49,-0.24,-0.34,0.0,0.25,17.56,9.08,0.98,2.15,-0.29,3
2.93,-4.06,20.13,-0.29,1.32,1.03,2.85,0.4,20.71,-0.15,0.39,-0.2,0.27,17.47,9.23,0.83,2.05,-0.15,4
3.35,-4.1,20.08,-1.81,1.95,0.83,3.03,0.07,20.74,-1.07,-0.49,-0.29,0.19,17.62,9.2,0.98,2.2,-0.29,4
3.68,-3.91,20.64,1.17,-1.46,0.44,2.87,0.23,20.52,0.39,0.05,0.29,0.21,17.61,9.16,0.98,2.1,-0.29,4
3.46,-3.94,20.47,1.03,-2.0,1.03,2.92,0.19,20.64,0.15,0.1,0.05,0.19,17.55,9.27,0.93,1.95,-0.2,4
3.5,-4.15,20.39,-1.07,-1.71,0.83,2.91,0.14,20.64,-0.29,0.29,-0.05,0.31,17.37,9.19,0.83,1.76,-0.34,4
4.88,-3.61,20.87,3.95,-5.81,0.78,2.92,0.12,20.71,-0.1,0.1,-0.2,0.22,17.56,9.17,0.98,2.05,-0.34,4
3.91,-3.74,20.83,3.66,-0.63,1.22,2.89,0.19,20.66,-0.15,-0.15,-0.05,0.15,17.66,9.15,1.32,2.29,-0.68,4
4.17,-3.78,20.55,2.29,-1.37,0.78,2.88,0.27,20.72,0.05,0.0,-0.05,0.19,17.59,9.15,0.98,2.1,-0.34,4
4.04,-3.77,20.54,2.2,0.0,0.83,2.91,0.22,20.78,-0.05,-0.1,0.1,0.19,17.64,9.18,1.17,1.76,-0.78,4
3.92,-3.56,20.62,3.56,-0.05,1.51,2.89,0.27,20.68,0.15,-0.15,0.05,0.26,17.47,9.13,0.88,1.86,-0.44,4
3.94,-3.23,20.71,1.12,-0.54,0.98,3.02,0.22,20.5,-0.68,-0.49,-0.05,0.22,17.52,9.01,1.12,1.86,-0.54,4
3.86,-3.4,20.64,1.03,-0.29,0.78,2.91,0.05,20.85,-0.59,0.24,-0.29,0.23,17.49,9.11,0.98,2.05,-0.34,4
3.99,-3.56,20.59,1.51,0.05,0.88,2.89,0.18,20.68,-0.2,-0.05,-0.2,0.16,17.56,9.13,0.98,2.0,-0.39,4
3.81,-2.89,21.32,10.84,4.64,2.34,3.02,0.28,20.56,0.2,-0.2,0.15,0.18,17.56,9.1,1.12,2.05,-0.63,4
3.71,-2.97,20.92,2.1,0.39,0.78,2.84,0.18,20.66,-0.49,-0.15,-0.15,0.19,17.57,9.1,0.98,2.05,-0.44,4
3.6,-3.14,20.63,0.39,-0.24,0.68,2.99,0.13,20.66,-0.39,-0.39,-0.05,0.18,17.51,9.12,0.68,2.0,-0.24,4
3.85,-3.44,20.53,2.1,2.05,-0.05,2.93,0.22,20.65,-0.49,-0.34,-0.2,0.15,17.6,9.07,0.88,2.1,-0.34,4
3.85,-3.48,20.96,3.22,4.35,0.1,2.9,0.2,20.72,-0.78,-0.39,-0.15,0.18,17.59,9.06,0.93,2.1,-0.29,4
3.59,-3.02,20.6,0.93,0.63,0.29,3.01,0.17,20.65,-0.83,-0.05,-0.1,0.15,17.58,9.02,0.88,2.05,-0.29,4
3.2,-2.7,20.96,1.17,0.05,0.73,2.9,0.25,20.68,-0.34,-0.34,-0.1,0.19,17.56,9.05,0.78,2.1,-0.1,4
2.8,-4.02,20.4,1.12,-6.59,-0.05,5.85,-1.62,20.04,-6.69,4.54,0.59,0.04,17.63,8.95,0.49,2.0,0.1,5
3.35,-4.26,21.06,3.95,5.57,-0.44,3.13,-0.59,20.75,0.63,2.39,0.1,-0.01,17.57,8.98,1.27,2.34,-0.49,5
3.45,-3.66,20.92,0.78,-1.07,-0.39,4.1,-0.43,21.06,1.71,-1.76,0.34,-0.02,17.69,8.9,1.07,2.15,-0.39,5
5.31,-3.34,21.51,2.0,-5.66,1.66,3.44,-0.63,20.64,1.61,-3.03,0.68,0.05,17.61,8.94,0.93,2.1,-0.2,5
3.6,-3.52,21.08,0.54,-3.12,1.51,2.93,-0.88,20.18,-0.2,1.66,0.39,-0.03,17.69,8.94,1.03,2.15,-0.29,5
3.13,-3.78,20.5,0.44,-2.73,1.12,2.43,-1.46,20.15,-0.54,-4.15,-0.29,0.02,17.57,8.97,0.68,2.0,-0.2,5
3.37,-3.56,20.99,1.71,-11.67,-0.1,3.45,-0.87,20.66,-0.15,-1.71,-0.54,0.01,17.63,8.96,0.83,2.05,-0.2,5
3.47,-3.94,20.85,-0.34,-1.71,0.63,3.34,-1.11,20.49,-1.61,0.93,-0.49,-0.01,17.63,8.97,0.98,2.2,-0.29,5
3.21,-3.94,20.76,1.37,0.63,0.34,3.77,-0.56,20.98,0.05,-0.98,0.39,0.06,17.57,8.96,0.83,2.05,-0.15,5
2.87,-3.81,20.54,-2.49,1.76,1.32,3.47,-0.58,20.82,1.66,0.2,-0.29,-0.01,17.69,8.98,0.98,2.05,-0.34,5
3.58,-3.5,21.29,-0.05,2.98,1.42,3.3,-0.86,20.47,1.27,0.59,-0.44,-0.02,17.6,9.05,0.83,2.1,-0.1,5
2.67,-3.65,20.54,2.0,-2.73,0.83,3.27,-1.05,20.37,-3.32,5.52,-0.39,0.03,17.53,9.0,0.73,2.1,-0.15,5
1.41,-4.22,19.51,-1.56,3.56,1.17,3.28,-0.02,20.99,1.03,1.51,1.12,0.05,17.53,9.03,0.93,2.05,-0.2,5
2.25,-4.07,19.53,-3.22,3.86,-0.63,4.27,-0.35,22.53,7.42,-7.37,0.59,-0.06,17.75,8.96,1.07,2.2,-0.29,5
3.48,-3.33,20.04,3.27,-0.59,2.25,3.6,-0.29,20.95,4.39,2.25,0.24,0.09,17.48,8.99,0.39,1.95,0.39,5
3.48,-3.31,20.52,2.39,-1.07,0.73,3.51,-0.08,20.44,2.49,1.32,-0.1,0.06,17.55,8.98,0.54,2.0,0.2,5
3.45,-3.41,20.49,2.29,-0.15,0.83,3.22,-0.28,20.91,2.64,2.15,-0.54,0.1,17.56,8.98,0.54,1.95,0.24,5
3.31,-3.12,20.86,1.32,-0.44,0.54,3.17,0.04,20.72,2.1,1.81,-0.15,0.05,17.63,8.99,0.68,2.1,-0.05,5
3.32,-3.19,20.66,1.17,-0.34,0.59,3.24,0.12,20.5,1.12,1.37,-0.1,0.02,17.63,9.02,0.78,2.25,0.05,5
3.34,-3.13,20.56,1.46,0.98,0.88,2.96,0.1,20.65,2.34,3.13,-0.63,0.11,17.57,9.02,0.68,2.0,0.0,5
2.69,-4.04,20.31,-0.88,1.42,1.81,2.69,-0.83,20.05,-1.42,3.42,-1.42,0.09,17.56,9.02,0.68,2.34,-0.05,6
3.25,-3.72,20.84,3.32,-2.25,0.93,3.59,-1.04,20.71,1.61,-0.83,-0.1,0.06,17.62,8.95,0.93,2.15,-0.2,6
3.35,-3.64,20.76,1.86,-0.83,0.54,3.36,-1.1,20.64,-0.59,0.54,-0.15,0.05,17.55,8.87,1.07,2.15,-0.44,6
2.92,-3.89,20.37,-0.49,0.78,1.03,3.23,-0.91,20.72,-1.71,0.93,0.24,0.0,17.59,8.85,0.98,2.15,-0.29,6
3.3,-3.73,20.73,0.63,-0.88,0.83,3.44,-0.85,20.7,-0.1,-0.49,-0.29,0.0,17.6,8.89,0.83,2.15,-0.34,6
3.09,-3.79,20.65,-0.24,0.34,1.42,3.55,-0.71,20.67,0.44,0.2,0.44,0.0,17.62,8.83,0.93,2.05,-0.24,6
3.39,-3.82,20.76,2.29,-1.56,0.39,3.43,-1.08,20.58,0.05,-0.29,-0.49,0.01,17.56,8.78,0.63,1.95,0.05,6
3.08,-4.07,20.4,-0.63,-1.27,0.59,3.43,-0.79,20.6,-1.81,-0.05,0.05,0.02,17.6,8.81,0.88,2.1,-0.2,6
3.01,-3.88,20.43,-0.15,0.73,0.88,3.65,-0.65,20.49,-1.47,0.34,0.29,0.02,17.61,8.86,0.78,2.05,-0.2,6
3.33,-3.76,20.81,1.46,-0.24,-0.05,3.5,-1.31,20.7,0.29,0.44,-0.63,-0.03,17.62,8.87,0.78,2.0,-0.2,6
2.96,-3.86,20.56,0.54,0.2,0.59,3.38,-0.87,20.58,-1.22,1.07,0.59,0.04,17.58,8.91,0.93,2.05,-0.2,6
3.28,-3.88,20.95,-0.2,-0.63,1.12,3.16,-0.89,20.44,-0.1,0.73,0.15,-0.01,17.62,8.87,0.78,2.15,-0.15,6
2.97,-3.72,20.61,1.81,-0.88,0.78,3.4,-1.05,20.66,-0.59,0.49,0.24,-0.01,17.61,8.84,0.68,2.0,-0.2,6
2.77,-3.87,20.47,1.07,0.34,0.0,3.33,-1.14,20.72,-1.86,1.46,-0.2,0.02,17.62,8.86,0.78,2.1,-0.2,6
3.26,-3.99,20.93,0.29,-1.56,0.93,3.24,-0.93,20.8,-0.29,0.73,-0.78,0.01,17.62,8.94,0.88,2.05,-0.2,6
2.96,-3.8,20.68,-0.83,0.49,1.32,3.43,-0.98,20.8,-0.1,-0.2,-0.05,0.02,17.59,8.9,0.93,2.05,-0.24,6
2.47,-4.14,19.85,1.46,-5.22,2.1,2.98,-1.17,19.96,0.34,-0.98,0.2,0.12,17.44,8.83,0.83,2.69,0.24,6
2.74,-3.36,20.93,6.84,0.78,0.88,3.49,-0.58,21.23,8.69,6.15,-0.54,0.02,17.6,8.79,0.83,2.05,-0.1,6
3.5,-3.4,20.78,2.73,0.59,1.27,3.49,-0.51,20.39,1.03,0.73,0.0,0.02,17.6,8.93,0.78,2.2,0.1,6
3.5,-3.26,20.53,3.66,1.51,0.78,3.42,-0.5,20.79,2.29,2.54,-0.49,0.05,17.69,8.99,0.44,1.56,-0.1,6
1.72,-3.69,20.35,1.27,-3.32,0.34,3.56,-0.76,20.79,0.68,1.27,1.32,-0.13,17.58,8.75,1.17,2.44,-0.34,7
2.17,-3.75,20.61,-2.88,3.17,-0.29,3.55,-1.66,20.58,-2.64,-0.24,0.2,-0.17,17.6,8.79,1.27,2.29,-0.54,7
2.8,-3.7,21.12,-1.66,0.44,0.78,3.2,-1.6,20.59,-3.61,0.83,1.76,-0.28,17.68,8.79,1.22,2.2,-0.49,7
2.1,-3.73,20.68,0.34,-1.76,-0.2,3.26,-1.56,20.58,-0.49,-1.17,0.24,-0.27,17.71,8.75,0.83,2.15,-0.15,7
2.47,-3.79,21.08,0.34,-0.24,0.59,3.32,-1.69,20.69,-0.68,0.93,-0.29,-0.25,17.71,8.74,1.07,2.2,-0.44,7
2.41,-3.63,21.1,0.93,0.05,0.83,2.97,-1.71,20.52,-0.39,3.37,-0.49,-0.29,17.63,8.86,0.88,2.1,-0.29,7
2.09,-4.01,20.97,4.98,-3.27,0.98,3.38,-2.07,21.01,1.12,6.2,1.71,-0.36,17.77,8.81,1.07,1.95,-0.73,7
2.11,-3.51,20.9,1.76,-0.05,-0.34,3.3,-1.55,20.97,-0.63,4.69,-0.78,-0.35,17.82,8.65,1.07,2.1,-0.44,7
3.28,-3.24,21.14,6.54,-11.96,9.18,2.24,-1.67,20.72,3.81,8.06,0.83,-0.34,17.69,8.79,0.29,2.59,0.24,7
3.26,-2.0,21.47,7.76,2.44,5.32,2.99,-1.64,21.15,-2.59,-0.83,0.39,-0.35,17.73,8.83,1.12,2.2,-0.54,7
1.8,-3.68,20.7,-12.45,24.56,-6.35,3.09,-1.6,20.68,-15.23,-10.11,-5.66,-0.2,17.73,8.86,0.78,2.0,-0.24,7
1.95,-3.41,21.15,0.24,-3.12,1.27,2.89,-1.16,20.5,-2.88,-9.91,2.05,-0.25,17.79,8.78,0.93,2.05,-0.39,7
1.03,-3.77,20.7,0.05,-1.56,1.56,2.9,-1.88,20.48,-0.68,-3.17,-0.34,-0.32,17.84,8.72,0.54,2.0,0.1,7
1.92,-3.87,20.59,0.78,-13.33,3.32,3.66,-1.88,20.17,3.37,-11.52,-0.54,-0.22,17.67,8.74,0.05,1.07,0.34,7
0.62,-3.3,21.26,22.8,-24.07,4.35,5.99,-1.71,22.11,21.97,-8.2,-2.29,-0.2,17.66,8.82,0.59,1.61,0.05,7
3.52,-2.66,20.81,6.01,4.2,1.12,4.03,-0.23,20.44,5.47,4.05,-0.44,-0.22,17.71,8.76,0.73,1.95,-0.15,7
3.31,-2.54,21.08,3.47,4.35,0.2,3.96,-0.14,20.63,4.05,3.13,-0.44,-0.2,17.7,8.87,0.54,1.9,0.0,7
2.9,-2.53,20.96,2.54,2.93,0.54,3.48,-0.03,20.65,0.78,3.13,-0.59,-0.12,17.79,8.84,0.34,0.93,0.15,7
2.6,-2.27,20.84,4.88,5.86,-0.59,3.06,-0.01,20.68,2.73,7.91,-1.27,-0.26,17.69,8.92,0.1,1.71,0.88,7
2.16,-1.82,20.99,2.98,4.2,-0.24,3.11,0.28,20.77,2.34,3.52,-0.73,-0.11,17.88,8.83,1.07,2.05,-0.24,7
2.02,-3.64,20.1,0.83,11.52,4.98,2.8,-1.9,20.13,-4.98,10.11,1.03,-0.2,17.75,8.77,2.64,3.32,-1.51,8
1.41,-3.56,20.42,1.07,5.27,1.27,2.43,-1.63,20.21,-0.39,5.86,0.68,-0.29,17.65,8.79,1.22,2.29,-0.59,8
1.6,-3.31,21.3,0.98,-1.07,0.98,2.99,-1.39,20.98,-0.49,1.46,0.83,-0.19,17.57,8.69,0.93,2.05,-0.44,8
1.77,-3.39,20.9,2.25,-2.34,0.73,2.6,-1.66,20.68,0.98,3.47,0.39,-0.29,17.73,8.7,0.98,2.2,-0.29,8
1.95,-3.47,21.19,2.39,-3.71,1.51,2.52,-1.61,20.65,1.66,0.49,-0.39,-0.21,17.68,8.64,0.83,2.15,-0.2,8
1.8,-3.35,20.94,1.81,-0.44,1.07,2.41,-1.7,20.7,0.68,0.29,-0.78,-0.26,17.76,8.67,0.88,2.2,-0.24,8
3.56,-3.8,21.67,-1.56,5.42,0.39,2.84,-1.92,20.74,-2.2,-0.24,-0.63,-0.18,17.69,8.67,0.73,2.1,0.05,8
1.8,-3.89,20.97,-6.93,11.08,-0.59,2.51,-1.93,20.91,-7.52,-4.35,-1.86,-0.2,17.63,8.72,0.83,2.25,-0.05,8
0.39,-3.66,20.65,5.52,-2.73,5.13,3.04,-1.87,20.88,3.56,2.83,0.98,-0.26,17.67,8.66,0.88,2.15,-0.29,8
1.41,-3.51,21.45,4.05,4.83,0.68,2.84,-1.58,20.95,1.12,9.47,0.1,-0.17,17.66,8.73,1.03,2.1,-0.44,8
1.44,-3.11,20.99,1.42,1.17,1.61,2.13,-1.41,20.46,0.63,1.51,-0.29,-0.18,17.66,8.69,0.68,1.95,-0.1,8
0.6,-4.02,19.41,-4.74,-13.62,-0.73,3.26,-2.68,19.3,-3.47,-20.8,-1.12,-0.18,17.66,8.72,-0.44,1.61,1.03,8
16.56,-1.26,23.42,34.67,-32.67,-1.86,11.47,-1.9,22.78,21.24,-7.76,3.42,-0.39,17.93,9.17,1.81,2.25,-0.15,8
3.03,-2.24,20.93,2.34,1.37,0.29,3.35,-0.26,20.6,2.15,3.17,-0.44,-0.14,17.73,8.85,0.78,2.25,-0.1,8
2.84,-2.83,21.02,0.49,3.56,0.2,3.7,-0.03,20.28,0.39,1.81,-0.88,-0.11,17.62,8.83,0.54,1.86,0.15,8
2.24,-2.11,21.1,3.08,2.25,-0.05,2.83,-0.14,20.7,2.78,6.59,-0.54,-0.1,17.63,8.9,0.63,2.25,0.2,8
2.42,-2.29,21.07,1.71,1.76,0.05,3.56,0.3,20.47,1.46,2.29,-0.2,-0.13,17.73,8.91,1.07,2.0,-0.44,8
2.25,-2.46,21.1,3.27,5.71,-0.29,3.32,-0.14,20.36,-0.15,3.52,-0.49,-0.13,17.56,8.93,0.1,2.15,0.98,8
2.08,-2.2,21.18,0.29,2.25,-1.46,3.15,0.16,20.42,-0.68,0.98,-1.37,0.13,17.58,8.96,0.78,1.76,-0.24,8
1.92,-2.37,21.17,0.68,0.78,0.54,2.76,-0.09,20.63,-1.07,0.73,-0.49,0.04,17.65,8.96,0.68,2.0,-0.05,8
3.17,-5.21,20.21,-8.84,-5.08,6.15,5.62,-2.26,19.66,-8.5,-15.19,14.5,-0.02,17.63,8.66,4.59,2.54,-1.12,9
4.08,-4.23,20.67,-5.81,-1.9,6.15,5.47,-2.52,20.26,-9.86,-6.35,9.72,-0.75,17.36,9.46,3.91,-0.83,0.1,9
3.71,-7.13,20.28,-7.52,-8.89,11.08,5.59,-5.01,20.62,-18.8,-20.7,9.86,0.11,17.95,8.3,16.85,1.95,1.46,9
5.19,-4.16,20.82,14.99,-12.6,12.11,6.77,-3.85,19.49,0.83,-11.82,12.7,0.81,18.55,6.05,40.58,2.73,7.91,9
4.4,-4.88,21.63,-4.54,2.59,1.27,5.85,-3.96,19.62,-4.1,2.29,-0.54,0.29,23.25,4.32,-0.54,-0.05,-6.3,9
4.68,-4.78,19.55,-4.1,5.86,2.34,5.99,-4.45,18.9,-3.61,7.13,2.49,0.02,17.49,4.74,-1.81,3.86,-12.65,9
3.48,-6.41,19.61,-3.66,1.37,-0.29,5.39,-5.9,18.67,-5.86,3.66,-2.05,-0.86,19.18,5.41,3.32,3.61,-2.2,9
4.07,-6.46,20.55,3.08,0.83,4.15,6.42,-6.14,19.71,-0.88,1.56,3.17,-1.0,19.06,4.74,0.39,4.79,-4.88,9
3.54,-5.67,20.17,0.59,7.67,5.32,6.0,-5.41,19.42,-1.56,7.62,4.54,-1.14,19.38,4.45,0.49,6.45,-5.52,9
3.04,-5.6,20.36,1.03,7.76,3.13,5.21,-5.67,19.63,-1.56,8.01,4.15,-1.44,19.42,4.49,9.81,4.15,-4.98,9
2.85,-5.22,20.29,3.81,5.66,1.76,4.39,-5.16,19.27,3.22,5.47,0.98,-1.83,18.56,4.22,3.17,2.49,-4.93,9
2.37,-6.38,20.19,0.83,2.59,2.64,4.74,-6.11,19.33,-0.63,2.05,1.76,-2.33,19.45,4.03,6.25,5.66,-3.17,9
2.13,-5.56,20.23,1.76,1.07,1.9,4.69,-5.55,19.61,0.15,1.66,2.98,-2.26,18.89,3.81,2.88,4.0,-1.03,9
2.58,-5.44,20.79,2.1,-0.54,1.61,4.92,-5.71,19.87,0.98,0.88,0.83,-2.23,19.49,3.78,2.05,3.76,-1.03,9
2.53,-5.56,20.52,1.86,0.63,0.78,4.63,-5.9,19.79,-1.07,1.56,0.59,-2.24,19.17,3.65,4.88,2.15,-1.12,9
2.46,-5.61,20.39,-0.24,0.1,1.07,4.44,-5.68,19.58,-0.05,0.39,0.39,-2.62,18.98,3.28,-0.15,1.56,-0.54,9
2.47,-6.29,20.48,-0.34,-1.27,0.78,4.75,-5.79,19.52,-0.59,-2.34,-1.27,-2.41,19.47,3.61,2.29,2.88,1.27,9
2.49,-5.51,20.78,1.81,-2.1,1.22,4.47,-5.71,19.87,1.12,-0.2,1.17,-2.45,19.34,3.34,4.2,2.78,-0.54,9
2.07,-5.57,20.54,1.32,0.78,1.17,4.76,-5.85,19.82,-1.17,0.05,0.88,-2.28,18.93,3.27,0.49,1.46,0.0,9
2.29,-5.82,20.7,0.88,0.24,0.93,4.72,-5.93,19.84,-0.78,2.0,0.05,-2.17,19.35,3.37,4.0,1.51,0.15,9
1.95,-5.45,20.66,-0.34,-1.07,0.88,3.59,-5.62,19.59,0.98,-2.34,-0.39,-2.64,19.1,2.02,0.59,2.29,0.88,10
2.23,-5.19,20.22,-0.78,-9.67,0.39,4.82,-5.4,19.84,6.88,-10.5,-2.15,-2.18,19.05,2.27,0.39,1.76,4.93,10
2.89,-4.94,20.37,8.79,-44.58,-3.32,5.34,-5.39,19.98,-2.69,-17.87,-2.49,-2.29,19.33,2.1,-0.88,2.98,4.05,10
3.71,-5.41,20.55,-4.39,2.25,-0.54,6.0,-4.8,19.34,0.88,-7.32,-0.78,-2.07,19.8,1.86,1.51,2.1,1.9,10
4.41,-4.84,20.22,-2.93,-1.07,0.68,6.56,-5.37,19.38,-1.22,-6.79,-0.68,-1.97,19.28,1.92,0.1,1.95,0.29,10
4.37,-4.54,20.27,0.24,-2.69,0.34,6.66,-5.53,19.41,-1.86,-3.81,-0.29,-1.93,19.56,2.08,3.08,2.05,1.95,10
4.25,-4.58,20.24,1.9,-0.73,1.81,6.21,-4.96,19.23,0.34,-0.98,-0.29,-1.8,19.41,1.92,0.44,2.54,-0.05,10
4.87,-4.62,19.98,-1.71,4.88,1.95,6.48,-5.46,19.35,0.24,-0.68,-0.05,-1.92,19.31,2.0,-0.29,1.71,-0.73,10
4.13,-4.92,20.26,-0.15,2.44,1.46,6.19,-5.06,19.28,0.98,0.54,0.68,-1.8,19.72,2.06,2.98,2.34,0.59,10
3.44,-5.08,20.08,-1.37,4.3,2.1,6.88,-5.26,19.3,-1.66,0.54,1.12,-1.99,19.47,1.84,1.51,2.25,0.39,10
4.06,-5.12,20.58,-3.42,4.49,3.71,6.0,-5.27,19.39,-0.24,4.74,2.29,-1.7,19.08,2.06,-2.1,2.34,0.15,10
3.16,-5.09,20.59,0.05,8.59,4.39,5.8,-5.53,19.51,-2.2,11.87,3.86,-1.83,19.7,2.09,0.98,2.88,-1.76,10
2.95,-5.61,20.51,-2.15,13.62,5.22,5.36,-5.75,19.82,-0.78,18.26,5.27,-1.73,19.54,2.29,1.22,2.44,-1.61,10
1.17,-5.1,20.68,1.27,19.78,5.27,4.43,-5.74,20.1,-3.86,13.57,4.44,-1.93,19.74,2.16,4.49,3.03,0.2,10
0.27,-5.45,20.8,6.84,18.8,7.08,2.87,-5.47,19.81,1.71,18.75,5.13,-2.12,19.16,1.99,0.63,3.03,-0.1,10
-0.17,-5.05,20.81,-5.08,16.11,3.66,1.79,-5.75,20.36,4.39,6.74,1.66,-1.96,18.98,1.98,-2.0,3.13,-1.51,10
-0.09,-5.09,20.97,-2.39,3.66,1.76,2.23,-5.97,20.61,-3.37,3.42,0.73,-2.07,19.23,2.05,3.08,2.83,0.68,10
-1.17,-5.34,20.94,3.37,3.56,2.34,1.47,-5.88,20.17,-0.88,3.71,0.59,-2.15,19.31,1.98,0.68,2.49,-0.15,10
-0.76,-5.21,21.16,-3.37,3.61,1.27,1.42,-5.97,20.41,-1.07,0.93,0.63,-2.1,19.01,1.96,0.54,1.32,0.73,10
-0.58,-5.17,21.18,-1.71,-3.12,0.44,1.71,-6.02,20.6,1.07,1.07,0.63,-1.95,19.16,2.23,1.9,2.25,0.54,10
3.62,-4.16,20.69,0.83,-8.79,-0.83,5.26,-4.85,19.59,2.83,-10.06,-1.9,-0.71,19.0,1.02,-0.93,2.73,1.17,11
4.01,-4.56,20.29,4.35,-7.57,1.81,6.31,-4.96,19.85,8.74,-8.4,0.68,-0.87,19.44,1.03,-0.44,2.15,0.0,11
3.51,-4.27,20.82,-1.56,-3.56,1.66,5.91,-4.44,19.99,-0.78,-3.12,-1.86,-0.77,19.91,1.3,1.81,2.34,-0.83,11
4.17,-3.61,20.52,-1.27,-5.03,-1.07,6.09,-3.96,19.4,-1.66,-4.79,-1.76,-0.79,19.44,1.02,1.71,2.1,0.1,11
4.61,-4.08,20.76,2.93,-0.2,0.59,6.61,-4.23,19.6,1.07,2.15,0.05,-0.9,19.57,1.16,1.42,2.54,0.1,11
3.73,-4.21,20.43,0.59,1.81,1.51,5.88,-4.22,19.4,-0.0,1.66,0.63,-0.65,19.18,1.1,-0.1,1.56,-0.29,11
3.43,-4.71,20.31,-1.95,1.03,1.37,6.22,-4.68,19.51,-1.03,-0.49,-0.2,-0.75,19.3,1.19,-1.47,2.2,-1.95,11
4.29,-4.12,20.66,0.15,-1.9,1.07,6.54,-4.14,19.62,-0.49,-0.88,0.05,-1.0,19.88,1.15,4.49,2.88,-3.32,11
4.22,-3.95,20.71,0.54,0.88,1.42,6.32,-4.11,19.46,-0.63,1.66,0.88,-1.38,19.43,1.08,0.83,3.27,-6.45,11
4.07,-4.64,20.9,2.39,7.03,3.08,6.7,-4.52,20.08,-0.2,7.81,2.98,-1.49,19.46,1.17,2.34,2.25,-1.51,11
3.22,-3.57,20.95,0.54,16.36,5.47,5.22,-4.5,19.84,-3.52,16.16,4.74,-1.54,19.37,0.99,0.98,2.59,-1.95,11
1.02,-4.63,20.68,-0.15,20.12,5.08,3.57,-5.02,19.92,-3.37,21.0,4.2,-1.8,19.45,1.21,-0.39,2.1,-3.03,11
-0.99,-4.77,20.72,-1.22,26.07,6.01,1.94,-4.82,20.12,-3.76,19.73,2.54,-1.82,19.66,1.11,3.81,2.78,-0.59,11
-1.1,-3.84,21.19,0.39,12.7,3.47,1.41,-4.88,20.29,0.59,14.11,2.83,-1.91,19.41,0.91,0.78,3.32,-1.22,11
-1.32,-4.24,21.15,0.54,12.16,3.37,1.46,-4.76,20.39,2.0,11.28,1.51,-1.8,18.8,1.07,-0.83,2.1,-1.37,11
-1.07,-3.84,21.33,2.73,1.17,1.61,1.1,-4.97,20.68,-0.88,3.76,1.12,-2.34,19.61,0.89,1.32,4.35,-0.98,11
-2.39,-4.05,21.09,-0.24,2.05,0.98,0.29,-4.7,20.42,-0.2,3.76,1.27,-1.87,19.32,0.95,-0.2,2.73,-0.15,11
-2.1,-3.94,21.23,0.24,2.2,2.2,0.02,-4.62,20.68,3.03,4.05,0.88,-2.01,19.59,0.93,1.07,2.44,0.49,11
-2.27,-4.11,21.03,1.81,-2.83,0.29,0.12,-5.06,20.39,-0.2,0.34,-0.24,-1.98,19.64,0.91,1.86,1.95,0.39,11
-2.25,-4.13,21.18,-1.51,-2.88,-0.29,-0.08,-4.8,20.69,-1.03,-1.71,-1.27,-1.99,19.56,0.96,0.24,2.29,0.1,11
3.82,-3.73,20.56,-1.76,-2.83,1.27,5.87,-3.77,19.48,0.34,-1.32,-0.2,1.2,18.88,1.98,-0.68,2.0,0.54,12
3.52,-3.38,20.64,0.2,-0.05,0.68,5.94,-3.71,19.49,-0.24,-3.42,-1.17,1.33,19.51,2.08,1.51,1.37,2.1,12
4.1,-3.75,20.66,0.24,-1.51,0.29,5.82,-3.34,19.48,2.69,-1.22,-0.49,1.17,19.25,1.96,0.15,2.2,1.03,12
3.75,-3.98,20.64,-0.73,-2.0,0.73,6.55,-3.34,19.73,0.39,-0.39,0.15,1.25,18.95,1.97,0.15,2.25,0.59,12
4.31,-3.74,20.8,-0.29,-2.15,1.27,6.13,-3.54,19.73,0.68,0.73,-0.29,1.17,19.15,1.91,2.0,2.15,0.49,12
3.69,-3.43,20.03,0.98,0.98,1.03,6.47,-3.97,19.41,0.2,-3.86,-0.05,1.29,18.52,2.05,-1.51,1.66,-0.34,12
4.37,-4.37,20.88,-0.54,7.62,2.78,6.9,-3.7,20.05,-0.49,-0.63,-0.54,1.42,19.38,2.16,1.22,2.1,1.81,12
3.24,-3.41,20.82,3.37,-3.56,-0.78,5.81,-2.96,19.44,1.95,0.73,-0.34,1.21,19.23,1.75,1.17,1.81,-1.17,12
3.33,-4.63,20.13,-2.83,4.74,3.17,5.85,-3.66,19.36,4.0,0.93,0.49,1.2,18.77,2.26,1.37,2.34,-0.2,12
3.47,-3.82,20.46,2.0,2.83,2.73,5.95,-3.36,19.58,1.61,0.68,-0.34,1.29,19.22,2.02,1.03,2.59,0.0,12
3.89,-3.6,20.62,-2.93,1.95,1.56,5.81,-4.13,19.67,-1.22,-0.44,0.0,1.28,19.1,2.19,1.66,1.81,0.54,12
4.04,-3.44,20.9,3.03,-2.2,1.03,5.94,-3.35,19.47,0.29,0.59,0.2,1.37,19.13,2.08,1.9,2.69,0.68,12
3.8,-3.67,20.47,1.03,-3.71,-0.73,6.21,-3.84,19.71,1.95,-0.83,0.29,1.34,19.49,2.04,1.76,2.39,0.63,12
3.76,-3.9,20.64,-0.83,1.07,2.0,5.74,-3.19,19.46,1.32,2.59,0.24,1.13,18.97,1.79,-1.22,1.46,-0.73,12
3.74,-4.38,20.65,2.15,-1.12,0.73,6.16,-4.06,19.45,6.4,0.73,6.15,1.32,18.87,1.87,0.15,2.39,-0.34,12
4.01,-3.97,20.5,-1.22,-0.83,1.37,6.11,-3.46,19.5,0.39,0.05,-1.03,1.34,19.09,2.06,-2.2,1.71,0.1,12
3.25,-3.8,20.54,-0.29,3.03,1.37,6.04,-3.22,19.77,0.39,-0.2,-0.98,1.4,19.35,2.06,-0.15,1.86,-0.39,12
3.51,-3.26,20.46,2.98,0.73,1.56,6.27,-2.88,19.52,-2.0,-1.61,-0.78,1.61,18.84,2.08,-0.2,2.29,-0.54,12
4.01,-3.61,20.94,2.05,-0.54,1.22,6.29,-3.32,19.76,-0.29,0.39,0.2,1.37,19.46,2.09,2.78,2.54,0.93,12
4.01,-3.25,20.64,2.0,0.54,0.39,5.84,-3.1,19.38,-1.27,0.54,-0.1,1.46,19.18,1.91,3.03,2.05,-0.59,12
2.22,-2.67,20.56,9.91,-8.2,2.54,5.11,-2.56,19.71,6.59,-3.52,0.29,1.46,18.9,1.65,-1.42,1.71,-0.73,13
1.88,-3.05,20.38,-1.61,0.73,0.73,6.01,-3.48,19.77,-3.42,-10.99,-2.54,1.59,18.94,1.83,2.0,2.25,0.29,13
3.56,-3.23,20.61,2.15,-10.11,-0.63,5.86,-3.16,19.42,1.03,-11.77,-1.46,1.54,18.99,1.71,1.76,2.69,-1.17,13
4.56,-3.21,20.59,0.93,-9.57,-1.03,7.01,-3.24,19.59,1.03,-1.42,0.39,1.33,19.35,1.82,2.98,2.44,-0.29,13
4.26,-3.15,20.47,-1.42,-3.12,0.0,6.77,-3.04,19.43,2.25,-0.88,0.54,1.36,19.26,1.75,2.0,2.25,-2.98,13
4.34,-3.5,20.36,-3.96,5.71,1.66,6.99,-2.93,19.53,3.56,-1.95,0.93,1.34,19.08,1.57,1.51,2.15,-0.59,13
4.39,-3.01,20.27,-0.54,0.98,0.73,6.7,-3.24,19.34,-0.78,-0.2,0.2,1.2,18.62,1.57,-0.34,2.44,-1.32,13
4.28,-3.49,20.12,-0.98,2.15,2.1,6.98,-2.54,19.49,2.54,-0.24,0.05,1.13,19.48,1.5,0.49,2.88,-2.15,13
4.87,-3.41,20.34,1.95,-6.1,0.59,7.32,-3.04,19.65,0.93,-1.95,0.73,1.06,19.26,1.67,1.81,2.05,-4.25,13
4.7,-3.12,20.44,-0.0,-2.93,0.88,6.86,-2.92,19.45,-0.34,-1.03,-0.34,0.72,18.36,1.32,-1.47,2.64,-0.83,13
5.05,-3.42,20.58,1.9,-2.69,1.46,7.23,-2.49,19.35,3.42,-3.32,0.93,0.8,19.08,1.38,-0.29,2.25,1.42,13
4.72,-3.19,20.2,-2.64,-2.64,0.24,7.51,-3.02,19.28,-2.98,-2.83,-1.56,0.9,19.33,1.49,-1.27,1.81,-0.63,13
5.05,-2.92,20.6,1.9,2.29,1.46,7.24,-2.79,19.62,-1.17,0.68,-0.15,1.06,19.0,1.66,-0.1,1.71,0.29,13
4.86,-3.31,20.18,-0.68,0.49,2.0,6.84,-2.94,19.23,0.34,-0.05,0.98,0.88,19.05,1.52,-0.05,2.0,0.24,13
4.6,-3.17,20.33,-2.15,2.44,1.46,7.12,-3.39,19.27,-2.15,0.44,-0.34,0.77,19.58,1.37,2.34,2.59,0.05,13
4.75,-3.51,20.4,1.56,3.22,2.1,6.64,-3.08,19.3,-0.78,1.07,0.49,0.84,19.03,1.48,1.9,1.95,0.54,13
4.24,-3.74,20.28,-2.69,1.37,0.93,7.16,-3.27,19.29,0.54,-0.88,-0.15,0.9,19.32,1.48,-0.54,2.1,0.29,13
4.57,-3.29,20.55,0.73,-1.46,0.49,7.09,-3.13,19.25,-1.51,-0.24,0.0,0.89,19.19,1.42,-0.49,1.56,0.49,13
4.67,-3.24,20.52,3.47,0.78,1.37,7.32,-2.85,19.58,0.44,2.98,0.39,0.95,18.99,1.46,1.07,2.2,0.39,13
4.33,-3.57,20.43,-1.12,5.91,2.59,7.18,-3.36,19.32,-3.71,2.39,0.93,0.98,19.34,1.5,0.05,2.29,0.24,13
6.19,-2.73,19.83,1.46,-16.5,-0.83,5.87,-3.74,19.33,7.67,-8.4,-0.05,0.22,19.26,-0.06,1.17,1.9,1.81,14
7.82,-1.92,19.35,6.45,-25.88,-0.93,6.43,-3.4,19.33,4.39,-6.98,-0.88,0.32,19.39,0.28,-1.66,2.2,1.12,14
10.06,-1.77,19.2,6.4,-14.01,0.98,6.72,-2.9,19.04,2.39,-5.42,0.39,0.96,18.98,0.58,-4.2,0.54,2.0,14
8.87,-2.3,18.95,-2.83,-9.91,0.2,9.17,-3.1,19.56,-3.03,-0.59,-0.49,0.5,19.35,0.24,0.88,1.76,2.0,14
9.38,-2.85,19.68,-6.79,30.62,5.57,7.24,-4.14,19.76,-2.59,20.17,2.98,0.61,19.54,0.5,5.03,3.17,-1.9,14
4.98,-2.1,19.77,3.66,44.34,7.47,5.48,-3.07,19.42,1.12,25.24,3.56,0.51,18.75,0.16,0.49,1.12,-1.22,14
6.11,-2.35,20.7,-3.96,20.51,3.22,2.87,-3.32,19.37,3.66,10.84,1.12,0.49,19.56,0.43,0.59,2.0,0.1,14
3.36,-2.37,20.55,1.71,4.74,1.37,4.33,-3.18,20.0,3.56,6.79,1.32,0.52,19.04,0.17,1.9,2.44,1.07,14
2.58,-2.28,21.09,-0.0,8.35,1.17,5.6,-3.64,21.0,-4.1,7.76,1.07,0.46,19.14,0.28,0.05,1.9,-0.54,14
1.18,-2.42,21.09,3.08,22.85,4.25,2.81,-2.85,20.22,-1.42,6.84,1.37,0.26,18.82,0.16,-0.49,2.44,-2.05,14
0.87,-2.91,20.9,-2.0,5.37,0.68,2.62,-3.43,20.25,1.27,3.13,0.59,0.29,19.41,0.36,0.39,2.39,0.54,14
0.32,-2.52,21.24,1.61,5.32,1.22,2.93,-3.25,20.61,1.81,1.32,0.54,0.37,19.63,0.25,1.12,2.64,1.07,14
1.39,-2.56,21.36,-1.71,4.2,1.12,2.86,-3.56,20.57,0.49,4.25,0.78,0.53,19.73,0.45,1.56,2.15,-0.54,14
0.78,-2.75,21.16,-0.29,0.2,0.78,2.8,-3.47,20.41,1.71,0.54,0.63,0.4,19.5,0.34,0.34,2.1,0.59,14
0.65,-2.45,21.21,-0.88,4.39,1.03,2.61,-3.07,20.55,0.98,0.05,-0.05,0.44,19.24,0.4,0.15,1.76,0.0,14
0.87,-2.28,21.28,1.9,1.37,0.54,2.47,-2.81,20.53,0.88,0.15,-0.44,0.53,19.31,0.46,1.46,2.34,0.83,14
0.83,-2.46,21.35,2.34,-4.93,0.05,2.94,-3.2,20.79,-0.1,-0.68,-0.88,0.65,19.41,0.31,2.29,2.0,0.78,14
0.78,-2.6,21.35,-0.54,2.39,0.78,2.6,-3.44,20.57,-0.39,0.68,-0.15,0.45,19.37,0.46,1.61,2.05,-0.24,14
0.77,-2.45,21.34,1.12,0.68,1.42,2.61,-3.09,20.65,0.83,0.54,0.1,0.41,19.09,0.27,0.34,2.05,-0.05,14
0.83,-2.27,21.29,1.51,-3.08,0.29,2.75,-3.08,20.63,-0.29,-1.56,-0.49,0.37,18.9,0.3,-0.68,1.66,-0.59,14
4.54,-2.13,20.2,1.95,-13.82,-0.44,5.89,-2.93,19.98,-1.56,-5.27,-1.03,0.91,19.41,0.3,-0.68,2.2,1.12,15
3.19,-2.73,20.34,-1.9,0.49,0.15,6.07,-2.36,19.83,-0.15,-2.93,0.15,0.69,19.28,0.11,-0.39,2.15,-0.34,15
3.28,-1.95,20.25,1.22,-2.93,1.03,5.82,-2.82,19.65,0.54,-2.49,-0.24,0.74,19.21,0.4,0.78,2.05,0.98,15
3.84,-2.55,20.26,-0.0,-5.08,0.1,6.14,-2.71,19.94,0.24,-1.95,-0.2,0.87,19.54,0.25,0.63,2.39,-0.29,15
4.08,-2.22,20.49,2.49,-3.91,1.12,6.28,-2.59,19.67,-2.3,-1.17,-0.24,0.83,19.06,0.29,1.03,1.81,0.1,15
4.4,-2.29,20.36,-2.54,3.17,0.68,6.27,-2.83,19.62,-0.73,-0.49,0.34,0.81,19.15,0.37,0.73,2.29,-0.39,15
4.81,-2.28,20.41,1.03,0.63,1.61,6.25,-2.69,19.74,-0.59,0.68,0.29,0.78,18.89,0.27,-0.0,1.61,0.2,15
4.15,-2.12,20.52,1.03,-1.42,0.59,6.18,-3.01,19.82,0.29,1.12,0.83,0.67,19.08,0.19,0.05,2.2,-0.68,15
4.43,-2.31,20.62,2.54,-0.83,1.03,5.84,-2.84,19.6,-1.03,-0.1,0.24,0.79,18.94,0.31,1.66,2.15,0.44,15
4.42,-2.38,20.56,-1.86,1.66,1.03,6.25,-2.74,19.77,-1.47,-2.49,0.05,0.79,19.21,0.25,2.0,2.49,0.49,15
4.46,-2.47,20.6,-0.15,-1.9,0.73,6.13,-2.74,19.56,-1.66,-2.98,0.05,0.75,19.28,0.31,-1.17,2.2,-1.17,15
3.79,-2.57,20.37,-2.54,3.52,2.05,6.53,-2.99,19.68,0.39,-7.08,2.1,0.76,19.5,0.59,1.37,2.1,0.1,15
4.24,-2.75,20.78,0.1,-3.81,2.2,7.58,-3.1,19.94,-4.93,-7.03,0.34,0.84,18.96,0.19,0.29,2.05,-1.22,15
5.43,-2.67,20.73,2.93,-2.93,-0.68,7.74,-3.32,20.5,-0.93,11.04,1.86,0.65,18.93,0.32,1.17,1.37,-2.0,15
4.55,-3.24,21.28,5.22,22.66,3.47,4.8,-2.68,20.15,0.59,29.54,6.05,0.38,19.25,0.06,-1.37,1.71,-4.35,15
2.14,-2.02,20.85,0.05,33.45,6.25,3.05,-3.42,19.85,0.24,26.37,3.32,-0.08,18.86,0.31,-1.03,3.13,-3.27,15
0.52,-2.4,20.82,-1.37,26.17,5.18,2.69,-3.3,20.7,-2.49,4.25,0.29,0.11,19.31,0.13,1.86,2.73,0.34,15
-0.11,-2.64,21.48,2.78,3.52,1.66,2.19,-2.88,20.75,-1.86,1.17,0.29,0.04,18.95,0.08,-0.49,2.88,0.0,15
-0.64,-2.73,21.38,0.05,9.47,2.05,1.06,-3.26,20.56,0.83,13.38,1.03,0.15,19.61,0.31,-0.1,2.54,-2.0,15
-0.76,-2.27,21.36,1.32,4.2,2.0,1.25,-3.08,21.02,0.93,6.05,-0.54,0.02,19.39,0.17,1.71,2.0,0.34,15
5.56,-1.97,20.64,0.98,-5.91,0.54,6.52,-2.81,19.72,3.17,-2.73,0.63,1.11,19.41,0.18,1.27,2.2,-0.39,16
3.73,-1.88,20.38,-0.44,1.56,1.07,6.37,-2.9,19.65,-3.08,-1.71,-0.59,1.29,19.23,0.18,1.22,2.54,1.32,16
5.31,-2.31,20.61,2.49,-10.4,-0.15,6.52,-2.34,19.69,2.25,-4.98,-0.68,1.33,19.26,0.24,0.15,2.1,-0.2,16
5.35,-2.18,20.26,-0.59,-4.64,0.59,6.9,-2.58,19.38,0.2,-1.42,0.0,1.28,18.82,0.01,1.12,1.71,2.2,16
5.38,-1.79,20.5,0.88,-0.29,0.98,6.35,-2.15,19.53,-0.0,-3.22,-0.54,1.44,18.93,0.25,1.12,2.44,0.44,16
5.45,-2.55,20.37,1.66,-1.66,1.32,6.9,-2.36,19.52,2.29,-0.39,0.83,1.28,19.11,0.23,2.2,2.29,-0.24,16
5.27,-2.12,20.21,-1.76,-2.54,0.44,6.32,-2.71,19.35,0.44,0.2,0.05,1.32,19.18,0.21,1.86,2.49,0.88,16
4.82,-2.12,20.2,0.88,1.12,1.17,6.4,-2.38,19.47,1.37,-0.59,0.15,1.28,19.23,0.18,-0.1,1.9,-0.49,16
5.01,-2.01,20.17,0.54,-1.37,0.24,6.56,-2.13,19.37,-0.05,-1.07,-0.63,1.26,19.05,0.19,0.24,1.95,0.1,16
5.65,-2.08,20.45,1.27,0.0,0.83,6.62,-2.5,19.4,-0.98,0.59,-0.34,1.28,19.04,0.19,1.37,2.1,0.15,16
4.84,-2.05,20.03,1.27,2.1,1.17,6.49,-2.3,19.31,0.54,-0.44,0.0,1.33,18.91,0.18,1.76,1.61,2.1,16
5.31,-2.37,20.48,-0.24,-7.57,-0.63,7.09,-2.63,19.7,-0.59,-3.22,-1.32,1.46,19.03,0.29,-1.66,1.81,0.15,16
6.2,-2.06,20.13,0.54,-3.22,0.68,7.02,-2.57,19.45,-1.22,-2.0,-0.63,1.22,19.47,0.37,1.66,2.39,0.29,16
5.36,-2.04,19.92,-1.56,-5.42,0.44,6.86,-2.71,19.39,-2.1,-1.37,-0.39,1.42,18.94,0.15,0.2,2.05,0.63,16
5.34,-1.98,20.1,1.27,-0.63,1.37,6.61,-2.2,19.73,-0.0,-3.71,0.15,1.47,19.29,0.39,1.22,2.54,-0.73,16
6.0,-2.31,20.37,1.17,3.66,2.1,6.98,-2.44,19.47,-0.59,1.46,0.68,1.23,19.11,0.18,-0.68,1.95,-1.32,16
5.16,-2.29,20.05,-2.2,1.32,1.46,6.9,-2.51,19.37,-2.49,-0.2,0.34,1.21,18.83,0.22,0.78,2.39,-0.59,16
5.55,-2.33,20.81,-0.98,6.93,2.34,6.99,-2.45,19.71,-2.69,1.46,0.88,0.73,19.52,0.56,-2.69,3.22,-4.1,16
3.48,-3.24,21.14,10.5,62.94,15.77,7.52,-3.34,20.55,0.2,41.89,10.16,0.96,19.4,0.09,1.61,4.0,-7.52,16
-1.08,-1.7,20.66,-0.05,39.6,4.88,2.34,-1.67,20.0,2.69,44.14,6.05,0.43,18.97,0.06,1.95,1.9,-4.54,16
5.35,-1.32,19.93,0.63,-13.13,-1.42,6.37,-2.33,19.49,-1.86,-1.42,-0.63,1.17,19.52,-0.06,0.88,2.54,-0.59,17
6.63,-1.93,20.19,-4.49,2.73,0.73,6.7,-2.52,20.02,0.59,-0.29,0.0,1.14,19.19,-0.01,0.78,2.15,-1.07,17
6.79,-1.1,20.28,3.32,-1.51,1.81,5.94,-2.51,19.66,-1.03,1.95,-0.1,1.14,19.3,0.23,1.76,2.25,1.22,17
5.14,-2.05,19.89,-0.68,-0.73,0.98,6.07,-2.37,19.75,0.34,0.49,0.0,1.12,19.3,-0.14,-0.2,1.86,-0.34,17
6.0,-1.46,20.23,-1.56,-0.54,0.59,6.48,-2.33,19.69,-1.12,1.22,0.98,1.21,19.07,0.32,0.83,2.05,-0.34,17
6.33,-1.48,20.16,1.37,-6.3,0.29,6.18,-2.63,19.88,0.24,1.37,0.0,1.24,19.52,0.19,2.15,2.1,0.29,17
6.92,-1.34,20.17,1.27,1.81,1.42,5.94,-2.08,19.55,1.37,1.22,0.44,1.3,19.1,0.18,3.32,2.05,0.63,17
6.1,-1.4,19.87,-0.78,-4.49,0.29,6.16,-2.53,19.64,-2.15,-0.54,-0.49,1.13,19.45,0.24,1.95,2.25,-0.59,17
6.41,-2.02,20.49,1.51,-2.54,1.27,6.55,-2.5,19.67,-1.42,2.05,0.34,1.06,19.14,-0.05,1.17,2.15,0.44,17
5.65,-1.52,19.97,-2.05,0.88,0.24,6.29,-2.09,20.06,-2.2,3.32,0.34,1.13,19.42,0.18,0.39,2.34,0.1,17
5.7,-1.76,20.07,1.76,-0.73,1.03,5.0,-2.86,20.11,0.68,25.63,3.03,1.24,19.12,-0.11,0.83,2.05,-1.32,17
5.84,-1.67,20.0,-1.03,1.32,1.37,4.03,-1.16,20.34,3.47,20.56,1.61,1.07,19.1,0.16,0.88,2.0,-0.34,17
6.37,-1.77,20.5,-0.05,-0.54,0.63,3.43,-2.65,20.69,-0.78,16.11,1.37,1.13,18.97,0.03,1.86,3.37,-0.88,17
5.68,-1.52,19.96,1.86,1.42,1.27,3.14,-2.39,20.44,-2.0,8.74,0.78,1.06,19.54,0.05,1.17,2.2,-1.66,17
5.71,-1.91,20.16,-3.32,-1.17,0.24,2.66,-2.59,20.79,-1.76,4.79,0.49,0.83,19.22,0.27,2.49,1.71,-2.25,17
5.82,-1.67,20.15,-0.39,4.39,2.34,2.69,-2.42,20.79,-0.24,2.54,0.24,0.69,18.81,0.07,1.42,2.83,-0.39,17
5.3,-1.51,20.31,-1.27,12.35,2.34,2.3,-2.36,20.92,-0.88,-0.88,0.0,0.95,19.57,0.11,2.44,2.44,0.15,17
4.55,-2.06,20.68,2.88,26.9,5.13,2.1,-2.34,20.65,-0.0,-2.05,-0.15,0.87,18.95,0.1,1.12,2.39,0.29,17
3.24,-0.86,21.19,-0.1,20.56,2.34,2.55,-2.47,21.04,0.88,0.93,0.63,0.81,19.13,0.11,0.39,2.0,0.1,17
2.01,-1.98,21.31,-1.37,11.57,1.51,2.57,-2.21,20.71,0.59,-0.05,0.1,0.76,19.41,0.05,1.46,1.86,0.98,17
4.01,-2.61,20.15,-2.25,-3.76,-0.44,4.76,-2.52,19.7,-2.3,-4.2,-1.12,1.61,18.58,1.31,4.2,2.29,2.34,18
4.07,-3.27,20.39,-2.59,-4.2,0.15,5.31,-1.44,20.47,5.32,-1.37,1.17,1.97,19.28,1.07,3.52,2.83,1.81,18
4.11,-1.89,21.14,3.27,-2.78,0.83,5.2,-2.0,19.8,-2.2,-0.83,-1.71,1.79,18.63,0.7,-1.42,1.37,-0.44,18
3.95,-2.99,20.31,-3.22,0.15,-0.49,5.24,-2.71,20.08,0.15,-0.93,0.59,1.88,19.18,1.54,0.63,2.1,0.1,18
4.11,-2.38,20.32,2.44,-3.96,2.15,4.96,-1.87,19.75,-1.56,-3.76,-0.68,1.95,18.72,0.79,-1.51,1.32,0.68,18
4.36,-2.97,20.47,-3.17,-4.93,0.73,5.62,-2.48,20.0,-0.2,-1.46,-0.68,1.9,19.05,1.46,1.81,2.15,1.76,18
4.52,-2.92,20.34,1.86,-3.86,0.93,5.83,-2.48,20.25,-0.0,0.39,0.83,2.01,19.45,1.52,3.71,3.13,0.68,18
5.18,-2.52,20.61,0.78,0.0,2.25,5.46,-1.79,19.67,0.29,0.24,-0.54,1.88,19.1,1.05,2.34,2.49,-0.49,18
4.34,-2.75,20.32,-0.29,-1.51,0.44,5.42,-2.38,19.98,0.05,2.1,0.63,1.69,19.4,1.46,2.73,3.32,0.44,18
4.43,-2.8,20.63,-0.68,-0.88,1.07,5.43,-1.89,20.01,-0.2,0.68,0.39,2.02,19.3,1.28,1.51,2.73,-0.39,18
4.6,-2.55,20.33,0.1,-0.39,0.93,5.32,-2.18,19.84,-1.17,-1.07,-0.44,1.87,18.95,1.24,1.95,2.1,0.2,18
4.58,-2.74,20.39,-0.88,-1.22,1.03,5.66,-2.44,19.95,-0.68,-2.44,-0.73,1.79,18.83,1.37,-0.78,1.76,0.34,18
4.34,-2.82,20.63,2.34,-0.39,1.61,5.78,-2.53,20.01,-1.95,-0.39,0.24,1.86,19.4,1.31,0.05,1.9,-0.2,18
4.6,-2.95,20.38,1.37,-0.05,1.37,5.36,-2.43,19.37,-1.37,-1.56,-1.27,1.78,19.09,1.3,2.2,1.86,0.29,18
4.21,-2.72,20.37,2.1,0.29,1.22,5.8,-2.92,20.13,-0.15,-2.1,-0.34,1.84,19.57,1.54,0.1,1.56,1.32,18
5.25,-3.16,20.94,2.15,0.73,2.0,5.46,-1.55,19.9,-0.93,-1.22,-0.49,1.91,19.71,0.92,1.56,2.34,-0.68,18
3.96,-2.36,19.86,-1.66,2.59,0.44,5.64,-2.53,19.72,-1.95,-2.34,-1.12,1.74,18.57,1.33,1.03,1.37,0.78,18
4.24,-3.4,20.61,-1.56,-0.44,0.83,5.52,-2.16,20.24,0.68,-0.49,0.83,1.89,19.39,1.42,0.63,2.83,0.1,18
5.01,-2.31,20.94,1.22,-1.51,0.15,4.89,-2.59,19.27,-1.07,3.76,0.44,1.71,19.57,1.65,2.34,2.64,-2.78,18
3.74,-3.81,19.75,1.86,0.24,2.05,5.01,-2.13,19.5,-0.49,-2.49,2.15,1.59,18.87,1.48,3.42,3.52,1.61,18
2.85,-3.36,21.35,2.88,-4.35,0.78,5.84,-3.82,20.12,-1.95,-0.44,-0.49,1.39,19.45,1.13,5.13,1.71,0.34,19
1.9,-3.91,20.07,1.76,-13.57,-0.54,5.09,-2.97,19.69,-0.29,0.63,0.93,1.02,19.39,0.63,2.15,2.59,-0.73,19
4.74,-2.43,21.32,11.08,-17.77,3.22,5.45,-3.75,19.69,0.2,-0.49,-0.49,1.18,19.69,0.94,2.25,2.2,1.86,19
3.65,-3.65,20.33,-5.08,-3.91,-0.05,5.33,-3.95,19.81,-5.62,0.44,1.03,1.26,19.63,0.79,2.0,1.81,-1.27,19
4.57,-3.96,20.92,6.79,-4.49,1.56,4.94,-4.36,19.71,2.34,1.32,0.98,0.86,18.27,0.74,-0.44,1.66,0.15,19
3.84,-3.29,20.05,1.46,-5.42,0.44,5.91,-2.56,20.24,2.78,0.44,0.39,1.27,18.88,0.88,0.39,2.29,2.2,19
4.44,-3.52,20.77,2.88,-4.15,0.2,5.81,-3.98,19.88,-1.27,-0.78,-0.98,1.66,20.88,0.92,5.13,2.0,-0.54,19
4.28,-3.1,20.43,0.05,2.25,1.07,5.33,-3.32,19.84,-0.44,4.93,0.98,0.92,19.6,1.3,4.88,0.93,-0.83,19
4.36,-3.15,20.04,3.91,-2.39,0.1,4.27,-3.37,20.24,-0.49,24.07,3.61,1.19,18.86,0.81,-1.76,1.95,-1.81,19
5.14,-2.79,20.18,0.73,-7.76,-1.17,2.91,-4.07,20.25,-1.61,27.49,3.42,1.17,19.44,0.94,1.61,1.37,-0.93,19
4.45,-3.63,20.55,-7.86,2.78,2.05,1.47,-3.19,20.96,1.66,16.75,1.42,0.84,19.63,1.03,3.47,2.44,1.12,19
4.39,-2.4,20.02,3.22,0.88,0.39,0.97,-3.66,20.3,-2.59,11.62,0.54,1.01,19.27,0.78,1.42,2.39,-1.81,19
4.44,-3.16,20.47,0.88,1.12,1.32,0.46,-4.18,20.59,10.79,7.18,0.54,0.93,19.08,0.82,0.93,1.51,0.49,19
4.76,-3.96,20.31,-1.47,-0.29,0.98,0.81,-4.16,21.04,1.12,1.32,1.12,0.83,20.28,0.85,1.86,2.78,-0.39,19
4.36,-4.11,20.58,-1.03,1.17,0.93,1.08,-3.61,20.82,1.17,-1.22,0.93,0.62,18.89,1.48,5.18,2.15,0.2,19
3.74,-3.26,20.19,0.54,-0.63,0.98,1.21,-4.03,21.51,-3.37,-5.18,-0.1,1.22,19.53,0.49,1.03,3.08,0.39,19
4.1,-3.96,20.32,0.49,-2.34,0.44,0.63,-4.28,20.48,-6.25,0.83,-1.32,1.07,19.3,1.03,-1.71,-0.1,-2.34,19
3.53,-4.52,20.0,-7.62,4.54,1.86,1.18,-4.71,21.05,0.44,2.69,0.44,0.56,19.52,0.73,1.37,2.39,-2.05,19
3.81,-4.16,20.65,3.52,-3.52,1.66,0.89,-3.42,20.52,1.42,1.07,0.39,0.23,18.74,0.19,-2.2,1.32,-6.88,19
4.53,-2.7,20.96,3.32,-0.15,0.83,1.25,-4.35,21.13,0.24,-0.2,-0.24,-0.07,19.46,1.09,2.05,0.1,-11.47,19
3.5,-3.27,21.48,6.35,-10.4,0.54,5.62,-3.36,19.92,0.15,-6.25,-0.98,-0.93,19.52,-0.45,-1.42,1.37,-1.66,20
2.9,-3.74,19.9,1.37,-9.13,-0.78,5.01,-4.22,18.86,1.07,-11.43,-2.39,-0.87,18.93,-0.44,2.25,2.44,1.76,20
5.15,-2.53,19.28,26.81,-66.46,-6.25,8.47,-3.17,18.7,13.28,-46.83,-6.49,0.3,19.3,0.02,8.5,-0.29,3.61,20
9.24,-2.22,20.49,2.93,-7.81,1.03,9.99,-3.48,19.38,-0.44,-2.49,-0.88,-0.72,20.74,-0.58,2.0,2.88,2.29,20
8.65,-2.36,19.23,2.05,0.2,1.51,9.48,-2.99,18.5,1.56,7.37,1.17,-0.56,19.25,-0.72,1.03,1.56,1.17,20
7.87,-3.47,19.55,0.39,0.63,1.27,10.01,-3.67,18.71,1.07,3.86,1.22,-0.75,18.92,-0.09,-1.32,1.66,-1.71,20
6.73,-2.55,19.32,4.39,6.64,2.78,8.14,-3.49,18.89,1.81,12.01,2.93,-0.89,18.67,-0.62,1.37,2.64,1.56,20
5.83,-2.87,19.76,-5.47,17.92,4.05,7.41,-3.68,19.19,-2.3,12.4,3.91,-0.59,18.91,-0.49,-1.22,2.93,-0.59,20
4.66,-2.09,20.41,-0.98,14.84,2.15,6.7,-2.82,19.54,-0.44,0.39,1.17,-0.63,19.78,-0.36,-0.59,2.54,-2.1,20
4.23,-2.49,20.1,-0.44,7.76,1.51,5.3,-3.42,19.08,-0.2,8.2,0.63,-0.7,19.14,-0.49,0.29,2.05,1.12,20
5.04,-2.67,20.56,2.69,5.76,2.15,6.43,-3.69,19.48,3.56,10.16,2.49,-0.41,19.11,-0.1,-2.0,2.15,0.15,20
4.41,-2.33,21.41,4.3,9.42,2.2,5.56,-3.41,20.47,1.12,12.6,1.66,-0.67,20.11,-0.14,1.03,2.0,0.54,20
3.04,-2.42,20.53,1.95,20.46,2.25,4.82,-3.05,19.83,2.64,22.07,2.69,-0.61,18.88,-0.65,0.63,0.63,1.12,20
2.03,-3.63,21.33,-7.57,16.5,-0.59,3.87,-3.89,20.74,-4.39,11.52,-2.05,-0.62,19.99,0.24,-1.9,1.9,-1.71,20
0.78,-3.0,21.38,2.39,16.31,2.44,2.12,-3.36,20.57,3.66,18.36,1.66,-0.87,19.6,-0.5,2.73,1.71,-0.83,20
0.25,-3.53,21.0,-1.32,5.27,0.98,2.68,-3.62,20.7,-2.98,4.2,-0.2,-0.73,19.01,-0.33,1.66,0.88,-1.22,20
0.12,-3.15,21.34,-6.15,3.32,1.27,1.74,-3.44,20.64,-5.22,3.71,0.98,-0.78,18.58,-0.08,-8.45,0.15,-4.93,20
-0.52,-2.89,21.28,4.49,1.07,0.15,1.01,-3.33,20.54,4.69,5.47,-0.68,-1.01,19.29,-0.12,3.27,1.46,-0.2,20
-0.12,-3.12,21.24,0.93,0.24,1.07,1.63,-3.57,20.8,0.2,1.27,0.39,-1.05,19.11,-0.58,1.81,2.0,-0.54,20
0.08,-3.55,21.38,-1.27,-0.15,0.44,1.78,-3.75,20.89,-1.22,-0.83,-0.68,-1.01,19.23,-0.2,0.49,2.0,-1.32,20
-1.0,-9.39,19.76,6.49,1.61,1.17,4.22,-9.66,18.44,1.17,7.18,-0.1,-3.58,18.78,2.8,2.78,2.1,0.73,21
-0.66,-9.48,19.57,-3.66,-0.73,0.15,4.71,-9.29,18.3,-2.54,-3.17,-0.98,-3.74,19.34,2.93,-2.59,1.76,-1.66,21
-0.54,-9.81,19.68,-7.81,-4.88,-0.54,5.46,-9.2,18.06,-7.18,-22.8,-5.96,-3.36,19.5,3.06,-3.17,2.54,-1.81,21
0.06,-10.56,19.12,-6.54,-2.29,-0.29,5.93,-9.64,17.55,-5.22,-7.96,-3.52,-3.86,18.66,3.12,-0.93,1.46,-1.46,21
0.07,-10.38,19.2,5.62,-0.05,1.03,6.41,-10.38,17.36,0.54,2.29,-0.78,-3.43,18.73,3.25,4.44,2.1,2.0,21
-0.53,-9.21,18.95,20.56,-1.12,-2.2,4.78,-9.64,17.46,14.99,20.07,-1.71,-3.27,18.59,2.6,9.28,0.78,6.2,21
-0.17,-7.82,20.02,23.68,-3.91,-2.05,4.96,-8.78,18.58,18.02,15.53,-2.64,-2.57,20.01,2.27,11.52,0.24,10.55,21
0.4,-7.03,21.04,22.12,-2.0,-0.83,5.46,-7.53,19.83,16.75,4.0,-3.86,-2.04,20.03,1.1,14.45,0.78,10.4,21
-0.2,-5.94,21.23,7.71,-1.17,-0.44,4.38,-6.39,19.62,9.67,10.35,0.83,-1.6,19.7,1.09,9.08,2.15,3.56,21
0.5,-6.41,20.33,12.99,-1.07,-0.24,4.07,-6.74,19.44,11.38,10.84,-0.78,-1.67,18.95,0.57,6.15,-0.05,3.17,21
-0.12,-5.11,21.15,24.46,-6.49,-1.86,3.33,-4.98,20.22,25.2,10.11,-1.71,-1.51,19.62,0.42,15.19,1.42,10.6,21
0.86,-3.17,21.87,16.75,-6.1,-0.34,2.59,-3.18,20.62,18.21,0.2,-1.56,-0.69,19.84,-0.5,11.82,1.71,8.94,21
0.21,-2.47,21.01,5.52,1.9,0.68,2.78,-2.94,20.66,5.71,3.81,-1.07,-0.65,19.6,-1.04,2.73,2.2,2.2,21
0.14,-1.47,21.41,32.52,-4.79,-5.22,2.68,-3.23,20.74,23.39,5.08,-7.18,-0.29,18.15,-1.52,25.78,-3.61,13.77,21
0.36,-1.39,21.59,13.96,-1.51,-2.29,2.93,-2.45,21.3,7.37,-0.78,-4.0,0.19,19.21,-2.04,4.64,-0.83,6.64,21
0.48,-1.38,20.79,0.93,0.0,-1.07,2.22,-1.34,20.93,1.76,2.39,-0.44,0.55,19.53,-2.24,-2.93,1.61,-1.66,21
0.7,1.28,20.38,12.94,-14.99,-2.73,1.75,-0.04,20.69,17.28,3.22,-1.12,0.39,20.2,-2.61,20.7,-1.46,7.86,21
1.8,1.34,21.89,1.86,-3.32,0.63,2.2,0.67,20.89,8.06,-0.05,-0.05,1.13,19.6,-2.61,11.62,1.86,6.93,21
1.39,0.34,21.09,-1.76,2.2,1.12,2.27,0.22,21.0,-3.13,0.34,0.49,1.11,18.92,-3.14,-2.88,1.37,-2.44,21
0.91,-0.07,20.91,0.63,-0.39,-0.29,1.67,-0.02,20.63,0.98,0.24,-1.9,0.9,18.39,-2.91,2.98,0.93,0.59,21
1.44,6.1,19.96,18.7,-9.62,1.81,0.85,5.56,20.48,-1.22,0.98,0.93,1.36,17.66,-6.78,0.39,2.88,0.39,22
1.4,6.43,19.94,0.93,-3.42,2.49,-0.11,4.63,20.25,-2.1,1.46,1.42,1.43,17.63,-6.58,-1.95,2.05,0.0,22
1.12,5.82,19.65,2.69,-8.01,2.88,-0.01,4.95,20.02,4.05,-1.12,1.12,1.41,18.64,-5.9,-1.22,16.11,-2.15,22
4.1,7.09,20.28,9.62,-22.17,3.96,0.5,4.52,20.48,-0.05,-0.49,0.2,1.26,17.54,-5.93,-9.86,5.08,-4.54,22
3.5,7.56,19.6,4.2,10.06,1.37,0.13,4.78,20.13,-3.22,-6.01,-0.2,1.29,19.74,-5.2,-14.36,5.76,-10.25,22
3.73,7.0,19.94,-2.73,8.3,-0.78,0.27,5.2,19.94,-5.76,-3.17,3.91,1.03,18.25,-4.18,-26.66,8.15,-13.77,22
0.85,5.16,19.91,-13.23,10.06,6.93,0.77,4.4,20.5,-6.79,-2.93,9.18,0.17,18.28,-3.38,-8.06,5.22,-7.67,22
2.11,5.78,20.56,-12.99,5.03,7.47,1.47,3.93,20.57,-27.73,-5.27,11.33,-0.57,17.85,-2.3,-15.58,2.93,-8.59,22
1.56,3.58,21.14,-43.26,6.2,11.23,1.91,0.64,21.01,-37.26,-8.3,7.52,-1.14,18.01,-2.23,-10.01,4.15,-3.81,22
1.14,0.69,20.99,-19.14,3.17,5.52,1.61,0.68,20.71,-13.48,0.49,4.79,-1.06,19.43,-1.55,-14.6,6.35,-5.96,22
0.37,0.67,21.11,-20.07,5.18,5.03,2.27,-1.19,21.01,-14.99,1.32,0.15,-1.26,18.18,-1.11,-8.15,4.3,-4.0,22
-0.2,-0.87,21.13,-9.96,2.0,5.32,2.04,-1.82,20.94,-4.74,-0.63,2.1,-1.53,19.61,-0.67,1.27,1.27,-2.25,22
0.56,-0.02,21.73,-6.25,0.05,4.93,1.59,-1.57,20.62,-19.97,-4.39,4.39,-1.63,19.4,-0.66,-5.86,4.2,-2.78,22
0.79,-2.27,20.87,-18.07,0.0,3.08,2.09,-3.07,20.82,-4.2,1.46,2.54,-2.06,19.97,0.13,-5.76,2.98,-3.32,22
0.84,-2.26,21.48,-0.73,0.2,1.86,1.95,-2.73,20.74,-3.66,0.24,1.07,-1.67,18.64,-0.28,-3.42,1.61,-2.98,22
0.65,-2.36,21.29,-10.06,0.2,3.81,2.0,-3.45,20.85,-9.38,0.0,2.69,-2.06,19.09,0.05,0.05,2.59,-0.1,22
0.18,-3.98,21.77,-14.6,-2.0,2.05,1.61,-3.94,20.66,-3.08,0.54,2.1,-1.7,19.12,0.06,1.51,2.15,0.39,22
-0.1,-3.85,21.35,-3.32,1.07,2.44,2.05,-3.65,20.53,-0.59,-0.49,0.54,-1.92,18.83,-0.12,-1.17,1.61,-0.44,22
0.4,-3.76,21.31,-1.03,-1.22,0.83,1.79,-3.99,20.73,1.32,0.2,0.39,-1.99,19.06,0.07,-0.15,2.29,-1.32,22
-0.16,-3.62,21.22,2.49,-0.24,0.54,2.21,-3.45,20.72,1.56,-0.29,0.29,-2.06,19.43,-0.02,1.07,2.44,-0.44,22
5.49,-3.4,20.31,4.39,-5.86,-0.68,7.96,-3.93,18.84,-0.49,0.54,1.17,0.23,18.6,0.46,-1.76,2.54,0.29,23
5.56,-3.78,19.93,0.78,-6.25,-1.17,8.35,-3.61,19.25,-0.63,-0.05,0.39,0.33,19.04,0.68,-0.2,2.64,0.34,23
5.81,-3.93,19.96,-0.05,-3.22,0.78,7.86,-3.91,18.94,-0.39,0.05,0.1,0.5,19.71,0.68,2.25,3.61,0.78,23
6.05,-3.39,20.13,-3.08,2.73,1.81,7.71,-3.84,18.88,-1.56,0.63,0.34,0.56,19.15,0.75,0.44,2.83,-0.44,23
5.66,-3.45,19.68,1.22,-1.37,0.54,7.36,-3.8,18.82,-1.95,2.73,0.73,0.52,19.09,0.83,0.39,2.15,0.68,23
6.38,-3.87,20.09,2.83,-0.34,1.46,8.12,-4.06,19.45,0.39,12.7,3.81,0.69,19.44,0.57,0.1,2.29,-0.68,23
6.14,-3.57,19.92,0.15,-0.34,0.98,6.89,-4.27,19.34,-3.52,8.98,4.05,0.49,18.8,0.74,1.03,1.81,-0.15,23
5.45,-4.41,19.75,-0.63,1.51,1.61,6.75,-4.77,19.71,-6.4,7.23,4.64,0.4,19.29,0.66,1.71,3.17,-0.34,23
5.76,-3.68,19.95,-0.83,1.22,2.1,5.46,-4.8,19.65,-2.83,15.04,6.05,0.48,19.23,0.72,0.88,1.9,-0.39,23
6.01,-4.11,20.05,-0.1,1.66,2.15,4.9,-5.19,19.64,-1.37,22.95,4.98,0.59,19.08,0.66,-0.0,2.34,-0.98,23
5.59,-3.71,19.97,1.56,-1.12,0.73,4.89,-4.96,20.36,-2.54,-1.12,1.17,0.36,19.26,0.73,0.78,1.9,-0.78,23
5.51,-4.13,19.78,0.83,-0.54,1.37,3.16,-4.79,19.93,-2.93,6.4,0.88,0.41,19.34,0.55,2.29,2.49,0.34,23
6.24,-3.71,20.36,0.59,-2.15,0.73,3.33,-5.39,20.24,7.86,22.36,3.61,0.41,19.27,0.63,0.49,2.15,-1.51,23
5.52,-4.21,19.92,-0.63,-0.44,1.07,3.5,-5.77,20.36,-1.17,-0.29,1.9,0.16,19.73,0.78,2.93,2.29,-0.24,23
5.64,-4.04,20.05,-0.88,0.78,1.46,1.89,-4.3,20.31,-0.98,0.54,-2.1,0.21,19.39,0.42,0.39,1.86,-0.49,23
5.34,-3.91,20.08,-0.34,2.59,1.56,2.56,-4.8,20.4,4.15,2.59,-0.88,0.19,19.07,0.65,-1.61,2.29,-2.25,23
5.63,-4.37,20.55,3.03,9.13,4.35,2.44,-4.83,20.51,3.17,0.78,-0.73,0.17,20.03,0.7,1.07,2.34,-3.71,23
4.41,-4.45,20.05,-2.78,8.89,4.54,2.43,-4.66,20.39,-0.63,0.05,-0.05,-0.38,19.59,0.84,0.49,2.44,-4.83,23
4.69,-4.68,20.63,-4.15,6.54,4.79,2.75,-5.0,20.52,-0.54,-0.73,-0.05,-0.39,18.84,1.01,0.1,2.0,-6.2,23
2.91,-4.67,20.61,-0.88,12.94,5.86,2.35,-4.21,20.49,-0.29,1.07,0.44,-1.26,18.07,0.73,-3.03,2.88,-7.91,23
6.16,-3.05,19.84,-0.63,-11.72,-1.17,7.9,-2.44,19.24,-0.15,-3.27,-1.51,5.0,16.7,-5.35,-0.98,4.35,4.93,24
6.7,-2.89,19.82,-0.05,-2.1,0.05,7.37,-2.4,19.14,0.44,-3.22,-2.15,5.95,16.91,-5.24,0.2,1.12,1.71,24
6.68,-2.8,19.7,-1.03,-4.59,-1.12,7.41,-2.34,19.21,0.29,-0.73,-0.49,5.94,16.92,-4.96,-0.49,2.54,2.25,24
6.84,-2.7,19.96,0.54,-2.34,0.98,8.02,-2.34,19.24,-2.15,-0.34,0.63,5.74,17.09,-5.14,1.22,2.64,-1.12,24
6.7,-2.87,19.75,0.15,1.71,2.05,7.39,-2.48,19.08,-1.27,0.15,0.34,6.1,16.9,-5.09,0.05,1.56,0.05,24
6.53,-2.94,19.67,-0.15,-0.54,1.07,7.33,-2.56,19.15,-4.0,1.32,1.81,5.71,16.71,-4.95,0.73,2.69,-1.71,24
6.18,-2.63,19.66,-2.2,2.98,2.39,7.87,-2.79,19.28,-0.88,2.44,0.93,5.87,16.77,-5.0,-0.44,1.95,-0.88,24
6.27,-3.08,20.01,0.88,1.76,1.76,7.44,-2.67,19.26,-3.42,-0.83,0.39,5.9,17.29,-5.04,2.25,1.42,0.29,24
6.04,-3.08,19.77,-0.34,2.73,1.9,7.16,-2.64,19.25,-2.69,0.1,-0.15,5.68,16.62,-5.03,-0.39,0.73,-0.54,24
5.96,-3.28,19.97,-2.83,4.0,1.66,7.5,-2.88,19.49,-3.61,-0.63,0.15,6.04,17.08,-4.98,0.63,1.22,-1.12,24
6.03,-2.83,19.99,-0.49,4.69,1.66,6.99,-3.43,19.2,-8.5,-1.76,-1.66,5.86,16.79,-5.09,-0.73,1.07,-0.83,24
5.49,-3.73,20.16,-3.96,2.15,1.03,7.27,-2.99,19.31,0.24,1.46,0.49,5.61,16.94,-5.11,0.93,2.15,1.17,24
5.13,-3.48,20.12,0.34,0.44,0.83,7.06,-2.82,19.2,-0.49,2.54,0.15,5.6,16.76,-5.0,-0.93,1.42,-1.56,24
4.95,-2.93,20.12,0.98,1.37,1.12,7.21,-3.07,19.52,-0.68,4.88,1.66,5.79,16.95,-4.88,3.37,1.46,-0.88,24
5.45,-3.42,20.78,-0.78,4.83,3.08,6.54,-2.81,19.59,-3.03,14.65,5.03,5.57,17.99,-5.2,3.71,2.2,-4.49,24
4.29,-3.88,20.17,-6.98,13.82,4.98,6.06,-3.78,19.42,-6.64,5.71,5.81,5.42,17.49,-4.83,0.05,0.1,-9.28,24
4.09,-3.8,19.83,-0.78,6.79,4.39,5.72,-4.24,19.77,-3.66,9.91,4.98,4.4,16.03,-4.89,-3.32,-0.83,-6.2,24
3.23,-4.1,20.45,3.12,7.67,5.32,4.42,-3.83,20.08,4.69,17.53,6.1,4.23,16.84,-4.94,-1.86,0.49,-8.3,24
3.01,-3.89,20.97,6.84,11.33,6.49,3.66,-3.24,20.07,-0.39,9.81,4.83,4.18,18.05,-5.2,5.86,2.1,-8.06,24
1.46,-3.53,20.53,3.86,7.76,3.27,2.71,-3.49,19.72,-1.56,5.03,2.15,3.68,17.4,-5.21,3.22,0.93,-4.69,24
3.55,-3.62,20.97,1.42,1.46,-9.28,2.63,-3.25,20.29,2.83,12.84,-26.12,3.25,16.18,-5.72,-12.26,-11.62,0.44,25
3.08,-2.04,21.31,10.45,0.54,-17.33,2.34,-3.34,19.77,4.35,-1.56,-10.06,0.05,16.84,-7.27,-5.86,-10.01,1.37,25
2.42,-2.89,20.3,15.92,-4.25,-16.94,3.49,-3.54,21.27,-1.42,-3.27,-4.83,2.98,18.17,-3.98,11.67,-13.53,11.91,25
3.41,-2.19,22.12,12.55,-9.08,-4.64,3.65,-1.33,20.79,1.03,1.46,-7.13,1.41,17.05,-6.64,-2.44,10.01,3.81,25
3.31,-0.52,21.18,14.01,-1.22,-7.03,2.87,-2.18,20.26,-3.08,4.88,-10.6,3.88,16.25,-6.6,1.46,-5.86,6.4,25
3.03,-2.26,20.7,-3.17,7.37,-8.35,2.95,-2.73,20.35,-3.47,6.64,-7.81,4.26,17.63,-6.38,0.39,-8.45,-0.05,25
2.67,-2.22,21.09,-0.15,10.16,-10.55,2.75,-2.9,20.8,-3.52,4.39,-7.71,1.83,17.65,-6.88,4.1,-3.96,0.2,25
2.5,-1.73,21.36,0.73,7.52,-8.06,2.5,-2.84,20.59,-2.15,3.22,-3.96,2.5,16.15,-7.12,-6.45,-2.39,-0.49,25
2.19,-1.54,21.2,2.83,2.1,-6.25,2.15,-2.85,20.58,-1.56,3.27,-2.1,3.64,17.16,-6.61,0.44,-5.27,1.22,25
1.73,-2.27,21.35,1.46,3.37,-4.3,1.86,-2.61,20.36,-3.56,2.73,-2.98,3.48,17.05,-6.65,7.71,-6.2,0.39,25
1.24,-1.75,21.03,-1.86,4.59,-2.05,2.22,-2.49,20.93,-0.73,0.73,-3.17,2.98,16.5,-7.14,-2.59,-2.83,-3.91,25
1.32,-2.18,21.22,-2.0,0.83,-1.9,2.36,-2.77,20.88,-1.37,3.08,-3.37,3.0,17.23,-7.1,0.78,-1.46,0.34,25
1.62,-2.56,21.3,-0.0,2.64,-1.9,2.08,-2.94,20.59,-3.71,0.05,-4.98,3.47,17.22,-6.88,2.29,-1.51,-0.78,25
1.17,-2.12,20.78,-4.54,2.54,-3.37,2.57,-3.6,21.12,-0.88,-1.17,-2.88,3.42,16.85,-6.97,0.49,-4.25,0.15,25
1.56,-2.9,21.43,-1.27,-2.0,-2.44,2.61,-3.12,20.97,0.29,0.29,-0.24,3.02,17.05,-6.59,2.93,-0.54,4.93,25
1.86,-2.7,21.4,0.98,-2.54,-0.1,2.38,-2.8,20.99,-0.68,-1.07,-0.05,3.2,17.08,-6.95,-2.73,1.9,1.17,25
1.35,-2.13,21.44,-0.1,-1.42,0.68,1.98,-2.81,20.63,-0.2,0.73,-0.1,3.16,17.15,-7.04,0.83,2.54,0.34,25
1.16,-2.23,21.06,0.98,0.0,0.83,2.05,-2.91,20.93,0.1,1.61,0.34,3.21,16.93,-7.02,0.54,1.95,-0.83,25
1.33,-2.2,21.54,1.37,0.44,0.88,1.98,-2.92,20.77,-1.61,0.39,-0.1,2.89,17.38,-7.06,2.39,1.32,-0.29,25
1.19,-2.2,21.06,-1.22,0.34,0.73,1.8,-3.09,20.72,-0.34,0.15,0.34,2.83,16.74,-7.17,-1.71,1.61,-1.46,25
6.58,-2.35,19.99,1.61,-2.15,1.66,7.03,-1.99,19.52,-0.59,0.1,0.88,6.68,16.19,-4.8,-0.2,2.05,-0.2,26
6.2,-2.5,19.61,-0.78,-3.08,0.49,7.0,-2.25,19.29,-0.83,-3.17,-0.83,6.67,16.77,-4.42,1.81,1.12,-0.15,26
6.67,-2.6,19.93,-0.44,-2.73,0.83,7.23,-2.0,19.28,0.24,-0.34,0.39,6.56,16.24,-4.69,0.78,1.61,-0.59,26
6.88,-2.45,19.68,4.78,-10.45,-0.63,7.28,-1.7,19.08,4.69,-2.49,-0.63,6.68,16.09,-4.47,-0.05,1.61,1.07,26
7.23,-2.48,19.91,-0.93,0.15,0.88,7.57,-2.11,19.43,-1.27,-0.15,0.63,6.66,16.94,-4.67,0.78,1.71,-1.76,26
6.39,-2.37,19.37,-1.42,0.39,0.88,6.93,-2.02,18.87,-0.88,-0.34,-0.05,6.42,16.61,-4.81,0.73,2.2,0.59,26
6.83,-2.26,19.93,0.93,0.49,1.22,7.4,-1.82,19.34,0.24,0.39,0.29,6.89,17.08,-4.51,0.78,2.88,1.81,26
6.58,-2.38,19.56,-1.27,2.15,0.63,7.12,-2.03,18.96,-1.71,0.78,-0.2,6.79,16.57,-4.42,2.78,2.1,-0.2,26
6.69,-2.62,19.65,1.32,-1.17,0.83,7.44,-2.09,19.19,0.73,-0.73,-0.1,6.89,16.97,-4.65,2.88,1.46,0.2,26
7.13,-2.68,20.12,1.32,-0.93,-0.34,7.78,-2.27,19.69,0.59,0.68,-0.88,6.34,16.24,-4.68,-0.98,1.95,-0.24,26
6.19,-2.61,19.58,-0.63,0.49,0.68,6.95,-2.31,19.2,-1.61,-0.05,-0.15,6.84,16.5,-4.56,2.39,1.32,0.44,26
6.55,-2.52,19.7,-0.05,0.68,1.22,7.29,-2.14,19.27,-0.68,0.98,0.59,6.58,16.3,-4.83,-2.1,1.61,-0.93,26
6.69,-2.6,19.88,-0.63,-2.0,0.2,7.27,-2.2,19.38,-1.42,-2.15,-0.93,6.81,16.6,-4.58,1.51,1.61,-0.49,26
6.72,-2.37,19.9,-0.29,-0.98,1.27,7.32,-1.9,19.29,-0.54,-0.78,0.24,6.63,16.69,-4.86,1.46,1.95,-0.83,26
6.33,-2.39,19.55,-0.59,-0.34,1.07,6.95,-2.0,19.11,-0.59,0.73,-0.2,6.56,16.7,-4.76,3.03,-0.1,-4.15,26
7.0,-2.4,20.16,1.81,-2.15,0.83,7.26,-2.0,19.45,1.12,-0.88,-0.34,6.28,16.42,-4.99,-1.51,1.95,-8.64,26
6.28,-2.27,19.65,0.88,-0.44,1.66,7.25,-2.06,19.07,-0.0,-0.05,-0.1,5.46,17.02,-4.93,3.03,0.63,-9.28,26
6.3,-2.84,19.71,0.88,0.34,1.56,7.65,-2.43,19.26,-0.73,-0.39,-0.68,5.48,16.82,-5.11,4.15,2.2,-5.86,26
6.5,-1.98,19.84,1.27,-0.2,0.73,7.51,-2.1,19.4,0.05,0.73,-0.1,4.98,17.35,-4.9,0.59,4.64,-6.49,26
6.73,-2.25,20.03,0.44,-0.54,0.98,7.51,-2.18,19.51,0.1,0.29,-0.24,5.07,17.61,-4.99,4.44,2.29,-2.25,26
5.65,-1.84,19.7,4.69,-13.28,0.78,5.78,-2.04,19.73,1.27,-2.83,-0.24,4.45,17.22,-5.61,1.51,2.2,1.37,27
6.17,-1.77,20.11,-2.73,-1.66,1.27,6.68,-2.45,19.76,-1.32,-4.15,0.68,4.89,17.98,-5.71,1.12,2.0,0.34,27
6.32,-1.93,19.91,-1.66,-0.49,1.37,6.72,-2.88,19.68,-1.12,-4.1,-1.46,4.95,17.14,-5.61,1.12,0.78,0.63,27
6.56,-2.22,19.79,-0.98,-2.54,1.07,6.93,-2.66,19.45,2.39,-0.63,-0.1,4.82,17.22,-5.55,-0.49,2.49,0.93,27
6.71,-1.68,19.88,2.39,-3.22,0.68,6.73,-2.48,19.35,-0.93,-4.3,-0.63,4.68,17.4,-5.82,1.07,2.88,0.0,27
7.22,-2.16,19.82,-2.54,-0.83,0.49,7.12,-2.54,19.6,0.78,0.0,0.1,4.82,17.39,-5.71,1.95,1.51,-0.15,27
7.06,-2.05,19.8,0.93,0.1,1.37,6.64,-2.51,19.27,-0.49,-2.05,-1.37,4.86,17.01,-5.55,-0.83,2.1,-1.81,27
6.73,-2.18,19.58,1.37,-3.86,0.05,7.01,-2.45,19.35,1.32,-2.34,0.34,4.82,17.44,-5.5,4.2,2.25,1.17,27
7.4,-2.1,19.78,2.83,-4.0,1.61,6.68,-2.55,19.23,-0.0,0.0,0.29,4.73,17.39,-5.62,-0.1,3.52,1.07,27
7.13,-1.85,19.6,0.39,-1.17,0.54,7.25,-3.15,19.51,2.1,0.05,0.73,4.46,16.91,-5.53,2.39,2.88,0.44,27
7.04,-2.08,19.91,3.71,-2.05,1.71,7.04,-2.27,19.38,-2.3,-0.73,-0.44,4.88,17.49,-5.43,-1.9,0.78,-1.03,27
6.65,-1.84,19.44,-0.83,-0.39,0.73,6.94,-2.97,19.32,-1.32,-1.51,0.05,4.67,17.31,-5.56,2.29,1.95,0.49,27
6.92,-2.35,19.58,1.17,-3.08,0.68,6.9,-2.37,19.43,0.1,0.98,0.24,4.82,17.19,-5.41,2.1,2.83,1.07,27
7.24,-1.83,19.68,-0.15,0.0,1.22,6.82,-2.57,19.12,0.1,-1.56,-0.68,4.68,17.02,-5.59,-1.61,3.66,-0.54,27
7.03,-2.43,19.51,0.15,-3.03,0.63,7.52,-2.65,19.61,1.46,0.05,-0.24,4.53,17.38,-5.55,1.12,3.13,1.07,27
7.41,-1.62,19.78,2.69,0.78,1.56,6.93,-2.22,19.28,-1.47,0.1,-0.2,4.87,17.52,-5.57,1.27,1.51,-1.9,27
6.77,-2.13,19.45,-2.64,1.17,0.1,7.53,-2.63,19.64,-0.49,-2.73,-0.73,5.03,17.01,-5.44,3.37,-0.24,-0.1,27
7.36,-1.78,19.78,0.59,2.25,0.78,7.18,-2.57,19.42,0.78,1.66,0.24,4.93,17.0,-5.49,1.51,1.17,-1.46,27
6.97,-1.69,19.51,0.29,0.44,0.68,6.98,-2.68,19.24,-0.24,-1.56,-0.83,4.99,16.98,-5.43,2.49,1.17,-0.34,27
7.32,-2.56,19.77,1.17,-1.37,0.49,7.13,-2.37,19.37,-0.39,0.05,0.54,4.93,17.23,-5.43,5.22,2.05,0.39,27
4.68,-2.12,20.54,1.9,-3.71,2.1,7.02,-2.54,19.07,-0.2,0.83,0.68,3.93,16.97,-6.18,-0.29,1.51,0.63,28
5.0,-2.09,20.19,4.78,-3.66,1.46,7.1,-2.8,19.43,1.42,1.61,0.15,4.1,17.44,-5.95,-1.42,3.76,0.59,28
5.37,-1.82,20.33,1.86,-3.61,1.12,7.18,-2.42,19.33,-0.15,-0.1,-0.59,4.08,17.72,-6.01,0.88,2.44,-0.68,28
5.56,-1.67,19.91,3.17,-11.04,-0.44,7.01,-2.75,19.27,-0.29,0.39,-0.05,4.05,17.4,-5.93,3.47,1.07,2.1,28
6.76,-1.75,20.03,2.44,-12.65,0.44,6.91,-2.59,19.26,-0.39,2.25,0.78,3.99,16.73,-6.32,-2.39,2.34,0.78,28
6.52,-1.51,19.84,2.59,-4.49,0.24,7.77,-3.09,19.54,0.39,8.2,0.59,4.03,17.28,-6.11,0.24,3.22,0.1,28
7.06,-1.64,19.72,1.51,-11.23,3.08,6.67,-2.56,19.4,-1.22,3.56,0.88,4.11,17.44,-6.12,3.91,2.39,0.2,28
7.06,-1.51,19.6,-1.27,-3.71,0.34,6.3,-2.47,19.43,-2.78,3.27,0.1,4.4,17.11,-6.07,3.08,0.98,1.12,28
7.51,-1.64,19.83,-0.88,-9.37,0.54,6.46,-3.97,20.46,15.92,52.59,7.18,4.07,17.11,-5.99,-0.44,3.17,-0.73,28
7.71,-1.64,19.47,0.98,-0.68,0.68,2.54,-2.4,20.37,1.07,45.46,4.49,3.8,17.07,-6.14,0.49,3.56,-1.51,28
7.18,-1.88,19.28,-0.83,-1.37,1.12,0.33,-2.34,20.43,-1.27,24.9,-0.59,4.29,17.35,-5.94,0.63,2.44,0.59,28
7.4,-2.31,19.41,0.15,0.05,1.12,1.23,-2.5,20.58,1.12,7.18,0.78,4.15,17.2,-6.06,-1.76,2.2,-1.07,28
7.15,-1.6,19.41,0.93,-1.61,1.03,0.61,-2.57,21.52,3.56,7.42,1.03,4.1,17.13,-5.96,0.15,2.29,0.68,28
7.52,-1.7,19.49,1.03,-1.61,1.46,0.02,-2.2,20.96,-0.29,3.66,1.07,4.18,17.5,-5.95,-0.1,3.13,-0.93,28
7.3,-2.15,19.27,-0.73,-1.56,-0.05,-0.44,-2.54,20.55,-2.25,-2.78,-0.2,4.47,17.34,-5.96,3.22,2.39,0.63,28
7.35,-2.1,19.41,-0.15,-1.27,1.32,0.13,-2.4,21.35,-1.47,-0.44,2.73,4.33,17.36,-6.02,1.12,2.25,0.0,28
6.97,-1.82,19.18,0.2,0.34,1.32,0.12,-2.37,21.1,-0.2,1.12,-1.12,4.09,16.97,-5.9,-0.73,2.78,0.05,28
7.47,-1.78,19.6,1.17,-0.59,0.93,-0.0,-2.71,20.88,-0.49,-2.49,-0.59,4.47,17.73,-5.88,2.93,1.51,0.15,28
7.4,-1.59,19.43,1.37,-0.93,0.1,-0.04,-2.75,20.95,-1.76,-1.86,-0.24,4.0,16.73,-6.28,1.76,1.42,0.78,28
7.34,-2.01,19.55,-0.15,-0.15,0.93,0.24,-2.75,21.25,-0.05,1.27,0.29,4.2,16.84,-6.01,-0.2,1.27,-0.39,28
-8.03,2.66,20.2,4.93,-3.91,2.05,-7.3,0.55,20.47,2.88,-1.07,0.68,-2.1,15.84,-10.5,-4.39,0.98,0.39,29
-7.22,3.79,19.69,7.32,-14.7,2.44,-8.03,-0.45,19.38,-0.54,-7.42,-1.12,-1.53,16.03,-10.11,1.42,3.08,5.08,29
-7.62,3.16,19.81,1.56,-13.38,0.34,-7.78,-0.34,19.87,2.25,-18.12,-1.07,-1.17,16.16,-10.29,-2.98,3.03,1.76,29
-6.87,3.31,20.24,-1.86,-9.37,2.73,-5.86,0.07,21.14,0.88,-16.6,0.34,-1.35,15.78,-10.2,0.49,1.76,3.22,29
-5.45,3.51,20.3,-1.56,-7.81,1.42,-4.34,-0.16,20.93,0.39,-5.91,0.83,-1.19,16.42,-9.99,-2.98,4.69,2.83,29
-6.01,3.3,20.47,-0.34,2.29,1.51,-4.56,0.15,20.56,1.32,1.81,1.07,-0.72,16.27,-9.71,2.34,2.78,4.35,29
-5.84,3.55,19.96,-0.15,-8.45,0.73,-4.36,-0.16,20.96,-0.98,-5.76,-1.51,-0.78,16.42,-9.66,2.05,3.27,3.86,29
-6.23,3.82,20.23,2.0,-2.88,3.66,-4.35,0.1,21.06,0.83,-2.49,1.81,-0.75,16.07,-10.11,-3.76,5.62,1.07,29
-5.97,4.23,19.78,1.07,-2.98,1.86,-4.8,0.55,20.41,-0.05,-5.91,-0.29,0.09,17.2,-9.81,7.76,1.86,0.2,29
-5.5,3.04,20.32,-1.03,-17.53,1.9,-3.54,-0.44,21.12,2.34,-16.41,1.27,-0.37,16.05,-9.8,0.1,1.71,-0.93,29
-4.88,4.42,20.54,3.66,-2.44,2.2,-3.19,0.52,21.26,2.0,-4.25,0.29,-0.52,16.19,-9.74,1.46,0.49,-0.88,29
-4.28,3.92,20.55,0.68,-5.66,1.07,-3.19,0.12,20.99,0.73,-4.0,-0.39,-0.74,16.53,-9.77,2.93,2.05,-1.9,29
-4.26,3.8,20.47,0.63,-2.88,0.83,-3.07,-0.09,20.95,-0.39,-0.59,-0.54,-0.2,16.58,-9.62,-6.54,1.42,-3.76,29
-3.32,4.11,20.95,1.56,-16.75,2.34,-2.54,-0.27,21.03,-2.88,-5.18,-2.05,-0.5,16.72,-9.66,-0.63,3.52,0.44,29
-3.42,3.81,20.83,0.15,-0.49,0.73,-2.46,0.14,21.36,0.24,-1.46,-0.44,-0.43,16.78,-9.32,-1.42,2.29,0.93,29
-4.31,4.52,20.02,-4.0,0.15,-2.83,-2.87,0.31,20.59,-2.64,-2.49,-2.83,-0.56,17.73,-9.27,0.05,3.27,1.22,29
-2.67,1.85,21.64,-14.8,-20.21,0.73,-3.47,1.06,21.84,11.82,-8.69,5.42,-0.27,17.18,-9.3,-0.78,0.93,-3.71,29
-2.96,3.72,20.96,-1.76,0.68,0.59,-2.02,0.42,20.96,1.37,1.07,-0.2,-0.57,16.5,-9.29,-6.59,1.86,-1.56,29
-2.51,3.23,20.87,-0.15,-2.2,0.54,-1.92,0.42,21.03,-2.93,-4.15,-1.17,-1.18,16.82,-8.74,-2.73,1.37,0.78,29
-2.68,3.25,20.67,-0.59,-5.52,0.68,-1.86,0.45,20.83,-1.32,-4.88,-1.46,-0.93,17.75,-8.59,-7.62,-0.54,-2.15,29
2.68,0.06,21.03,-0.59,4.93,0.78,2.33,0.25,20.34,-2.73,7.03,1.22,0.53,17.07,-9.49,-1.37,3.08,-2.2,30
1.38,1.14,20.45,-8.4,3.52,-0.49,3.33,-0.94,20.48,-4.05,-9.08,-2.78,0.57,15.95,-9.15,-2.98,2.49,1.61,30
1.99,0.53,20.89,-0.39,-4.69,-1.03,3.47,-1.0,20.49,5.22,-5.52,0.1,1.0,17.1,-8.97,5.22,1.32,2.69,30
2.74,1.75,21.23,4.0,-8.84,2.1,3.97,-1.42,20.51,-0.93,-0.73,-0.15,0.4,15.9,-9.43,-0.78,2.73,0.68,30
3.04,1.03,21.08,1.9,-4.3,0.34,3.82,-1.33,20.35,1.07,0.73,-0.29,0.25,16.71,-9.31,0.2,2.2,-0.39,30
2.8,1.16,20.76,2.05,-3.96,0.78,3.93,-0.85,20.26,-2.49,-7.42,-0.73,0.4,16.15,-9.14,1.17,1.66,-0.44,30
3.1,1.0,20.64,-1.66,-7.23,0.88,4.52,-1.46,20.57,0.93,0.44,-0.59,0.31,15.92,-9.23,-5.57,1.42,1.03,30
3.31,1.19,20.83,2.34,-6.05,1.17,4.12,-0.87,20.31,0.39,-6.4,-0.34,0.7,17.32,-9.32,0.05,5.62,0.2,30
4.26,1.56,20.26,4.78,-16.89,1.9,5.23,-0.08,20.61,5.66,-5.03,0.63,0.97,16.58,-9.25,1.76,2.05,2.0,30
4.81,2.03,20.88,0.15,1.22,-0.83,5.14,-0.9,20.1,-1.37,-4.0,-1.03,0.59,16.8,-8.95,4.69,0.68,0.34,30
4.11,1.75,20.32,-0.15,-2.29,1.76,5.59,-0.01,20.32,0.93,-0.44,-0.68,0.85,16.16,-9.31,-0.54,2.73,0.78,30
3.85,1.25,20.31,-4.69,3.32,0.29,5.43,-1.26,20.06,0.24,-3.17,0.1,0.98,16.62,-9.08,2.29,1.32,-1.37,30
4.71,1.55,20.72,1.95,-0.34,1.42,4.76,-0.92,20.08,-1.17,2.34,-0.05,0.57,16.38,-9.4,0.2,2.1,-1.32,30
4.31,1.15,20.47,-0.93,2.05,1.51,4.83,-0.79,20.13,1.46,3.03,0.68,0.47,16.62,-9.3,-0.39,4.0,-1.66,30
3.75,1.74,20.24,-1.22,-3.27,0.24,5.57,-0.99,20.34,-2.69,-5.32,-1.22,0.94,16.45,-9.12,-0.24,1.37,1.66,30
4.39,1.33,20.71,2.34,-0.1,1.61,5.32,-0.42,19.99,0.88,-0.1,1.03,1.23,17.06,-9.04,2.0,0.63,-2.15,30
3.93,1.64,20.52,11.82,4.93,1.86,3.79,0.29,19.66,7.62,6.4,0.93,0.54,15.75,-9.34,1.03,-1.46,-0.59,30
3.86,1.69,20.58,-5.42,6.2,2.25,4.92,-1.21,20.48,-1.03,-0.63,-0.93,0.53,16.54,-9.22,-2.44,1.81,-2.54,30
4.17,2.3,20.78,3.37,-0.44,0.24,4.65,-0.99,20.17,-2.98,-2.83,0.2,0.65,16.64,-9.13,1.56,2.15,-0.44,30
3.74,1.85,20.44,2.0,-1.66,1.12,4.95,-0.65,20.26,1.32,-3.61,-1.07,0.79,16.24,-9.11,3.71,0.78,-0.34,30
-7.0,5.52,20.02,6.01,-7.23,2.0,-6.04,3.01,19.97,7.18,0.78,-3.03,-0.41,14.86,-12.25,-1.56,1.66,0.49,31
-6.93,4.96,19.28,12.01,-3.03,3.13,-6.69,3.43,20.09,2.49,-0.93,-1.95,-0.26,15.33,-12.05,-0.54,2.29,2.15,31
-6.76,6.36,19.7,12.06,-11.96,4.98,-6.65,3.08,20.01,0.49,-0.59,-0.88,0.44,15.32,-11.53,1.9,-0.29,-0.93,31
-6.56,6.01,19.53,8.45,-8.64,2.93,-6.42,3.4,19.76,1.86,1.27,-0.29,-0.11,14.98,-12.04,2.49,0.24,-0.54,31
-5.43,6.55,18.97,6.98,-8.54,2.59,-6.58,2.96,20.23,-0.05,-1.51,-0.68,-0.23,14.42,-12.0,0.15,2.69,1.51,31
-6.24,6.32,19.4,3.32,-13.33,1.95,-6.26,3.09,19.54,1.12,-0.29,1.07,0.13,14.99,-11.7,-0.0,1.56,-1.71,31
-4.63,7.35,19.64,5.37,0.1,3.27,-6.04,3.42,20.01,-0.44,-0.59,-0.05,-0.34,14.79,-12.27,6.79,0.54,0.29,31
-5.17,6.72,19.11,-0.15,0.39,1.27,-6.28,3.4,20.06,1.61,-2.1,0.1,-0.0,14.2,-11.79,-1.32,0.29,0.54,31
-5.07,7.21,19.47,3.61,-3.86,0.98,-6.47,3.6,19.6,0.73,-1.51,0.98,-0.16,15.19,-11.87,2.59,2.54,-0.24,31
-4.39,6.79,19.14,-1.66,-2.2,1.07,-6.28,3.69,20.04,2.15,-4.93,0.78,-0.18,14.08,-11.86,1.81,0.93,1.76,31
-5.24,7.33,19.42,1.9,-4.3,0.63,-3.91,4.17,20.16,1.51,-7.86,-0.2,0.32,14.52,-11.87,-1.66,-0.15,1.03,31
-5.42,6.13,19.21,2.88,-2.0,-0.34,-6.4,3.59,19.69,1.22,-9.33,-1.76,0.1,14.29,-12.04,4.69,2.54,6.15,31
-4.9,6.67,19.04,-4.59,-17.29,0.88,-5.45,3.99,20.02,1.81,-22.56,1.22,0.64,14.46,-11.83,-4.2,4.15,3.91,31
-2.88,7.36,20.06,-4.69,-1.12,-2.25,-2.74,3.56,20.77,-2.05,-7.91,-1.9,0.24,14.27,-11.72,-0.59,0.05,0.93,31
-3.02,7.81,20.04,-2.93,-5.62,-0.2,-3.66,3.67,20.71,-9.18,-24.85,-0.34,0.39,15.47,-12.12,-2.44,3.96,2.0,31
-3.0,5.57,20.18,-6.3,-5.18,0.44,-2.91,3.17,20.49,-1.61,-3.42,0.93,0.67,14.3,-11.84,-2.64,1.27,0.73,31
-3.51,6.06,20.15,-5.08,-5.96,3.22,-1.98,3.0,20.96,-9.03,-2.88,2.39,0.77,15.39,-11.66,-6.74,5.22,0.15,31
-3.56,5.76,19.79,-12.6,-2.49,4.59,-1.88,2.5,20.62,-7.52,-8.35,2.93,0.83,15.11,-11.48,-13.62,7.71,-2.25,31
-3.52,5.09,19.86,-6.15,-7.28,0.39,-1.65,2.62,20.84,-6.15,-16.16,0.39,1.31,15.22,-10.79,2.25,2.0,2.88,31
-1.98,5.27,21.23,-9.28,-8.79,-0.98,0.06,1.78,21.49,-11.43,-10.35,4.83,1.56,15.28,-10.52,-5.37,0.29,0.34,31
6.35,1.35,19.67,4.98,-13.62,0.05,5.58,-1.23,20.54,-1.76,-6.79,-0.68,3.29,16.37,-8.53,-3.86,3.91,1.07,32
6.86,0.93,19.39,-0.73,-4.64,0.39,5.64,-1.19,20.34,3.56,-2.29,-0.68,3.47,16.54,-8.41,3.32,2.1,2.2,32
7.8,1.43,19.52,4.49,-7.52,1.56,5.68,-0.66,20.38,-1.03,-3.86,0.0,3.41,16.22,-8.51,-2.49,2.83,-0.59,32
7.6,1.25,19.28,1.22,-3.03,0.24,5.46,-1.0,20.08,0.15,-0.63,-0.05,3.85,16.52,-8.2,0.39,2.2,-0.1,32
7.25,1.02,19.19,-2.0,4.05,1.56,6.18,-1.19,20.47,-2.64,2.69,1.32,3.57,17.02,-8.38,3.86,1.71,-5.42,32
6.85,0.93,19.33,0.05,12.79,2.49,5.48,-1.14,20.18,-5.27,5.66,0.78,3.02,15.58,-8.29,-2.2,1.71,-3.27,32
7.22,1.07,19.99,-1.07,39.79,-0.73,3.95,-1.61,20.34,0.63,25.49,1.12,3.54,17.06,-8.3,2.59,-0.39,0.88,32
4.29,1.13,20.57,3.47,18.12,2.49,2.55,-0.86,20.07,1.76,15.63,0.93,3.32,16.29,-7.88,5.42,-0.29,-7.86,32
2.85,0.89,20.77,0.59,22.75,5.47,3.03,-0.97,20.5,-0.0,8.5,2.73,3.58,16.21,-8.23,2.44,-3.17,1.95,32
1.77,0.63,20.54,-0.29,10.89,2.59,2.36,-0.04,20.8,1.37,4.88,-0.88,2.96,15.48,-8.65,-4.54,1.03,0.49,32
1.05,1.44,20.63,-6.98,12.89,0.29,3.23,-0.91,20.78,-5.27,-7.42,-0.24,2.55,15.82,-8.28,-2.49,3.17,1.61,32
1.94,0.58,21.03,2.1,2.15,1.9,2.16,-0.41,20.44,1.61,-2.39,2.64,3.34,16.33,-8.53,-3.86,4.05,0.93,32
2.29,1.0,21.38,-2.93,-0.59,2.39,2.98,-0.03,21.32,3.22,0.73,2.93,3.32,16.68,-8.49,4.59,3.08,-0.83,32
1.42,1.15,21.45,-7.47,12.26,3.22,2.79,-1.18,20.88,-0.0,7.71,7.32,3.34,16.52,-8.3,-0.59,3.03,-3.52,32
0.98,0.07,21.2,6.35,18.46,9.77,1.52,-0.87,20.62,3.52,15.14,3.71,3.02,15.8,-8.74,0.98,0.63,-3.22,32
-0.52,0.97,20.86,1.32,1.76,-0.44,2.05,-0.99,20.93,-2.44,-0.39,0.15,2.8,16.9,-8.52,6.45,2.83,0.0,32
0.05,0.62,21.51,4.93,0.88,0.54,1.78,-1.06,20.8,0.39,-0.24,1.03,3.25,16.65,-8.33,1.76,2.29,-1.22,32
0.58,1.76,21.53,4.83,-6.01,-0.05,2.12,-0.72,21.16,-2.3,-2.39,-0.44,2.87,16.48,-8.9,4.93,-1.81,-1.71,32
0.33,1.27,21.16,3.22,-5.86,-0.83,2.09,-0.99,21.19,-2.25,-4.39,-0.49,2.23,16.49,-8.68,-1.12,2.29,0.78,32
0.1,0.54,21.17,-2.25,0.2,0.49,1.6,-0.51,20.82,0.63,-2.15,0.73,1.85,16.7,-9.21,-2.05,2.88,-1.46,32
4.53,-0.62,20.46,8.2,-5.66,-1.66,4.83,-1.34,19.53,0.63,-2.78,-2.78,0.43,18.99,-0.36,-6.05,0.0,2.83,33
4.75,-2.35,20.81,4.54,-2.88,-1.32,6.03,-2.52,20.17,2.78,1.71,-1.86,-0.85,22.06,-0.05,-3.08,6.05,-4.1,33
4.08,-1.9,19.96,3.86,1.12,1.46,5.55,-2.22,19.8,2.2,5.08,-1.17,0.76,19.31,-0.25,-9.18,1.76,-2.15,33
4.34,-1.22,20.79,2.59,-2.0,0.49,5.73,-1.67,20.44,-2.73,-1.37,-3.47,0.81,19.07,0.17,-11.33,1.22,-1.42,33
4.32,-2.76,20.5,-7.37,6.01,-1.03,5.81,-2.23,20.11,1.81,2.69,2.88,0.53,19.15,0.24,4.44,2.34,-0.54,33
4.45,-1.87,20.55,3.12,-2.93,1.42,5.66,-1.85,19.94,3.42,1.37,0.88,0.53,19.42,0.32,-1.47,2.39,-1.56,33
3.94,-2.14,20.54,1.17,-0.29,3.91,5.21,-2.27,20.2,1.07,0.29,3.61,0.31,19.54,0.62,-2.83,2.59,-0.73,33
4.11,-1.77,20.71,2.0,-1.42,1.51,5.27,-2.18,20.16,1.12,0.24,0.2,0.42,19.32,0.55,-0.1,2.29,-1.22,33
3.91,-1.91,20.62,2.15,-0.24,1.12,5.18,-2.12,20.05,1.37,0.68,-0.29,0.37,19.55,0.84,-2.98,2.44,-1.61,33
4.25,-1.84,20.47,2.98,-3.96,0.44,5.0,-2.06,19.95,2.1,-2.73,-0.83,0.45,19.35,1.14,-11.77,3.96,-3.66,33
4.35,-1.14,21.13,5.62,1.03,0.93,5.34,-1.35,20.42,2.93,1.07,-1.95,0.34,19.26,1.61,-2.59,3.96,-2.25,33
4.57,-1.2,21.02,5.76,-0.88,1.12,5.49,-1.3,20.44,3.08,1.17,0.15,-0.11,19.26,1.96,2.59,4.88,-3.27,33
3.67,-1.06,20.25,7.08,0.24,0.88,4.67,-1.34,19.87,4.3,1.42,0.29,-0.39,19.52,1.51,2.1,3.13,-3.17,33
4.46,-0.76,21.14,2.93,1.95,1.61,5.15,-1.14,20.42,1.37,3.37,0.29,-0.22,19.11,1.67,4.49,2.78,-1.46,33
3.83,-0.5,21.03,5.52,4.15,1.76,4.55,-1.05,20.32,3.56,3.91,0.39,-0.7,19.43,1.61,5.13,3.81,-2.15,33
3.29,-0.61,20.61,3.66,-0.05,2.05,4.2,-0.92,19.87,4.05,3.08,0.39,-0.69,19.49,1.34,-0.1,3.13,-2.25,33
3.48,-0.55,20.97,-4.3,3.76,0.98,4.81,-1.42,20.6,-2.34,2.54,1.71,-0.84,19.44,1.43,4.15,4.05,-1.9,33
3.52,-0.35,21.11,2.39,2.69,3.17,4.77,-1.04,20.6,-0.59,4.15,2.88,-0.31,19.4,1.38,6.01,3.81,-2.0,33
2.9,-0.32,20.97,1.07,0.34,2.54,4.12,-0.68,20.43,-1.27,1.61,2.64,-0.8,19.4,0.96,4.3,4.0,-0.73,33
3.0,-0.6,20.84,0.73,0.1,2.15,4.17,-0.74,20.14,-0.1,7.23,1.86,-0.51,19.71,0.55,12.6,3.96,-1.51,33
5.94,-0.23,19.92,3.71,-3.22,1.86,6.77,-0.51,19.72,-3.81,-9.62,-1.03,-0.89,19.45,2.06,-3.71,1.81,-0.73,34
5.91,-0.04,19.62,3.95,-12.4,-0.24,6.91,-0.43,19.26,-1.22,-10.01,-1.71,-0.7,19.26,2.19,-1.71,1.9,0.54,34
6.45,-0.75,19.5,3.22,-8.5,0.34,6.69,-0.34,18.92,3.71,-9.37,0.15,-0.76,19.33,2.17,-1.47,1.03,-0.29,34
7.26,-0.65,19.17,0.88,-34.28,1.46,7.62,0.01,19.04,4.54,-2.78,1.51,-0.66,19.32,2.3,-1.37,1.42,0.05,34
6.52,-0.52,18.73,-1.81,12.21,0.54,7.51,-0.98,18.84,-2.05,3.03,-0.54,-0.82,19.43,2.3,1.71,1.95,-0.49,34
8.28,-0.36,19.58,1.27,5.27,1.37,7.7,-0.17,18.9,2.59,-0.34,0.98,-0.86,19.45,2.29,1.03,2.0,-0.49,34
8.27,-0.78,19.89,-0.44,-5.03,1.17,7.99,-0.97,18.98,0.15,2.05,0.54,-0.76,19.32,2.47,3.56,2.25,-0.44,34
7.09,-0.69,19.71,-1.95,-0.49,0.54,7.71,-1.24,19.08,-1.76,0.88,-0.15,-0.78,19.33,2.37,1.37,1.71,-0.39,34
7.18,-0.55,19.74,-2.54,-0.24,0.73,7.87,-1.22,19.31,-3.47,0.98,-0.68,-0.75,19.31,2.47,-0.29,1.86,-0.24,34
7.26,-0.42,19.82,1.32,1.03,1.12,8.55,-0.66,19.77,-3.32,1.56,-0.24,-0.78,19.28,2.23,0.44,2.29,-0.49,34
6.45,-0.8,19.56,3.66,14.11,2.73,7.03,-0.91,18.73,1.9,11.28,1.81,-0.89,19.48,2.13,5.66,3.66,-0.78,34
6.15,-0.92,20.31,0.78,13.92,2.64,6.92,-1.02,19.5,0.29,13.23,1.66,-0.91,19.44,2.27,5.86,2.34,-0.68,34
4.92,-0.71,20.13,0.34,2.83,1.12,6.56,-0.94,19.82,0.1,3.86,0.29,-0.89,19.43,2.02,0.54,2.2,-0.54,34
5.02,-0.54,20.31,2.1,6.2,1.32,5.62,-0.75,19.64,0.68,4.2,-0.29,-0.92,19.45,2.04,1.56,2.49,-0.49,34
5.06,-0.56,20.73,-1.17,1.95,1.37,6.78,-0.93,20.09,-1.9,3.08,-0.05,-0.85,19.27,2.05,1.12,1.56,-0.2,34
4.92,-0.3,20.56,-0.15,-1.32,0.49,6.48,-0.87,20.09,-1.37,0.1,0.0,-0.57,19.22,2.0,-0.1,1.12,-0.29,34
4.71,-0.51,20.65,-0.05,3.03,1.07,5.8,-0.74,20.02,-0.78,2.93,-0.24,-0.88,19.47,1.87,0.49,2.59,-0.83,34
4.74,-0.32,20.74,1.32,0.44,1.12,5.94,-0.65,20.04,-0.29,2.2,0.05,-0.94,19.41,1.78,2.1,2.29,-0.59,34
4.42,-0.49,20.53,1.76,1.07,1.9,6.05,-0.56,20.06,0.88,3.27,1.27,-0.72,19.41,1.85,3.61,2.15,-0.63,34
3.77,-0.45,20.28,0.93,4.44,1.71,4.98,-0.49,19.71,0.54,3.37,0.93,-0.88,19.39,1.64,2.88,2.69,-0.39,34
4.96,-0.36,20.58,4.88,-2.78,2.0,4.71,0.57,20.38,1.22,-0.78,-0.78,-0.37,18.41,7.34,1.42,1.95,-0.1,35
4.83,-0.09,20.52,2.05,-1.61,0.73,4.62,0.5,20.26,0.49,-0.68,-0.29,-0.38,18.45,7.2,0.88,2.73,-0.29,35
4.91,-0.21,20.42,2.59,-2.69,0.59,4.67,0.68,20.33,0.83,-0.98,-0.29,-0.25,18.34,7.24,1.22,3.56,0.15,35
4.99,-0.16,20.32,1.71,-2.0,0.29,4.66,0.82,20.24,1.61,-1.51,0.2,-0.37,18.39,7.33,1.51,2.78,-0.29,35
5.15,0.22,20.32,1.22,-1.46,0.54,4.72,0.61,20.24,-0.0,-0.34,-0.34,-0.24,18.15,7.28,0.05,2.29,0.2,35
5.03,-0.18,20.36,-0.2,-1.03,1.07,4.77,0.88,20.18,0.49,-0.05,0.24,-0.32,18.34,7.27,0.15,2.25,-0.2,35
5.04,0.19,20.35,1.61,-0.88,1.03,4.73,0.82,20.25,-0.54,-0.1,-0.2,-0.28,18.28,7.23,0.34,2.59,-0.39,35
5.06,0.04,20.33,0.34,-0.78,0.73,4.76,0.88,20.17,-0.05,-0.05,0.24,-0.3,18.29,7.26,1.42,2.83,-0.34,35
5.06,0.08,20.36,0.98,-1.03,0.68,4.78,0.94,20.16,-0.54,-0.1,-0.1,-0.22,18.23,7.23,0.2,1.86,-0.39,35
5.13,0.18,20.4,0.98,-1.42,0.88,4.87,0.95,20.02,-0.54,-0.15,0.0,-0.25,18.28,7.25,1.17,2.25,-0.44,35
5.03,0.22,20.44,1.07,-0.93,0.93,4.76,1.14,20.1,-0.59,-0.24,-0.05,-0.35,18.4,7.24,0.1,1.51,-0.39,35
5.02,0.03,20.37,1.12,-1.22,0.73,4.84,1.09,20.1,-0.05,-0.24,0.05,-0.33,18.41,7.26,1.17,2.29,-0.44,35
5.04,0.12,20.35,1.61,-1.17,0.73,4.81,1.11,20.11,-0.1,-0.2,-0.1,-0.26,18.31,7.22,0.98,1.86,-0.39,35
5.07,0.06,20.29,0.88,-1.03,0.98,4.78,1.06,20.18,-0.24,-0.05,0.1,-0.27,18.26,7.25,0.44,1.76,-0.29,35
5.12,-0.01,20.25,0.34,-0.78,1.03,4.77,1.01,20.1,-0.29,-0.1,0.0,-0.41,18.31,7.41,1.17,2.88,0.0,35
5.02,-0.0,20.36,0.29,-0.98,0.78,4.79,0.98,20.14,-0.0,-0.15,-0.1,-0.26,18.19,7.23,1.12,1.9,-0.29,35
5.08,-0.07,20.32,0.2,-0.88,0.88,4.76,0.88,20.09,-0.1,-0.2,0.05,-0.36,18.35,7.32,1.03,1.86,-0.59,35
5.11,0.07,20.32,0.39,-0.78,0.93,4.77,0.91,20.12,-0.49,-0.24,-0.1,-0.31,18.3,7.3,0.93,2.2,-0.39,35
5.13,0.02,20.3,0.44,-1.03,0.73,4.77,0.94,20.11,-0.1,-0.2,0.0,-0.33,18.33,7.27,0.78,1.95,-0.39,35
5.11,-0.12,20.32,0.24,-1.03,0.88,4.76,0.91,20.06,-0.05,-0.15,-0.05,-0.34,18.29,7.35,0.59,1.81,-0.49,35
4.0,0.85,20.83,1.03,1.95,-1.32,4.19,0.15,20.39,0.34,-0.34,0.34,-0.19,18.22,7.74,-3.96,-0.24,1.95,36
4.05,0.07,20.74,-0.15,0.29,0.93,4.15,0.12,20.4,0.05,-0.15,0.1,-0.03,17.99,8.04,0.39,2.39,-0.24,36
4.14,0.34,20.5,-2.39,1.12,0.24,4.2,0.14,20.37,-1.27,-1.42,0.34,-0.03,18.06,7.99,0.34,1.81,0.1,36
3.74,0.46,20.7,0.39,1.17,-1.95,4.48,0.24,20.07,-1.07,-1.56,0.54,-0.51,18.35,8.01,-13.38,-1.81,-1.76,36
4.04,-0.04,20.51,0.29,0.83,-1.07,4.39,0.18,20.36,0.54,0.29,-0.15,-0.05,18.05,8.11,0.49,1.76,-0.05,36
3.35,0.09,20.81,-0.68,0.2,0.54,4.24,0.17,20.41,0.49,0.44,-0.05,-0.01,18.08,8.2,0.88,1.66,-0.49,36
3.39,0.15,20.83,-0.05,-0.49,1.32,4.5,0.21,20.31,-0.54,-0.05,0.05,0.04,17.95,8.2,0.83,2.05,-0.29,36
3.76,0.14,20.81,1.37,-1.66,1.27,4.28,0.25,20.37,-0.59,-0.24,-0.24,-0.0,18.01,8.12,0.88,2.1,-0.59,36
3.58,0.07,20.9,-0.54,-0.78,0.73,4.21,0.23,20.44,-0.0,0.15,0.05,0.01,17.96,8.11,1.12,2.44,-0.49,36
3.58,0.28,21.06,0.29,-0.78,1.07,4.49,0.19,20.28,-0.39,-0.24,-0.05,0.07,17.88,8.24,0.83,1.95,-0.44,36
3.88,0.19,20.72,0.73,-2.0,1.46,4.22,0.15,20.36,-0.44,-0.29,-0.2,0.01,17.95,8.04,1.07,2.34,-0.63,36
3.59,0.16,20.63,1.12,-1.71,1.22,4.24,0.13,20.4,-0.39,0.2,0.0,0.2,17.77,8.56,-0.0,-0.24,-1.03,36
3.69,-0.02,20.79,-0.0,-0.93,0.98,4.45,0.11,20.28,-0.59,-0.24,0.05,-0.03,18.05,8.11,1.22,1.71,-0.68,36
3.79,0.02,20.6,1.22,-1.46,0.93,4.16,0.07,20.47,-0.54,-0.15,-0.29,-0.05,18.03,8.1,0.98,1.86,-0.49,36
3.69,0.03,20.84,0.29,-1.07,1.03,4.35,0.14,20.35,0.1,-0.1,0.0,-0.2,18.26,8.11,0.98,2.1,-0.49,36
3.64,-0.06,20.69,0.05,-1.07,1.22,4.35,0.14,20.33,-0.39,-0.34,-0.05,0.01,17.96,8.12,0.63,2.05,-0.29,36
3.76,-0.16,20.71,0.24,-1.27,1.27,4.22,0.15,20.35,-0.2,-0.1,-0.1,-0.17,18.15,8.1,1.07,2.2,-0.63,36
3.67,-0.13,20.93,-4.15,-5.18,5.86,4.36,0.16,20.26,-0.29,-0.1,0.0,-0.13,18.17,8.12,0.98,0.15,-1.42,36
4.22,-0.3,20.77,0.24,-10.11,0.0,4.31,0.14,20.3,-0.34,-0.15,-0.1,-0.28,18.13,8.17,0.88,-1.32,-3.47,36
4.62,-0.17,20.53,-0.15,-2.59,1.71,4.27,0.16,20.35,-0.78,0.0,-0.2,-0.11,17.92,8.04,1.03,-0.05,-2.59,36
2.53,5.16,20.36,-22.56,1.61,7.96,3.25,0.18,21.03,-44.34,-0.68,6.88,0.46,16.57,7.77,-12.16,-0.63,6.88,37
1.52,3.37,21.62,-17.77,-4.0,12.01,1.54,-1.09,21.82,-44.92,0.29,6.4,-0.49,18.36,8.67,-3.32,-0.63,0.1,37
2.21,0.4,21.84,14.36,-16.6,7.03,3.59,2.28,21.22,-8.2,-10.5,6.35,-0.57,18.4,7.87,5.96,5.96,-3.91,37
4.15,-1.09,19.55,6.1,-21.0,-3.47,4.08,0.91,18.96,12.21,-6.05,3.47,-0.86,18.41,7.81,5.13,6.3,-2.64,37
4.06,-0.46,20.29,-1.51,0.68,1.81,4.18,0.35,20.2,7.23,1.81,-1.12,-1.08,18.16,7.86,1.22,2.05,-0.78,37
3.95,0.33,20.39,-0.39,3.52,1.81,3.83,0.84,20.42,5.03,2.15,-0.59,-0.97,18.01,7.76,-0.49,0.83,-0.2,37
4.12,-0.42,20.33,-3.47,0.73,0.59,4.08,2.0,20.27,7.62,1.03,-0.34,-0.74,18.13,7.66,1.27,2.05,-0.54,37
3.83,-0.33,20.98,-2.1,2.83,-0.63,4.17,1.75,20.03,7.03,0.83,0.1,-0.74,18.17,7.72,1.32,1.95,-0.59,37
3.44,0.17,20.86,0.34,1.81,1.03,3.85,1.13,20.34,1.37,0.88,-1.03,-0.9,18.13,7.8,0.78,1.86,-0.2,37
3.66,0.65,20.73,-0.54,2.78,1.56,3.55,0.52,20.16,-0.2,3.17,-1.07,-1.01,18.1,8.05,0.54,1.56,0.2,37
3.38,1.07,20.62,2.73,4.35,-1.86,3.32,1.16,20.26,0.63,3.86,-1.32,-0.88,18.23,7.9,0.49,0.98,-0.2,37
3.06,1.32,20.73,4.64,3.86,-2.2,3.22,1.86,20.67,1.12,4.74,-1.17,-0.77,18.12,7.86,0.63,1.17,-0.2,37
2.73,1.36,20.85,4.98,4.39,-2.2,2.91,2.03,20.8,0.2,4.64,-0.98,-0.9,18.19,7.95,0.73,1.07,-0.24,37
2.44,1.46,20.64,2.34,1.81,-0.68,2.59,1.74,20.45,0.2,1.22,-1.42,-1.16,18.05,7.86,0.2,0.88,0.24,37
2.72,1.05,21.16,-0.2,-0.2,0.83,3.14,1.6,20.62,-0.2,-0.05,0.1,-0.81,18.27,7.92,1.51,2.2,-0.78,37
2.4,1.71,20.83,-0.05,-1.46,1.9,2.53,1.64,20.52,-4.05,0.59,0.93,-0.77,17.94,7.91,0.83,2.34,-0.44,37
2.18,2.0,20.5,-2.98,-5.37,5.22,3.92,1.2,20.75,-8.06,-0.2,1.22,-0.78,17.8,7.78,1.03,2.64,-1.12,37
1.46,2.76,21.39,-5.37,-13.13,9.47,3.55,0.58,20.78,-9.67,-0.93,-0.15,-1.06,18.07,7.75,2.93,5.66,-1.46,37
2.48,2.15,22.07,-1.37,-11.72,8.84,3.86,1.78,19.92,-6.64,-15.23,5.18,-0.91,18.23,7.82,3.52,5.27,-1.71,37
4.21,0.94,20.27,5.32,-7.96,2.05,4.17,1.55,20.0,0.93,-4.3,2.0,-0.97,18.13,7.94,0.54,3.47,0.93,37
2.82,3.01,20.52,6.74,-1.42,0.78,3.37,1.29,20.34,-1.32,-0.15,0.15,-0.98,18.22,7.5,-0.54,1.81,0.68,38
3.12,3.4,20.32,-2.64,-2.2,4.64,3.32,0.98,20.45,-1.32,-0.2,0.29,-1.12,18.44,7.28,-3.66,1.95,2.73,38
3.19,3.58,20.33,-23.19,-1.81,9.57,3.3,0.93,20.51,-2.25,0.39,0.0,-0.18,17.55,7.77,-6.15,0.15,6.15,38
3.25,-1.12,20.86,-34.28,-7.28,9.28,3.25,1.05,20.49,-2.05,0.49,-0.1,-0.26,17.95,8.25,-0.29,1.61,0.59,38
3.19,0.29,21.15,-11.82,-2.73,2.73,2.59,1.28,19.82,1.46,0.49,-0.2,-0.59,17.99,8.3,0.29,2.2,0.68,38
3.67,-1.08,20.53,-2.83,-2.2,1.51,3.28,1.13,20.84,-0.05,-0.78,-0.39,-0.38,17.85,8.22,0.93,2.34,-0.2,38
3.7,-0.79,20.83,0.24,-0.29,0.98,3.26,0.94,20.73,-2.2,-0.05,0.34,-0.35,17.66,8.19,3.27,3.71,-2.15,38
3.9,-0.88,20.56,7.13,0.0,-1.42,3.61,0.69,20.29,-6.49,-1.42,1.37,-0.53,18.0,8.08,2.2,2.54,-1.51,38
3.47,0.58,20.82,6.79,0.88,-1.22,3.36,0.03,20.71,-1.76,-0.2,-0.49,-0.51,17.93,8.13,1.12,2.0,-0.49,38
3.71,-0.32,20.65,5.71,1.46,-1.66,3.31,0.54,20.68,0.05,0.15,-0.05,-0.73,18.07,8.11,1.42,2.0,-0.83,38
3.32,0.16,20.77,4.83,0.54,-0.93,3.31,0.5,20.5,-0.93,-0.29,-0.15,-0.51,17.97,8.03,0.73,1.95,-0.05,38
3.28,0.55,20.75,4.83,0.68,-0.63,3.3,0.36,20.64,-0.24,-0.2,-0.05,-0.72,18.04,8.05,1.22,2.05,-0.63,38
3.31,0.89,20.67,5.32,-0.44,-0.24,3.36,0.66,20.5,-0.1,0.1,-0.05,-0.69,18.11,8.0,1.03,2.15,-0.44,38
3.13,0.75,20.66,2.05,-1.32,1.03,3.23,0.54,20.72,-0.54,0.1,0.2,-0.71,18.08,8.06,1.32,2.69,-0.39,38
3.12,1.25,20.81,3.32,0.78,-0.49,3.27,0.51,20.4,-1.76,-0.39,0.29,-0.71,18.11,7.93,0.98,1.56,-0.54,38
2.81,0.89,20.89,0.78,0.2,0.1,3.39,0.39,20.52,-0.88,-0.34,-0.05,-0.64,18.16,7.96,0.73,1.66,-0.34,38
2.97,1.32,20.78,-1.17,-0.15,1.17,3.45,0.53,20.48,-1.12,-0.15,0.29,-0.76,18.12,7.88,0.73,2.15,-0.15,38
3.0,0.75,20.9,-2.05,-0.78,1.37,3.41,0.4,20.49,0.34,-0.29,0.15,-0.74,18.08,7.88,0.39,2.0,-0.05,38
2.94,0.88,20.94,-0.24,-0.73,1.32,3.37,0.26,20.58,-0.1,-0.05,0.15,-0.69,18.06,7.97,0.83,2.0,-0.29,38
3.07,0.78,20.89,0.2,-0.78,1.07,3.34,0.18,20.49,-0.63,-0.24,0.29,-0.75,18.02,7.97,0.93,2.05,-0.54,38
5.71,-5.31,19.64,-0.49,-0.93,1.03,6.33,-3.71,19.54,-0.29,-0.05,-0.05,-0.45,18.2,7.66,0.98,1.95,-0.34,39
5.71,-5.23,19.67,0.49,-0.59,0.98,6.31,-3.67,19.53,-0.24,-0.05,0.05,-0.41,18.16,7.65,0.68,1.76,-0.29,39
5.75,-5.26,19.67,0.98,-0.68,0.98,6.3,-3.71,19.53,-0.49,-0.15,0.05,-0.48,18.19,7.64,0.49,2.0,-0.05,39
5.79,-5.33,19.62,0.49,-0.73,1.07,6.3,-3.72,19.57,-0.49,0.0,0.1,-0.48,18.19,7.69,0.83,2.1,-0.1,39
5.65,-5.4,19.67,-0.15,-0.54,0.93,6.31,-3.77,19.54,-0.49,-0.15,0.05,-0.55,18.14,7.7,0.63,1.95,-0.15,39
5.7,-5.42,19.65,-0.24,-0.88,1.03,6.28,-3.64,19.5,-0.49,-0.1,-0.05,-0.43,18.15,7.71,0.78,1.9,-0.29,39
5.7,-5.34,19.64,-0.1,-0.78,1.03,6.29,-3.68,19.59,-0.24,-0.05,0.15,-0.4,18.24,7.8,0.54,2.1,-0.05,39
5.71,-5.39,19.75,0.29,-0.73,1.12,6.31,-3.72,19.52,-0.49,-0.15,0.24,-0.41,18.19,7.67,0.93,2.05,-0.15,39
5.73,-5.49,19.58,-0.1,-0.98,1.07,6.24,-3.79,19.56,-0.39,-0.05,0.1,-0.46,18.23,7.68,0.83,2.0,-0.24,39
5.71,-5.4,19.65,0.49,-0.63,1.03,6.26,-3.71,19.53,-0.1,-0.15,0.15,-0.51,18.22,7.69,0.73,2.0,-0.24,39
5.72,-5.4,19.69,0.34,-0.68,0.98,6.27,-3.77,19.53,-0.1,-0.1,0.05,-0.43,18.19,7.71,0.78,2.0,-0.24,39
5.76,-5.34,19.67,0.44,-0.83,0.98,6.35,-3.77,19.58,-0.15,-0.15,0.05,-0.32,18.32,7.78,0.73,2.15,-0.44,39
5.68,-5.26,19.65,0.49,-0.73,0.98,6.24,-3.74,19.53,-0.15,0.0,0.0,-0.38,17.98,7.79,0.44,2.05,-0.15,39
5.67,-5.26,19.7,0.1,-1.07,0.98,6.32,-3.81,19.52,-0.54,-0.15,0.15,-0.38,18.13,7.73,1.17,2.44,-0.1,39
5.65,-5.37,19.64,1.07,-0.54,0.98,6.25,-3.77,19.53,-0.29,-0.1,0.15,-0.47,18.13,7.69,0.49,1.95,-0.24,39
5.69,-5.42,19.67,0.83,-0.78,0.88,6.27,-3.86,19.53,-0.39,-0.24,0.05,-0.39,18.2,7.72,0.93,1.86,-0.29,39
5.75,-5.46,19.65,0.78,-0.88,0.93,6.22,-3.82,19.52,-0.49,-0.15,0.1,-0.43,18.21,7.69,0.78,2.0,-0.1,39
5.75,-5.48,19.68,0.83,-0.93,0.98,6.3,-3.78,19.47,-0.39,-0.1,0.0,-0.45,18.18,7.74,0.63,2.2,-0.15,39
5.69,-5.45,19.62,0.83,-0.88,1.03,6.3,-3.72,19.48,-0.29,-0.15,0.1,-0.45,18.17,7.73,0.63,2.0,-0.15,39
5.69,-5.41,19.68,0.2,-0.73,1.03,6.28,-3.84,19.5,-0.34,-0.05,0.0,-0.37,18.12,7.64,1.27,2.39,-0.1,39
6.21,-0.41,19.48,-1.07,-15.33,-1.86,6.92,-1.45,19.93,-5.42,-16.26,1.66,-0.54,18.61,7.02,7.32,3.17,-1.76,40
7.11,-1.09,19.6,-5.03,-15.62,0.54,7.52,-1.78,18.95,-3.47,-12.89,1.76,-0.82,18.61,6.91,6.01,3.76,-0.39,40
7.49,-0.68,19.03,-1.27,2.73,5.76,7.51,-1.48,17.77,-0.68,3.81,-0.05,-1.01,18.96,6.89,-2.98,-3.76,-0.78,40
5.74,0.72,21.18,4.2,37.21,7.08,5.44,0.36,20.6,18.75,30.71,0.44,-0.74,18.14,7.67,1.03,1.07,-0.59,40
4.94,-0.15,21.14,3.47,4.49,1.71,5.66,0.91,20.67,0.39,5.13,0.93,-0.65,18.38,7.44,0.44,3.52,0.2,40
4.86,-2.33,20.53,-1.37,-2.05,1.71,6.25,-0.7,20.1,-2.05,-1.56,1.86,-0.54,18.15,7.61,0.54,2.1,-0.34,40
5.0,-3.32,20.39,-6.84,-1.03,0.05,6.65,-2.1,19.93,-6.1,-2.64,-0.78,-0.57,18.26,7.66,0.93,1.9,-0.29,40
5.16,-2.43,20.24,-5.52,-0.78,1.46,6.13,-1.21,19.92,-0.39,0.54,1.12,-0.58,18.22,7.71,0.63,2.64,0.1,40
5.14,-1.65,20.36,-4.79,-1.32,1.32,5.68,-0.93,19.81,-3.13,-0.34,0.93,-0.59,18.19,7.67,0.63,2.49,0.05,40
5.27,-1.59,20.38,-2.15,-1.81,1.61,6.02,-1.33,19.85,-2.93,-0.2,0.78,-0.49,18.17,7.63,0.88,2.98,0.15,40
5.37,-1.87,20.19,-0.78,-1.42,1.81,4.96,0.11,19.56,-4.69,-1.27,0.2,-0.52,18.18,7.67,0.59,2.0,-0.1,40
5.29,-2.51,20.3,-0.59,-1.07,1.76,6.01,-1.34,19.81,0.34,0.05,0.83,-0.57,18.19,7.67,0.78,2.44,0.0,40
5.28,-3.06,20.26,-2.83,-1.07,1.37,5.95,-2.42,19.85,-8.15,-1.37,-0.05,-0.56,18.23,7.72,0.78,2.15,-0.15,40
5.24,-3.25,20.3,-5.62,-1.27,0.83,6.45,-2.68,19.84,-4.93,-1.46,0.29,-0.54,18.08,7.88,0.83,2.0,-0.24,40
5.25,-3.2,20.34,-6.05,-0.78,0.83,6.14,-1.83,19.79,-3.61,-1.12,0.2,-0.63,18.14,7.87,0.88,2.25,-0.15,40
5.32,-2.93,20.31,-4.2,-0.93,0.59,6.3,-2.41,19.84,-1.47,-0.34,0.05,-0.6,18.17,7.79,0.88,2.29,-0.2,40
5.4,-2.39,20.27,0.68,-1.07,1.03,6.25,-1.79,19.72,0.2,-0.2,0.0,-0.59,18.25,7.71,0.73,2.0,-0.15,40
5.3,-2.36,20.28,2.49,-0.68,1.12,6.17,-1.85,19.71,-0.34,-0.05,-0.15,-0.54,18.19,7.7,0.83,2.05,-0.24,40
5.36,-3.22,20.18,2.44,-1.07,-0.59,6.27,-2.51,19.82,-0.29,-0.83,-0.78,-0.53,18.18,7.71,1.07,1.95,-0.49,40
5.36,-3.41,20.18,-0.63,-0.88,0.59,6.22,-2.21,19.73,0.15,-0.2,-0.05,-0.57,18.24,7.71,0.88,2.05,-0.29,40
4.04,-3.53,20.41,1.12,-3.61,0.44,4.89,-2.34,20.19,0.78,-1.51,-0.1,-1.31,18.48,7.1,0.78,1.37,0.2,41
4.12,-2.77,20.43,1.37,-3.52,1.42,5.0,-2.61,20.4,-3.42,-3.56,0.1,-1.08,18.54,7.11,-0.83,1.71,2.44,41
4.27,-3.68,20.16,-0.98,-3.52,1.81,5.31,-2.98,20.56,-0.2,-2.93,0.05,-0.89,18.14,7.35,0.05,1.51,0.63,41
4.79,-2.83,20.08,2.44,-6.64,0.49,5.54,-3.03,19.75,-5.18,-3.61,-1.12,-0.99,18.32,7.23,1.32,2.15,-0.44,41
4.81,-2.58,19.42,3.47,-8.54,-2.93,5.78,-2.73,19.16,-3.03,-2.73,-0.1,-0.99,18.31,7.23,0.63,2.98,-0.59,41
4.85,-3.77,21.77,2.44,-0.73,-0.29,5.46,-2.79,19.91,2.1,-0.54,0.73,-1.19,18.81,7.19,2.25,2.73,-1.66,41
4.83,-3.44,20.22,0.78,-0.39,1.9,5.47,-3.11,19.86,0.54,0.98,0.15,-1.08,18.26,7.23,0.88,2.25,-0.54,41
4.82,-3.58,20.25,-1.47,-0.15,1.56,5.5,-3.04,19.93,0.24,0.63,0.15,-1.16,18.31,7.25,0.93,2.05,-0.54,41
4.72,-3.43,20.47,0.49,-0.24,0.88,5.34,-2.95,20.07,0.05,0.24,-0.24,-1.05,18.34,7.2,0.78,1.61,-0.44,41
4.74,-3.59,20.44,0.34,-0.54,0.93,5.35,-3.04,20.03,0.2,0.0,0.0,-1.15,18.4,7.22,1.03,2.05,-0.49,41
4.72,-3.55,20.37,0.15,-0.59,0.93,5.36,-3.05,19.97,-0.44,0.05,-0.05,-1.05,18.36,7.27,0.88,1.95,-0.39,41
4.64,-3.38,20.34,1.03,-0.54,1.03,5.29,-2.9,19.98,0.2,0.2,0.05,-1.15,18.33,7.23,0.83,1.95,-0.39,41
4.75,-3.23,20.38,0.93,-0.49,1.12,5.32,-2.76,19.93,0.29,0.29,0.24,-1.15,18.34,7.21,0.83,2.05,-0.34,41
4.74,-3.29,20.35,1.37,-0.68,1.12,5.31,-2.84,20.02,0.73,0.24,0.2,-1.14,18.37,7.24,0.93,2.0,-0.54,41
4.67,-3.43,20.34,1.22,-0.54,1.03,5.28,-2.96,20.01,0.39,0.24,0.15,-1.18,18.41,7.17,0.93,2.0,-0.59,41
4.8,-3.47,20.3,1.22,-0.59,0.88,5.36,-2.88,20.01,0.49,0.05,0.05,-1.07,18.32,7.25,0.83,2.05,-0.49,41
4.64,-3.55,20.4,0.39,-0.34,1.07,5.22,-3.05,20.02,0.1,0.15,0.15,-1.26,18.46,7.26,1.07,1.27,-0.78,41
4.75,-3.35,20.33,-0.93,-0.15,0.93,5.3,-2.91,19.94,-1.32,0.29,0.05,-1.18,18.38,7.19,1.22,1.66,-1.07,41
4.63,-3.56,20.34,-0.39,-0.2,0.24,5.25,-2.91,20.0,-0.88,0.39,-0.63,-1.0,18.21,7.16,0.98,-0.29,-1.66,41
4.41,-2.9,20.49,5.27,1.81,0.59,5.04,-2.27,20.07,3.76,2.15,0.05,-1.24,18.38,7.09,1.61,0.98,-1.9,41
6.22,-2.03,19.66,-2.49,-3.17,0.98,7.21,-1.61,19.92,9.72,2.44,1.71,-1.57,18.53,6.67,1.12,2.25,-0.2,42
6.37,-1.97,19.93,-0.39,-2.34,0.78,6.66,-2.52,19.23,3.08,1.76,0.68,-1.51,18.5,6.67,0.83,2.59,0.0,42
6.35,-2.28,20.14,-2.2,-0.98,1.51,6.46,-2.87,19.65,-0.78,3.71,0.73,-1.55,18.52,6.73,1.37,2.59,0.0,42
6.24,-2.51,19.7,2.2,-1.27,4.44,6.29,-2.66,19.51,-0.73,1.37,0.59,-1.57,18.55,6.62,-0.39,1.56,-0.54,42
6.28,-2.52,20.18,-5.66,1.95,0.68,6.35,-2.86,19.79,0.29,1.66,-0.05,-1.53,18.54,6.69,0.59,2.0,-0.34,42
6.31,-2.2,20.34,-0.2,2.0,2.1,6.15,-2.92,19.66,1.07,1.22,0.0,-1.49,18.5,6.65,-0.44,1.76,0.54,42
6.06,-3.07,19.75,-1.47,2.64,1.56,6.24,-2.69,19.69,0.88,1.81,0.29,-1.4,18.56,6.76,-0.05,1.12,-0.54,42
6.01,-2.84,19.94,-2.05,1.12,1.9,5.99,-2.81,19.94,-0.59,1.86,0.24,-1.57,18.58,6.95,0.1,0.24,-1.03,42
5.79,-2.64,20.01,0.83,0.93,1.56,6.05,-2.61,19.76,-0.83,1.32,0.39,-1.51,18.41,6.96,0.34,1.07,-0.49,42
5.83,-2.79,20.11,1.46,1.46,1.37,5.89,-2.62,19.87,-1.22,1.07,-0.29,-1.43,18.38,6.96,0.15,0.29,-0.68,42
5.62,-2.86,20.11,1.27,2.2,1.46,5.44,-3.25,19.7,-0.1,5.86,-3.52,-1.51,18.52,6.92,0.59,0.05,-0.88,42
5.43,-3.06,20.18,0.98,0.68,1.07,5.65,-3.65,19.9,-1.95,4.25,-1.86,-1.48,18.48,6.95,0.54,0.88,-0.44,42
5.23,-3.46,20.23,-1.51,1.37,0.39,5.36,-2.84,19.77,-2.34,2.78,0.68,-1.44,18.48,6.89,0.88,0.63,-0.83,42
5.5,-3.28,19.73,-5.52,4.64,0.05,4.96,-3.03,19.83,0.15,4.1,1.03,-1.35,18.19,7.0,-0.54,-2.44,-1.32,42
4.67,-1.85,20.33,7.08,3.66,0.68,4.9,-2.19,20.07,2.15,3.42,0.49,-1.55,18.38,7.12,0.39,1.71,0.29,42
4.34,-2.61,20.46,6.2,5.32,1.12,4.63,-1.99,20.07,-1.66,1.22,1.17,-1.63,18.31,7.08,-0.54,2.54,1.17,42
4.38,-3.01,20.71,4.0,3.32,3.56,4.63,-1.89,20.35,0.2,2.15,-0.2,-1.28,18.44,7.03,-0.0,2.15,0.68,42
3.65,-3.72,20.54,3.56,4.98,1.46,4.15,-2.34,20.63,0.68,4.64,-1.32,-1.44,18.49,7.06,0.39,2.25,0.63,42
3.53,-3.39,20.92,-0.15,2.83,1.61,4.32,-1.81,20.8,0.54,3.32,0.68,-1.26,18.43,7.13,-0.34,5.52,2.78,42
3.34,-3.79,20.97,4.44,2.54,1.22,4.08,-1.72,20.32,-2.39,-0.34,-0.39,-1.28,18.45,7.22,1.07,1.37,-0.63,42
6.09,-2.67,19.85,-2.78,-2.44,1.51,6.3,-2.77,19.62,3.71,4.3,-0.83,-1.32,18.38,7.01,0.73,2.0,-0.24,43
5.91,-2.82,20.29,-1.32,7.42,2.73,5.95,-3.05,19.96,1.22,1.37,-2.2,-1.34,18.39,6.95,0.73,1.95,-0.24,43
5.54,-2.19,20.27,2.54,5.37,0.93,6.06,-2.42,19.83,-0.15,-1.22,-0.59,-1.33,18.4,7.02,1.61,0.93,-1.51,43
5.31,-2.11,20.49,10.11,-0.78,-0.29,6.11,-2.13,19.8,-0.54,0.24,-0.15,-1.36,18.33,7.01,1.07,1.61,-0.63,43
5.25,-3.01,20.27,2.29,-0.34,-0.05,5.98,-2.25,19.77,-0.73,0.88,0.39,-1.42,18.43,6.95,0.78,1.95,-0.54,43
5.23,-2.77,20.21,-1.9,0.2,0.34,5.94,-2.09,19.85,-0.83,0.15,0.1,-1.4,18.4,6.97,0.88,1.81,-0.44,43
5.17,-2.91,20.4,-2.1,-0.34,0.78,5.98,-2.22,19.77,-1.37,0.05,0.1,-1.47,18.51,6.95,0.83,1.42,-0.54,43
5.18,-2.75,20.39,-0.44,-0.73,0.49,5.95,-2.0,19.77,-0.0,-0.05,0.05,-1.44,18.39,7.07,0.73,0.63,-0.73,43
5.1,-2.68,20.44,-1.03,-0.63,0.59,5.91,-2.24,19.79,-0.78,-0.2,0.15,-1.48,18.45,6.94,0.73,0.49,-0.83,43
5.16,-2.44,20.23,1.32,-0.73,0.83,5.91,-2.84,19.8,-1.07,0.34,0.15,-1.46,18.45,6.95,1.12,0.59,-1.22,43
5.24,-1.85,20.06,0.1,-1.22,2.49,5.95,-2.55,19.88,-1.27,-0.15,0.0,-1.47,18.41,7.0,0.78,1.51,-0.63,43
5.16,-1.92,20.31,2.54,-1.07,1.56,5.88,-2.33,19.77,-0.1,-0.05,0.15,-1.59,18.41,7.09,0.73,0.68,-0.73,43
5.1,-2.18,20.33,2.54,-0.59,0.73,5.93,-2.42,19.83,-1.12,-0.2,-0.05,-1.32,18.33,7.04,-0.59,0.39,0.05,43
5.2,-2.33,20.31,1.81,-0.68,0.78,5.92,-2.35,19.86,-0.39,0.29,0.1,-1.48,18.44,7.09,0.59,2.98,0.49,43
5.14,-2.48,20.32,0.88,-0.39,0.88,6.21,-2.32,19.76,-1.12,1.27,0.63,-1.18,18.4,6.78,0.05,1.07,0.29,43
5.17,-2.33,20.35,0.39,0.2,1.22,5.89,-2.29,19.8,-0.59,1.12,0.15,-1.3,18.42,7.1,1.32,1.86,-1.12,43
5.09,-2.14,20.33,2.64,0.54,0.93,5.73,-2.43,19.83,0.93,1.32,-0.59,-1.14,18.19,7.1,1.03,2.34,-0.24,43
5.08,-2.48,20.35,0.39,0.49,0.73,5.6,-2.54,19.84,-1.42,1.17,0.2,-1.53,18.76,6.96,2.29,3.96,-1.17,43
4.84,-2.42,20.5,-2.73,1.71,1.76,5.49,-2.66,19.83,-1.9,2.44,-0.05,-1.53,18.51,7.02,1.66,6.3,0.59,43
4.9,-2.27,20.4,-1.66,2.88,2.25,5.31,-2.43,20.36,1.71,5.03,1.56,-1.11,18.14,7.14,1.22,5.62,1.12,43
6.24,-3.74,19.6,7.08,-0.49,6.4,6.45,-3.53,19.7,1.46,2.1,1.95,-1.1,18.32,6.98,0.1,1.76,0.73,44
5.94,-4.84,19.86,0.63,0.1,3.08,6.5,-3.71,19.81,-7.18,-0.05,1.61,-1.05,18.83,6.84,-0.78,0.49,4.2,44
5.97,-6.28,19.62,-22.46,-1.27,4.69,6.76,-5.73,19.39,-35.79,-10.74,1.03,-0.78,18.11,7.42,-3.22,-0.98,8.25,44
6.13,-6.53,19.04,-14.84,-2.1,3.32,6.64,-5.22,19.06,-4.35,-0.54,0.98,-0.54,18.52,7.19,0.15,1.03,3.13,44
6.17,-6.96,19.0,-5.57,-0.68,0.98,6.81,-5.4,19.0,1.42,0.73,-1.32,-0.43,18.4,7.32,0.93,2.44,-1.27,44
6.14,-6.55,19.22,7.76,2.15,-1.03,6.81,-4.93,19.06,1.37,0.63,-0.83,-0.48,18.11,7.35,-2.25,0.2,-0.59,44
6.04,-6.07,19.46,3.52,1.07,-0.2,6.74,-5.03,19.09,1.61,0.68,-1.03,-0.61,18.33,7.54,0.24,1.66,-0.83,44
5.89,-5.85,19.56,6.3,1.32,-0.73,6.8,-5.36,19.27,4.49,0.98,-3.56,-0.59,18.34,7.34,0.63,2.29,-0.49,44
5.78,-4.9,19.84,17.77,1.61,-1.07,6.83,-5.53,19.4,3.66,2.93,-3.22,-0.63,18.29,7.53,-0.39,1.95,-0.2,44
5.78,-5.46,19.6,18.31,3.42,-3.27,6.6,-3.32,19.43,17.19,3.96,-4.3,-0.98,18.33,7.75,-0.05,2.0,-1.07,44
5.41,-3.53,20.13,15.33,2.64,-4.69,6.41,-2.13,19.31,15.04,2.2,-5.18,-0.96,18.29,7.68,1.32,1.61,-1.32,44
5.43,-3.21,20.47,10.16,1.07,-4.83,6.05,-1.93,19.68,1.07,-0.34,-2.1,0.68,17.29,6.45,-4.98,-8.01,0.88,44
5.54,-2.02,20.21,1.66,-0.34,1.27,6.28,-2.23,19.61,1.22,0.39,0.29,-1.51,18.47,6.86,0.24,1.95,0.0,44
5.25,-1.74,20.35,2.34,-0.15,2.54,6.43,-3.27,19.93,-3.81,-0.98,0.24,-1.41,18.7,6.74,-0.59,1.9,1.03,44
5.46,-2.9,20.22,5.76,-0.78,2.2,6.29,-3.27,19.75,-2.44,-0.29,0.78,-1.24,18.63,6.73,-0.54,1.9,0.78,44
5.37,-3.26,20.22,3.86,-0.54,2.0,6.07,-2.42,19.7,0.78,0.29,0.2,-1.45,18.43,7.0,0.73,2.15,-0.1,44
5.26,-3.16,20.26,1.71,-0.49,0.49,6.19,-2.76,19.74,0.39,0.2,-1.22,-1.55,18.54,7.02,1.46,2.1,-0.88,44
5.43,-2.83,19.97,4.1,2.59,-0.83,5.85,-2.22,19.77,1.9,1.22,-1.32,-1.31,18.47,6.87,1.03,-0.34,-1.81,44
5.46,-3.19,20.28,-3.52,6.98,-0.15,5.75,-1.62,20.14,4.54,3.13,-1.46,-1.35,18.32,6.88,-0.78,-2.1,0.1,44
4.87,-2.85,20.51,-3.56,0.1,0.49,5.8,-1.78,19.86,-0.05,0.44,0.68,-1.53,18.48,6.89,0.73,1.27,-0.49,44
7.43,-6.02,18.41,17.92,19.04,-1.66,8.33,-4.78,18.13,14.84,14.26,-3.66,2.4,17.76,7.6,-13.77,4.44,-17.14,45
6.54,-5.05,19.37,26.51,17.43,-0.54,7.68,-3.92,18.93,24.85,14.06,-2.2,2.25,17.62,8.18,-7.67,10.25,-15.23,45
4.71,-4.0,21.43,10.79,16.46,3.08,6.17,-2.77,20.48,9.72,14.6,0.29,1.32,17.1,8.61,-9.33,2.59,-0.93,45
5.13,-5.2,20.03,-7.13,0.63,3.22,6.57,-4.07,19.69,-5.27,1.42,2.44,1.2,17.42,8.96,0.44,2.44,-0.2,45
5.28,-6.19,19.82,2.73,-0.05,-1.71,6.3,-4.44,19.59,1.03,-2.15,-3.03,1.33,17.38,9.01,1.42,2.39,0.15,45
5.05,-4.62,20.01,24.32,-2.0,-7.37,6.63,-3.85,19.96,22.12,-1.56,-9.18,1.41,17.7,8.69,0.98,1.51,-0.93,45
5.64,-1.62,20.31,15.67,-0.29,-4.74,6.32,-0.03,19.25,18.99,-0.39,-8.45,1.24,17.37,8.52,-0.54,0.78,-0.88,45
5.2,-2.08,20.66,-13.28,-1.37,5.18,6.01,-0.46,19.77,-7.57,0.83,3.22,1.11,17.61,8.83,-2.2,-0.34,-1.03,45
5.27,-3.35,20.01,-19.63,-0.73,8.79,6.07,-1.62,19.54,-19.53,0.05,6.98,1.46,17.58,8.93,-0.1,4.05,0.83,45
5.06,-4.4,20.11,-13.67,-0.15,6.54,6.62,-2.78,19.83,-7.47,4.1,7.18,1.07,17.44,9.18,0.2,5.32,0.73,45
5.35,-3.81,19.89,3.17,0.2,1.27,6.11,-2.86,19.6,1.37,1.22,0.63,1.34,17.2,9.04,-0.0,2.05,-0.49,45
4.85,-4.25,20.19,1.27,1.03,-0.24,5.87,-2.87,19.9,-1.37,1.56,-0.59,1.14,17.37,9.15,0.98,2.59,-0.24,45
4.97,-3.43,20.2,1.81,0.34,0.34,5.95,-2.47,19.74,-0.0,0.34,-0.88,1.15,17.42,8.91,0.54,2.59,0.0,45
5.06,-3.82,20.22,-1.37,-0.83,1.76,5.93,-2.63,19.84,-0.78,0.34,0.88,1.35,17.32,9.05,0.63,2.1,-0.2,45
4.85,-4.27,20.19,-2.2,-1.07,2.0,5.67,-2.86,19.86,-1.61,0.83,1.27,1.27,17.43,9.02,0.39,1.27,-0.49,45
4.93,-4.19,20.09,-2.1,-0.78,1.71,6.01,-2.51,19.78,-3.08,-1.66,1.12,1.18,17.53,9.0,0.59,0.59,-1.03,45
5.0,-4.2,20.06,-0.44,-1.12,1.56,5.81,-3.01,19.89,-0.2,-0.2,0.34,1.59,17.51,8.9,0.98,-0.2,-1.17,45
4.81,-4.61,20.12,1.27,-0.29,0.39,5.82,-3.25,19.86,-0.59,-0.1,-0.15,1.23,17.23,9.14,0.88,1.86,-0.34,45
4.94,-4.5,19.97,3.42,0.73,-1.46,5.97,-2.8,19.7,1.17,0.0,-1.71,1.21,17.22,9.13,1.42,2.2,-0.29,45
4.87,-3.88,20.28,2.69,1.12,-2.29,5.75,-2.45,19.87,2.83,-0.44,-3.37,1.15,17.43,9.12,0.98,1.81,-0.24,45
4.38,-4.35,20.33,0.49,-1.07,0.98,5.55,-2.61,19.97,-0.98,-0.2,0.0,1.21,17.4,9.02,1.03,2.98,0.2,46
4.22,-4.39,20.37,0.24,-0.83,0.78,5.61,-2.44,19.98,-0.29,-0.2,0.0,1.24,17.35,9.04,0.78,2.05,-0.29,46
4.36,-4.37,20.31,0.15,-0.78,0.98,5.46,-2.51,20.0,-0.44,-0.24,0.2,1.22,17.43,9.04,0.78,2.1,-0.24,46
4.32,-4.44,20.34,0.2,-0.88,1.03,5.63,-2.54,19.92,-0.88,-0.2,-0.15,1.28,17.45,8.93,-0.2,-1.12,-1.81,46
4.29,-4.38,20.36,0.49,-0.68,0.98,5.53,-2.62,19.99,-0.54,-0.24,-0.2,0.76,17.42,9.17,0.98,3.71,0.83,46
4.46,-4.36,20.28,0.2,-0.78,0.73,5.5,-2.56,19.99,-0.83,-0.2,-0.05,1.21,17.3,9.17,0.88,2.44,0.0,46
4.29,-4.5,20.37,-0.0,-0.59,0.54,5.55,-2.49,19.89,-0.44,-0.2,-0.34,1.17,17.36,9.12,0.83,2.15,-0.24,46
4.43,-4.28,20.32,-0.24,-0.68,1.03,5.43,-2.66,20.01,0.05,-0.1,-0.34,1.26,17.36,9.1,0.68,2.1,-0.2,46
4.37,-4.33,20.38,-0.1,-0.78,0.68,5.62,-2.56,19.84,-0.0,-0.15,0.2,1.23,17.32,9.08,0.78,2.05,-0.24,46
4.39,-4.16,20.4,0.88,-1.42,2.05,5.62,-2.53,19.95,-0.15,-0.78,2.54,1.2,17.35,9.07,0.59,1.42,-0.49,46
4.26,-4.81,20.39,-0.44,-1.17,1.76,5.54,-2.74,19.89,-1.61,-0.98,0.83,1.27,17.31,9.09,0.73,1.95,-0.24,46
4.54,-4.5,20.26,0.73,-1.66,0.98,5.64,-2.76,19.9,-0.93,-0.78,0.15,1.3,17.39,9.04,1.22,3.56,0.39,46
4.34,-4.53,20.35,0.05,-0.68,0.73,5.69,-2.74,19.94,-0.88,-0.2,0.0,1.29,17.36,9.07,0.78,2.1,-0.39,46
4.45,-4.55,20.3,0.05,-0.73,0.98,5.58,-2.78,19.95,-0.73,-0.2,0.2,1.1,17.38,9.17,0.88,2.34,-0.05,46
4.56,-4.56,20.17,0.34,-1.17,0.98,5.65,-2.67,19.94,-0.24,-0.05,0.1,1.18,17.32,8.93,0.88,2.34,-0.1,46
4.38,-4.6,20.24,-0.0,-0.88,1.07,5.6,-2.75,19.91,-0.29,-0.1,0.0,1.26,17.32,8.98,0.59,2.05,-0.2,46
4.41,-4.58,20.25,-0.24,-0.44,0.83,5.57,-2.95,19.97,-0.83,0.1,-0.93,1.21,17.34,8.94,0.78,1.71,-0.34,46
4.46,-4.46,20.25,-0.34,-0.98,0.63,5.71,-2.81,19.9,-0.63,-0.05,-0.15,1.23,17.35,9.04,0.63,0.98,-0.68,46
4.41,-4.49,20.32,0.05,-0.59,1.46,5.5,-3.02,19.96,-1.32,-0.1,0.24,1.31,17.35,9.03,0.44,1.46,-0.54,46
4.47,-4.58,20.29,0.73,-0.59,0.63,5.66,-2.72,19.87,-0.2,-0.1,-0.29,1.21,17.37,9.03,0.63,1.66,-0.34,46
4.93,-4.91,20.22,13.09,2.88,-1.42,6.12,-2.88,19.69,1.42,0.1,-1.9,1.04,17.31,9.17,-0.05,2.88,-0.15,47
5.05,-4.14,20.14,4.15,0.24,-0.59,6.17,-2.98,19.82,-0.49,0.05,-0.34,1.24,17.38,9.02,0.05,1.71,-0.39,47
5.0,-4.52,20.21,-1.61,-0.39,0.59,6.01,-3.03,19.83,-1.07,0.1,0.05,1.21,17.49,8.94,1.61,2.29,-0.2,47
4.88,-4.38,20.2,-2.93,-0.73,0.93,6.07,-2.81,19.75,-0.59,0.0,0.24,1.21,17.39,9.0,0.98,2.49,-0.05,47
4.96,-4.02,20.2,-1.03,-0.78,1.03,6.03,-2.94,19.79,-0.73,-0.29,-0.1,1.15,17.46,9.04,0.88,2.05,-0.29,47
4.95,-4.18,20.15,-0.49,-0.88,0.83,6.09,-2.82,19.72,-0.24,-0.15,-0.2,1.26,17.41,9.01,0.78,2.15,-0.24,47
5.0,-4.17,20.18,0.49,-0.73,0.88,6.06,-2.86,19.73,-0.1,-0.05,-0.1,1.19,17.42,9.05,-0.29,0.68,-0.83,47
4.99,-4.12,20.18,0.59,-0.68,0.93,6.08,-2.82,19.7,-0.34,-0.1,-0.05,1.18,17.4,9.07,0.39,1.56,-0.44,47
4.97,-4.15,20.21,0.44,-0.73,0.98,6.01,-2.85,19.74,-0.34,0.0,0.0,1.23,17.39,9.08,0.78,1.81,-0.34,47
4.91,-4.22,20.24,0.29,-0.63,1.07,6.06,-2.77,19.67,0.2,0.05,0.05,1.2,17.39,9.06,0.98,2.2,-0.15,47
4.99,-4.14,20.2,1.17,-0.88,0.88,6.05,-2.77,19.69,0.15,0.1,0.05,1.2,17.39,9.11,0.68,2.0,-0.2,47
4.97,-4.13,20.16,1.17,-0.83,0.93,5.96,-2.91,19.78,-0.2,0.0,0.2,1.23,17.39,9.02,0.78,2.05,-0.15,47
4.89,-4.27,20.22,0.44,-0.68,1.22,6.11,-2.86,19.74,-0.24,-0.34,0.34,1.19,17.41,9.05,0.78,1.95,-0.29,47
5.0,-4.29,20.14,-0.0,-1.07,1.07,6.04,-2.92,19.72,-0.83,0.1,-0.39,1.25,17.36,9.06,0.83,1.86,-0.24,47
4.95,-4.31,20.14,0.1,-0.59,0.73,5.98,-2.84,20.02,-0.59,0.54,-0.15,1.26,17.41,9.09,0.49,1.46,-0.54,47
4.74,-4.27,20.1,0.1,0.0,0.59,5.99,-3.1,19.95,-1.81,0.2,-0.2,1.17,18.51,9.38,1.07,1.86,-0.39,47
4.88,-4.47,20.01,-1.9,0.59,1.03,5.81,-3.33,19.94,-1.12,-0.49,-0.2,1.31,17.34,9.11,0.73,1.51,-0.39,47
4.64,-4.63,20.02,-0.93,-0.49,0.54,6.01,-2.98,19.85,-1.27,0.1,-0.24,1.24,17.4,9.18,0.73,1.95,-0.1,47
4.64,-4.47,20.12,-0.93,-0.2,0.88,6.11,-2.71,19.73,0.63,-0.1,0.0,1.07,17.42,9.11,0.59,2.0,-0.29,47
4.89,-4.11,20.09,0.93,-0.39,1.12,5.84,-2.77,19.91,0.78,0.24,-0.29,1.19,17.32,9.18,0.68,1.27,-0.49,47
7.45,-6.61,19.85,-7.42,-9.08,3.86,5.83,-2.24,19.86,-0.73,-0.34,-0.1,1.18,17.45,9.19,0.83,2.05,-0.2,48
4.89,-4.31,20.38,0.49,-1.27,1.95,5.88,-2.19,19.76,-1.12,-0.29,0.29,1.19,17.32,9.22,0.73,2.15,-0.2,48
4.73,-3.04,20.41,-2.0,-0.44,1.03,5.95,-2.24,19.7,-1.56,-0.24,0.1,1.21,17.35,9.21,0.63,1.95,-0.34,48
4.82,-3.28,20.39,-1.42,-0.54,1.32,6.05,-2.15,19.78,-0.24,-0.24,0.1,1.17,17.35,9.19,0.88,2.05,-0.15,48
4.81,-2.99,20.36,0.1,-0.59,0.73,5.64,-2.43,19.81,-0.68,0.44,0.15,1.16,17.35,9.16,0.83,1.86,-0.34,48
4.74,-2.86,20.3,-2.98,-1.76,-0.93,5.91,-2.27,19.81,-0.39,0.2,-0.1,1.2,17.34,9.16,0.59,1.61,-0.54,48
4.83,-3.12,20.29,2.98,-0.83,1.07,6.06,-2.29,19.84,0.05,-0.39,-0.49,1.19,17.37,9.11,0.73,2.05,-0.15,48
4.79,-2.93,20.33,2.1,-1.71,1.17,5.92,-2.48,19.77,-0.78,-0.1,-0.39,1.23,17.37,9.08,0.83,2.0,-0.24,48
4.93,-3.27,20.47,-6.15,2.54,-0.73,5.91,-2.39,19.7,0.73,-0.2,-0.15,1.21,17.37,9.1,0.68,1.95,-0.24,48
4.65,-3.88,20.24,-2.3,1.12,0.68,5.9,-2.42,19.72,-0.05,-0.15,-0.15,1.22,17.36,9.14,0.63,2.25,-0.1,48
4.82,-3.48,20.62,1.03,2.49,0.73,5.83,-2.27,19.74,0.15,-0.1,-0.1,1.21,17.37,9.16,0.73,2.05,-0.2,48
4.08,-3.49,20.27,2.0,-2.05,1.17,5.83,-2.29,19.8,-0.29,-0.2,-0.44,1.19,17.36,9.15,0.73,1.95,-0.2,48
4.75,-3.53,20.56,1.51,-3.08,0.54,5.92,-2.57,19.76,-0.83,-0.15,0.05,1.22,17.34,9.12,0.73,2.0,-0.29,48
4.67,-3.57,20.48,1.61,-2.1,0.73,5.96,-2.3,19.7,-1.42,-0.54,0.29,1.19,17.34,9.1,0.73,2.0,-0.29,48
4.32,-3.42,20.26,0.93,-0.2,0.68,5.83,-2.42,19.96,-0.44,0.05,0.05,1.18,17.35,9.12,0.73,2.0,-0.24,48
4.84,-3.58,20.42,0.44,-1.03,1.03,5.91,-2.45,19.89,-0.1,-0.2,-0.15,1.2,17.32,9.11,0.68,1.86,-0.34,48
4.69,-3.5,20.41,1.42,-1.46,0.59,5.99,-2.26,19.7,0.05,-0.15,0.29,1.19,17.32,9.11,0.63,1.76,-0.39,48
4.63,-3.41,20.34,0.49,-0.39,1.12,5.87,-2.4,19.75,-0.34,-0.15,0.15,1.22,17.35,9.09,0.59,1.17,-0.59,48
4.64,-3.55,20.32,0.59,-0.54,0.78,5.86,-2.51,19.77,-0.34,0.0,-0.24,1.21,17.34,9.09,0.68,2.83,0.2,48
4.51,-3.43,20.56,0.44,-0.68,1.03,5.91,-2.37,19.86,0.1,0.05,-0.2,1.19,17.33,9.1,0.78,2.05,-0.34,48
6.29,-1.68,22.03,16.94,-16.55,5.66,6.21,-1.6,19.93,3.71,0.44,2.44,1.24,17.36,9.15,0.83,1.95,-0.24,49
4.54,-3.56,20.45,7.81,-0.05,2.0,6.0,-1.91,20.2,1.9,0.59,-0.05,1.21,17.33,9.21,0.83,2.0,-0.2,49
3.96,-3.74,20.0,-1.51,5.18,6.74,5.5,-2.31,20.1,0.54,-0.39,0.63,1.24,17.3,9.22,0.73,2.0,-0.2,49
4.48,-3.49,20.48,1.12,1.42,0.05,5.57,-2.25,19.82,0.2,1.12,-2.25,1.21,17.42,9.22,0.73,2.05,-0.2,49
4.01,-4.4,20.39,-14.89,1.37,-4.74,5.85,-3.07,20.03,-4.2,-2.93,-2.73,1.17,17.37,9.22,0.78,1.95,-0.2,49
4.39,-3.55,20.6,0.2,1.17,0.39,5.69,-2.28,20.02,-0.49,-0.1,0.1,1.22,17.33,9.22,0.73,2.05,-0.2,49
2.68,-3.43,20.69,-2.15,5.71,-0.2,4.47,-2.76,19.34,-5.13,3.52,-2.54,1.19,17.33,9.17,0.78,1.95,-0.2,49
4.37,-3.78,21.01,2.59,-4.0,2.1,5.29,-2.28,20.14,0.54,2.73,0.0,1.2,17.37,9.17,0.73,2.05,-0.2,49
4.19,-3.91,20.56,2.0,-3.03,1.42,5.58,-2.41,20.05,1.07,-0.54,0.2,1.23,17.4,9.2,0.68,2.05,-0.24,49
3.64,-4.12,20.21,1.51,-3.27,2.34,5.54,-2.5,20.07,1.66,-0.93,0.54,1.22,17.36,9.17,0.78,1.95,-0.2,49
4.07,-3.92,20.35,-4.1,3.22,1.56,5.24,-2.62,19.76,-1.42,-0.15,0.1,1.21,17.38,9.17,0.73,1.95,-0.2,49
3.94,-4.0,20.25,0.59,-5.13,0.63,5.45,-2.64,19.81,0.49,-1.71,-0.44,1.19,17.34,9.12,0.83,2.0,-0.24,49
4.44,-3.98,20.26,0.78,-0.88,0.88,6.09,-3.06,19.95,-1.17,-2.88,-0.44,1.22,17.31,9.13,0.73,2.0,-0.2,49
4.37,-3.73,20.43,3.47,-3.12,0.63,5.66,-2.16,19.9,1.32,-0.34,-0.44,1.2,17.35,9.14,0.83,2.0,-0.05,49
4.36,-3.7,20.35,2.44,-1.86,0.88,5.68,-2.19,19.88,0.15,-0.49,-0.1,1.19,17.33,9.06,0.73,2.0,-0.2,49
4.42,-3.72,20.35,1.17,-1.03,0.93,5.72,-2.27,19.87,-0.1,-0.24,0.0,1.22,17.31,9.11,0.73,2.0,-0.24,49
4.44,-3.63,20.34,0.98,-0.98,0.88,5.72,-2.24,19.86,-0.29,-0.34,-0.1,1.18,17.36,9.14,0.68,2.05,-0.34,49
4.41,-3.58,20.38,0.59,-0.78,0.93,5.67,-2.25,19.82,-0.54,-0.2,-0.05,1.19,17.31,9.08,0.73,2.05,-0.2,49
4.45,-3.62,20.34,-0.1,-0.88,0.88,5.75,-2.28,19.85,-0.39,-0.24,0.05,1.22,17.31,9.05,0.78,1.9,-0.24,49
4.45,-3.69,20.38,-0.0,-0.68,0.73,5.71,-2.24,19.84,-0.39,-0.1,-0.2,1.17,17.34,9.07,0.78,1.81,-0.34,49
3.86,-4.02,20.18,3.17,-1.12,1.51,5.99,-2.09,20.01,2.34,-0.2,-0.05,1.27,17.34,9.17,0.78,1.95,-0.24,50
4.09,-3.54,20.37,3.91,-5.27,2.05,5.88,-2.41,19.92,-0.83,-0.29,-0.1,1.15,17.36,9.12,0.83,1.95,-0.24,50
4.6,-3.91,20.03,0.2,-1.22,1.27,5.71,-2.23,20.0,-0.29,-0.24,0.05,1.21,17.36,9.13,0.83,2.05,-0.2,50
4.85,-3.57,20.49,0.59,-0.54,0.98,5.79,-2.21,19.86,-0.63,-0.15,-0.05,1.23,17.33,9.09,0.78,2.05,-0.2,50
4.77,-3.72,20.31,0.2,-0.78,0.98,5.76,-2.2,19.92,0.34,-0.05,0.05,1.16,17.35,9.09,0.73,2.0,-0.24,50
4.73,-3.7,20.31,2.69,-2.0,0.73,5.76,-2.23,19.98,-0.2,-0.05,0.05,1.25,17.35,9.1,0.78,2.05,-0.29,50
4.79,-3.52,20.42,1.32,-0.78,0.68,5.83,-2.14,19.92,-0.05,-0.2,-0.1,1.2,17.35,9.1,0.78,2.0,-0.24,50
4.89,-3.46,20.33,1.22,-0.98,0.83,5.74,-2.15,19.92,-0.29,-0.24,-0.15,1.16,17.38,9.15,0.78,2.0,-0.29,50
4.83,-3.38,20.33,0.78,-0.98,0.83,5.75,-2.18,19.91,-0.29,-0.2,0.0,1.23,17.33,9.2,0.73,2.0,-0.29,50
4.82,-3.37,20.37,0.44,-0.78,0.98,5.77,-2.23,19.9,-0.54,-0.24,0.0,1.18,17.34,9.21,0.78,1.9,-0.15,50
4.9,-3.41,20.35,0.68,-0.98,0.93,5.73,-2.2,19.93,-0.54,-0.15,-0.05,1.2,17.34,9.12,0.78,2.05,-0.24,50
4.83,-3.51,20.29,0.24,-0.83,0.93,5.72,-2.22,19.93,-0.1,-0.2,-0.05,1.22,17.32,9.15,0.83,2.0,-0.2,50
4.83,-3.37,20.35,0.63,-0.78,0.83,5.79,-2.23,19.92,-0.29,-0.2,-0.05,1.17,17.33,9.15,0.73,2.0,-0.24,50
4.88,-3.41,20.34,0.59,-0.73,1.07,5.71,-2.21,19.93,-0.44,-0.05,0.0,1.21,17.32,9.18,0.68,2.0,-0.29,50
4.8,-3.43,20.36,0.44,-0.83,0.98,5.8,-2.21,19.89,-0.44,-0.24,0.1,1.2,17.36,9.13,0.78,2.0,-0.2,50
4.84,-3.51,20.36,0.34,-0.78,1.03,5.76,-2.34,19.92,-0.39,-0.24,-0.15,1.18,17.38,9.14,0.73,2.0,-0.2,50
4.84,-3.36,20.34,0.78,-0.78,0.73,5.77,-2.2,19.95,-0.39,-0.2,-0.2,1.22,17.34,9.18,0.83,1.95,-0.2,50
4.79,-3.41,20.42,0.44,-0.73,0.98,5.76,-2.15,19.92,-0.29,-0.1,0.1,1.2,17.34,9.18,0.78,2.0,-0.24,50
4.84,-3.5,20.33,0.39,-0.78,1.03,5.73,-2.18,19.94,-0.1,-0.24,0.1,1.19,17.32,9.13,0.78,2.05,-0.24,50
4.81,-3.5,20.32,0.54,-0.93,0.93,5.82,-2.2,19.87,-0.1,-0.2,0.0,1.21,17.33,9.15,0.83,2.05,-0.29,50
4.72,-3.82,20.34,-0.93,-0.05,0.78,5.75,-2.17,19.92,-0.63,-0.24,-0.05,1.22,17.35,9.13,0.83,2.0,-0.2,51
4.64,-3.64,20.46,-0.83,0.83,0.83,5.76,-2.13,19.92,-0.88,-0.24,-0.1,1.18,17.34,9.17,0.83,2.0,-0.24,51
4.37,-3.83,20.44,3.12,-2.54,1.32,5.9,-2.29,19.93,1.86,0.1,0.15,1.23,17.37,9.21,0.68,2.05,-0.24,51
4.6,-3.89,20.36,1.66,-1.22,1.03,5.89,-2.41,20.01,0.49,-0.29,-0.1,1.21,17.32,9.24,0.78,2.05,-0.24,51
4.91,-3.5,20.59,2.64,-2.78,0.78,5.73,-2.05,19.95,1.95,0.24,0.05,1.18,17.35,9.2,0.78,2.05,-0.24,51
4.71,-3.85,20.36,1.71,-1.71,0.88,5.8,-2.39,19.97,0.54,0.05,0.05,1.22,17.33,9.17,0.88,1.95,-0.2,51
4.91,-3.24,20.5,2.2,-4.05,1.51,5.71,-1.85,19.85,-1.07,-0.34,-0.2,1.18,17.36,9.19,0.78,2.0,-0.2,51
4.87,-3.55,20.31,0.49,-1.07,0.88,5.77,-2.15,19.92,-0.34,-0.1,0.0,1.19,17.36,9.23,0.83,2.0,-0.15,51
4.77,-3.63,20.35,1.07,-1.12,1.03,5.74,-2.21,19.94,-0.2,-0.05,0.0,1.22,17.33,9.27,0.63,2.05,-0.29,51
4.87,-3.58,20.32,0.59,-0.98,0.88,5.79,-2.21,19.87,-0.24,-0.15,-0.05,1.18,17.33,9.26,0.78,2.0,-0.24,51
4.85,-3.55,20.32,0.34,-0.73,0.93,5.73,-2.2,19.92,-0.24,-0.1,0.05,1.2,17.34,9.26,0.73,1.95,-0.24,51
4.84,-3.58,20.32,0.44,-0.49,0.98,5.78,-2.22,19.91,-0.29,-0.1,0.0,1.22,17.35,9.27,0.83,2.0,-0.15,51
4.83,-3.53,20.35,0.63,-0.78,0.93,5.78,-2.15,19.86,-0.1,-0.15,0.0,1.19,17.34,9.23,0.83,2.0,-0.2,51
4.8,-3.59,20.28,-0.44,-0.1,1.03,5.77,-2.17,19.9,-0.93,-0.1,-0.1,1.21,17.36,9.2,0.83,1.95,-0.24,51
4.87,-3.61,20.31,0.54,-0.88,1.03,5.75,-2.22,19.9,-0.2,-0.15,0.0,1.23,17.2,9.19,0.73,2.05,-0.15,51
4.92,-3.81,20.33,0.1,-1.03,0.93,5.85,-2.34,19.74,-0.93,-0.34,-0.15,1.22,17.32,9.19,0.78,2.0,-0.24,51
4.67,-3.84,20.19,-0.98,-0.39,0.98,5.56,-2.24,19.69,-0.73,-0.39,-0.05,1.24,17.48,9.17,0.78,1.95,-0.2,51
4.82,-3.77,20.31,0.15,-1.27,0.88,5.65,-2.22,19.7,-0.73,-0.15,0.05,1.21,17.39,9.16,0.68,2.05,-0.24,51
4.86,-3.63,20.33,0.05,-0.88,0.98,5.74,-2.13,19.84,-0.54,-0.2,-0.05,1.23,17.39,9.21,0.78,2.05,-0.24,51
4.72,-3.7,20.29,-0.2,-0.39,0.88,5.75,-2.13,19.88,-0.54,-0.24,-0.05,1.19,17.36,9.27,0.73,2.05,-0.24,51
4.5,-3.82,20.19,-4.83,2.69,0.98,5.73,-2.24,19.86,1.12,-0.1,0.1,1.18,17.29,9.17,0.78,2.0,-0.2,52
4.91,-3.46,20.49,2.93,-2.34,0.78,5.76,-2.14,19.94,-0.49,-0.24,-0.1,1.22,17.35,9.17,0.78,2.0,-0.24,52
4.62,-3.93,20.32,-0.44,-0.63,1.07,5.81,-2.21,19.9,-1.07,-0.29,-0.1,1.21,17.36,9.14,0.73,1.95,-0.34,52
4.6,-4.06,20.3,-0.0,-0.88,0.93,5.81,-2.1,19.95,-0.78,-0.15,0.05,1.21,17.34,9.16,0.78,2.0,-0.29,52
4.85,-3.45,20.55,1.71,-1.22,0.93,5.8,-2.11,19.92,-0.93,-0.1,-0.1,1.2,17.33,9.16,0.73,1.95,-0.24,52
4.69,-3.88,20.31,0.73,-1.17,0.93,5.73,-2.38,19.93,-0.44,0.0,-0.05,1.21,17.31,9.16,0.73,2.05,-0.24,52
4.54,-3.8,20.26,0.88,-1.22,0.98,5.76,-2.27,19.93,-0.34,-0.05,-0.05,1.19,17.34,9.17,0.83,2.0,-0.2,52
4.64,-3.76,20.32,0.63,-0.83,0.93,5.74,-2.34,19.84,-0.63,-0.2,-0.05,1.22,17.34,9.18,0.83,2.05,-0.29,52
4.6,-3.66,20.34,0.88,-0.93,0.88,5.83,-2.1,19.93,0.15,-0.2,0.05,1.2,17.33,9.2,0.73,1.9,-0.29,52
4.75,-3.69,20.37,0.54,-0.59,1.12,5.73,-2.37,19.87,-0.24,-0.1,0.2,1.2,17.33,9.14,0.78,2.1,-0.24,52
4.57,-3.84,20.21,-0.29,-0.63,0.98,5.82,-2.3,19.88,-0.73,-0.2,0.0,1.2,17.32,9.13,0.78,2.0,-0.2,52
4.62,-3.64,20.36,1.22,-1.17,0.73,5.65,-2.09,19.88,-0.54,0.1,0.24,1.2,17.35,9.11,0.68,2.05,-0.24,52
4.93,-3.89,20.21,0.2,-1.03,1.07,5.76,-2.4,19.91,-0.39,-0.29,0.39,1.18,17.26,9.15,0.54,2.2,-0.05,52
4.67,-3.79,20.27,0.39,-0.88,0.98,5.78,-2.25,19.82,-0.59,-0.24,0.05,1.21,17.34,9.1,0.73,1.9,-0.24,52
4.52,-3.75,20.31,-0.68,-0.68,1.17,5.83,-2.21,19.78,-0.15,-0.15,0.24,1.2,17.34,9.13,0.54,1.86,-0.24,52
4.77,-3.64,20.38,0.05,-1.07,1.32,5.81,-2.35,19.81,-0.2,-0.1,0.24,1.21,17.35,9.2,0.83,1.81,-0.24,52
4.76,-3.72,20.36,0.15,-0.78,1.37,5.74,-2.3,19.86,-0.24,0.1,0.05,1.22,17.35,9.15,0.78,1.66,-0.34,52
4.71,-3.81,20.3,0.59,-0.63,0.98,5.58,-2.13,19.91,-0.63,0.24,0.2,1.21,17.32,9.15,0.83,2.0,-0.24,52
4.71,-3.75,20.35,1.37,-1.12,0.78,5.85,-2.18,19.85,-0.1,-0.2,0.05,1.17,17.32,9.18,0.78,1.95,-0.29,52
4.65,-3.85,20.3,0.15,-0.44,0.98,5.73,-2.34,19.92,0.34,-0.34,-0.1,1.26,17.33,9.14,0.78,1.9,-0.2,52
4.67,-3.83,20.49,6.2,-5.91,1.42,5.93,-2.41,20.02,4.49,0.98,0.1,0.97,17.32,9.21,0.78,2.15,-0.1,53
4.52,-4.02,20.04,-0.24,-1.32,1.27,5.82,-2.5,19.83,-0.83,-0.73,0.29,1.29,17.46,9.15,0.83,1.95,-0.24,53
4.69,-4.1,20.2,3.27,-2.05,1.12,5.97,-2.58,19.85,1.9,0.05,0.24,1.19,17.36,9.23,0.73,1.61,-0.54,53
4.62,-3.72,20.22,1.76,-2.54,1.17,5.88,-2.19,19.88,0.73,0.1,-0.29,1.16,17.34,9.25,0.98,2.15,-0.24,53
4.61,-3.73,19.99,4.1,-5.42,0.88,5.93,-2.49,20.04,2.73,0.2,0.2,1.17,17.38,9.22,0.78,1.95,-0.39,53
4.96,-3.76,20.21,0.34,-1.17,0.39,5.87,-2.23,19.89,-0.29,-0.05,-0.29,1.31,17.31,9.22,0.83,1.56,-0.54,53
4.83,-3.57,20.2,0.05,0.1,-0.34,5.86,-2.26,19.91,-0.83,-0.1,-0.24,1.27,17.39,9.29,0.68,1.95,-0.34,53
4.85,-4.01,20.16,-0.93,-0.29,1.03,5.76,-2.37,19.88,-1.81,0.05,-0.2,1.18,17.37,9.28,0.78,2.05,-0.24,53
5.02,-3.79,20.15,1.51,-1.66,0.68,5.89,-2.5,19.89,-0.24,-0.1,-0.15,1.25,17.36,9.29,0.78,2.1,-0.2,53
5.01,-3.77,20.19,0.98,-1.27,0.49,5.87,-2.35,19.91,-0.39,-0.15,-0.1,1.22,17.32,9.29,0.88,2.25,-0.2,53
4.92,-3.77,20.27,-0.34,-0.1,1.03,5.76,-2.33,19.92,-0.83,0.05,-0.15,1.17,17.34,9.27,0.68,2.25,-0.2,53
5.27,-3.74,20.94,-3.86,0.44,0.1,5.89,-2.14,19.98,-1.76,-0.54,0.1,1.26,17.34,9.27,0.83,2.29,-0.15,53
4.67,-3.96,20.21,-4.15,3.47,0.34,5.74,-2.6,19.58,-3.56,-0.24,0.0,1.22,17.45,9.16,1.12,2.64,0.05,53
4.31,-4.71,20.03,-3.03,2.34,1.17,5.96,-2.8,19.84,-4.49,-0.29,0.24,1.2,17.37,9.25,0.88,1.95,-0.24,53
4.03,-4.61,19.74,-3.32,2.29,1.22,5.79,-2.97,19.66,-5.42,-0.88,0.39,1.23,17.31,9.28,0.78,1.81,-0.34,53
4.5,-4.91,20.52,-0.83,0.39,0.39,5.94,-3.54,19.74,-4.0,-1.12,-0.63,1.13,17.34,9.28,0.63,1.42,-0.49,53
4.19,-4.98,19.87,-1.07,3.17,-1.07,6.09,-3.05,20.18,-3.56,-0.78,-2.59,1.23,17.32,9.31,0.83,1.95,-0.34,53
3.9,-3.35,20.16,6.64,0.44,-0.68,5.83,-2.98,19.68,5.76,1.22,-3.03,1.03,17.53,9.09,1.03,2.25,0.0,53
4.22,-4.3,20.9,6.15,-0.1,-0.68,5.86,-3.09,19.67,2.49,-1.12,-1.86,1.27,17.68,8.81,0.88,0.44,-0.93,53
3.96,-3.05,20.31,7.32,-2.73,-2.49,6.0,-2.45,19.31,7.91,0.2,-2.05,1.3,17.32,9.19,1.03,1.61,-0.34,53
5.16,-3.32,20.55,-1.66,1.12,1.22,5.85,-1.8,19.95,-0.2,-0.15,0.1,1.14,17.36,9.26,0.63,1.61,-0.34,54
4.98,-3.73,20.35,0.59,-1.76,0.39,5.84,-2.15,19.86,0.34,-0.24,-0.1,1.16,17.33,9.32,0.68,1.56,-0.34,54
4.95,-3.6,20.5,-1.27,-0.05,-0.63,5.69,-2.04,19.93,0.15,-0.05,0.1,1.19,17.31,9.34,0.63,2.15,-0.15,54
4.45,-4.25,20.15,-4.54,2.93,-1.46,5.92,-2.32,19.59,-2.59,-0.78,0.0,1.13,17.33,9.31,0.78,1.71,-0.24,54
4.68,-4.21,20.23,2.0,-1.46,1.66,5.8,-2.48,19.8,0.1,-0.39,0.59,1.17,17.35,9.27,0.78,2.05,-0.24,54
4.67,-4.12,20.3,0.83,-0.68,1.12,5.79,-2.32,19.85,-0.24,-0.15,0.2,1.18,17.36,9.3,0.83,2.1,-0.2,54
4.63,-4.19,20.24,1.51,-1.37,1.61,5.75,-2.37,19.81,-0.2,0.05,0.1,1.15,17.35,9.3,0.78,2.1,-0.1,54
4.78,-4.06,20.25,2.78,-2.2,1.61,5.81,-2.4,19.8,0.88,-0.1,0.05,1.17,17.35,9.27,0.78,2.05,-0.15,54
4.83,-3.99,20.17,0.83,-1.51,0.98,5.78,-2.12,19.87,0.39,0.05,0.05,1.18,17.33,9.32,0.63,1.9,-0.24,54
4.86,-3.85,20.24,1.07,-1.12,1.27,5.71,-2.13,19.85,0.24,0.05,0.15,1.13,17.31,9.31,0.73,1.76,-0.29,54
4.86,-3.84,20.2,0.39,-0.73,0.98,5.82,-2.14,19.89,-0.34,-0.29,0.15,1.18,17.32,9.28,0.78,2.2,-0.1,54
4.92,-3.86,20.23,0.73,-1.07,1.22,5.68,-2.15,19.87,-0.15,0.1,0.2,1.18,17.32,9.27,0.73,1.95,-0.24,54
4.92,-3.78,20.17,2.2,-1.37,0.88,5.77,-2.18,19.88,-0.2,-0.1,-0.1,1.13,17.32,9.28,0.73,2.34,0.05,54
5.02,-3.64,20.21,1.27,-1.17,0.68,5.77,-2.14,19.86,0.1,-0.1,0.15,1.22,17.33,9.25,0.73,2.05,-0.24,54
4.89,-3.74,20.22,0.63,-0.68,0.93,5.76,-2.13,19.84,-0.59,-0.05,-0.1,1.1,17.34,9.31,0.73,2.15,-0.15,54
5.04,-3.6,20.32,-3.17,-1.95,1.46,5.69,-1.81,19.77,-0.54,0.15,0.29,1.16,17.29,9.36,0.59,1.86,-0.15,54
5.04,-3.74,20.2,0.39,-0.83,1.07,5.73,-2.22,19.77,0.2,-0.05,0.54,1.14,17.3,9.3,0.68,2.05,-0.24,54
5.02,-3.85,20.19,0.34,-0.54,1.07,5.75,-2.16,19.82,-0.1,-0.15,-0.05,1.17,17.32,9.34,0.73,2.0,-0.24,54
5.04,-3.83,20.24,-0.1,-0.24,1.17,5.71,-2.26,19.84,-0.73,-0.1,0.0,1.15,17.34,9.29,0.73,2.15,-0.15,54
5.03,-3.85,20.22,-1.51,0.39,1.12,5.71,-2.23,19.79,-0.88,-0.1,-0.1,1.17,17.33,9.32,0.73,2.0,-0.2,54
4.5,-0.84,20.4,7.81,-15.33,-1.37,6.71,-2.43,19.45,-0.44,-0.24,0.29,1.06,17.28,9.41,1.51,3.56,0.0,55
5.09,-3.19,20.37,4.98,-4.44,2.44,6.71,-2.14,19.55,-0.2,-0.1,0.1,1.11,17.52,9.03,10.45,11.57,3.42,55
4.61,-2.85,19.94,7.03,-5.71,3.61,6.74,-1.84,19.52,2.05,1.76,0.73,0.8,17.67,8.82,-9.33,-1.17,-1.56,55
5.0,-3.08,19.91,-4.49,2.0,1.22,6.62,-2.44,19.57,2.15,1.56,-0.05,0.85,17.69,9.31,0.83,2.98,-0.05,55
5.01,-2.57,20.26,-1.17,7.52,3.27,6.53,-1.93,19.56,2.0,0.24,-0.05,1.13,17.29,9.2,3.52,7.67,1.95,55
4.91,-2.72,20.0,3.66,-3.32,2.64,6.57,-1.32,19.5,4.3,1.07,-0.1,-1.16,18.0,7.28,2.39,29.88,12.21,55
5.45,-2.34,20.15,-0.63,-4.74,-0.39,6.32,-1.91,19.72,0.88,1.32,1.03,0.45,16.91,9.1,-2.34,-7.86,-4.44,55
5.65,-2.47,20.26,4.98,-1.71,1.95,6.41,-1.9,19.79,0.73,-0.24,-0.39,1.65,17.06,9.37,3.27,10.16,2.44,55
5.84,-3.43,20.21,0.54,-2.59,0.05,6.21,-0.37,19.57,3.03,0.63,0.24,-4.18,20.53,5.78,11.87,44.04,17.92,55
5.65,-3.04,20.33,-4.05,0.05,1.71,6.47,-2.33,19.77,-2.3,-0.24,0.34,2.13,17.49,9.2,-2.88,-16.02,-6.98,55
5.6,-2.27,20.16,1.9,-0.59,1.42,6.41,-2.09,19.61,0.63,-0.1,-0.59,1.59,17.26,10.19,3.47,10.55,3.76,55
5.63,-2.37,19.68,-0.0,-1.46,-0.1,6.06,-0.44,19.6,5.37,1.46,0.29,-3.47,20.23,5.1,18.46,59.38,25.59,55
5.69,-3.0,20.01,-4.64,0.78,1.51,6.3,-1.54,19.73,-1.9,-0.05,0.73,1.53,16.63,10.68,-7.86,-19.29,-9.96,55
5.4,-2.67,20.13,-1.22,-0.63,0.78,6.39,-1.71,19.57,0.73,0.0,-0.78,3.24,15.63,11.44,5.18,13.13,5.76,55
6.01,-2.78,19.99,-4.2,-1.81,-0.15,5.91,-0.75,19.66,4.64,1.42,0.15,-4.2,19.85,4.15,21.44,46.92,13.43,55
5.5,-2.87,20.16,-3.86,1.07,1.42,6.24,-1.29,19.89,-2.1,0.24,1.46,0.79,14.22,10.86,-41.21,-28.56,-16.5,55
5.52,-2.4,20.22,2.05,-0.68,1.27,6.34,-1.77,19.69,-0.2,0.15,0.39,0.94,17.18,9.29,0.05,-0.83,-1.27,55
5.44,-2.44,20.14,0.68,-0.63,1.22,6.29,-1.69,19.7,0.05,0.1,0.34,1.07,17.37,9.1,0.49,1.03,-0.78,55
5.47,-2.57,20.16,0.93,-0.68,1.03,6.37,-1.51,19.66,0.98,0.29,0.24,1.08,17.34,9.07,0.49,0.63,-0.73,55
5.91,-3.1,20.48,3.03,-2.25,-0.24,6.21,-1.91,19.85,-0.98,0.34,0.24,1.13,17.3,9.24,0.59,1.12,-0.59,55
4.76,-4.28,20.14,-0.15,-1.17,0.78,6.19,-2.17,19.61,-0.93,-0.34,0.2,1.09,17.33,9.05,0.83,2.1,-0.2,56
4.79,-4.29,20.21,0.54,-0.44,1.12,6.18,-2.22,19.67,0.34,-0.29,0.15,1.11,17.34,9.06,0.88,2.1,-0.05,56
4.83,-4.39,20.16,0.39,-1.03,0.88,6.21,-2.2,19.74,-0.44,-0.2,0.1,1.08,17.36,9.07,0.78,2.05,-0.15,56
4.74,-4.31,20.22,0.44,-0.68,1.03,6.17,-2.27,19.77,-0.2,-0.29,0.1,1.09,17.41,9.09,0.78,2.15,-0.15,56
4.79,-4.26,20.2,0.73,-0.98,0.98,6.14,-2.23,19.8,-0.2,0.0,0.05,1.1,17.35,9.1,0.63,2.1,-0.15,56
4.71,-4.33,20.28,-0.05,-0.78,0.93,6.17,-2.16,19.76,-0.44,-0.1,-0.05,1.11,17.35,9.12,0.68,2.1,-0.2,56
4.75,-4.31,20.25,0.49,-0.68,1.03,6.19,-2.25,19.67,-0.29,-0.2,0.1,1.09,17.35,9.14,0.73,2.49,0.05,56
4.75,-4.35,20.18,0.39,-0.78,1.03,6.37,-1.81,19.44,0.05,-0.39,0.54,1.06,17.29,9.29,0.39,0.88,-0.63,56
4.75,-4.37,20.2,0.44,-0.34,1.51,6.13,-2.14,19.73,-1.22,0.0,0.63,1.14,17.39,9.15,0.44,1.27,-0.44,56
4.57,-4.43,20.28,-0.39,-0.63,1.81,6.16,-2.43,19.7,-0.59,0.24,0.05,1.15,17.32,9.23,0.54,1.22,-0.59,56
4.65,-4.41,20.24,1.03,-0.63,1.17,6.19,-2.11,19.63,0.24,-0.54,0.2,1.05,17.4,9.28,0.88,2.34,0.05,56
4.83,-4.29,20.24,0.63,-0.68,0.98,6.24,-2.38,19.68,-0.05,-0.29,-0.1,1.09,17.34,9.25,0.78,2.0,-0.1,56
4.74,-4.3,20.22,1.51,-0.98,0.88,6.19,-2.29,19.69,-0.34,-0.39,-0.29,1.11,17.37,9.25,0.73,1.56,-0.34,56
4.74,-4.27,20.2,0.78,-0.88,0.88,6.2,-2.23,19.69,0.05,-0.24,-0.05,1.1,17.39,9.2,0.83,2.0,-0.24,56
4.8,-4.44,20.05,1.61,-0.98,0.63,6.17,-2.1,19.63,1.22,-0.15,-0.29,1.14,17.38,9.13,0.98,1.86,-0.39,56
4.64,-4.31,20.16,0.59,-0.34,0.49,6.13,-2.06,19.69,0.34,-0.05,0.05,1.19,17.33,9.14,0.68,1.86,-0.2,56
4.73,-4.18,20.22,0.29,-0.68,1.32,6.2,-2.12,19.62,-0.59,-0.2,0.34,1.12,17.41,9.09,0.68,2.54,0.0,56
4.79,-4.2,20.19,-0.1,-0.59,1.12,6.21,-2.28,19.7,-0.78,-0.1,0.0,1.08,17.35,9.21,0.73,1.9,-0.2,56
4.75,-4.28,20.14,0.2,-0.78,0.93,6.22,-2.17,19.7,-0.49,-0.2,0.05,1.09,17.33,9.15,0.83,1.9,-0.2,56
4.77,-4.26,20.14,0.15,-0.88,0.93,6.18,-2.33,19.75,-0.29,-0.15,0.15,1.08,17.35,9.11,0.68,2.0,-0.2,56
5.23,-4.07,20.57,0.83,-3.71,-0.2,6.55,-2.04,19.58,-3.13,-1.42,-1.46,1.05,17.36,9.18,0.93,2.88,0.0,57
4.83,-4.27,20.25,1.03,-2.59,-2.54,6.37,-1.95,19.37,-1.66,-4.3,-2.25,1.11,17.6,8.98,3.95,0.78,-1.42,57
5.34,-3.51,20.3,11.87,-5.57,-0.1,6.74,-1.89,18.99,-1.07,-3.81,0.88,1.1,17.54,8.86,2.2,0.78,-0.83,57
6.43,-2.94,20.71,2.05,-3.03,2.34,7.03,-2.07,20.15,-9.38,-4.15,1.56,1.47,17.6,9.01,-3.08,-5.81,-4.1,57
4.78,-3.3,18.72,-22.95,3.08,3.52,6.87,-2.66,19.08,4.39,0.15,1.07,1.07,17.4,9.07,-2.44,2.2,-0.24,57
4.89,-4.1,19.4,4.25,-8.06,2.25,7.24,-1.96,19.75,7.76,4.79,1.71,1.73,17.34,9.15,-1.17,1.71,2.25,57
6.43,-4.36,21.3,-4.1,-8.89,6.49,6.98,-2.43,19.29,1.81,0.49,0.29,1.01,17.32,9.3,0.44,0.78,-0.78,57
5.99,-3.78,20.51,1.81,0.78,-0.15,7.16,-2.72,19.44,-0.83,0.05,-1.95,1.06,17.29,9.19,0.98,1.51,-0.44,57
5.56,-4.37,19.76,4.54,3.96,-0.73,6.96,-2.13,19.32,-0.1,-0.29,0.34,1.14,17.36,9.1,0.83,1.61,-0.34,57
5.54,-3.98,20.0,-2.34,2.05,-0.63,6.94,-2.59,19.55,-0.39,-0.49,-0.49,1.05,17.37,9.1,1.32,2.2,-0.29,57
5.39,-4.19,20.12,-1.32,-0.44,-0.15,7.21,-2.71,19.58,-1.42,-0.49,-0.24,1.11,17.38,9.07,1.71,2.2,0.05,57
5.18,-4.05,20.03,-0.78,-0.63,1.22,6.97,-3.17,19.4,1.12,0.34,0.98,1.13,17.44,9.15,-0.88,2.25,-0.15,57
5.34,-4.65,20.14,-0.0,0.34,1.51,6.97,-2.18,19.64,-0.44,0.24,1.27,1.24,17.06,9.26,0.2,1.95,0.59,57
5.07,-4.94,19.94,-3.37,-1.46,0.93,7.08,-2.26,19.26,-1.32,-0.59,1.61,1.09,17.22,9.02,1.03,2.78,0.24,57
5.3,-4.67,20.09,-2.64,-2.44,1.66,7.14,-2.61,19.32,0.88,0.29,-0.15,1.02,17.45,9.06,0.83,2.05,-0.15,57
5.41,-4.46,20.0,0.98,-1.07,0.98,7.09,-2.56,19.22,1.9,0.59,0.2,1.33,17.32,9.04,1.07,4.64,1.12,57
5.38,-4.73,19.83,-0.63,-0.05,0.59,7.02,-2.82,19.46,2.44,3.13,-1.27,1.29,17.32,9.12,-0.1,-2.15,-2.73,57
5.26,-4.32,20.26,2.88,0.24,-0.2,6.86,-2.5,19.72,1.32,0.1,-1.27,1.26,17.16,9.3,5.03,10.25,3.32,57
5.33,-4.08,19.9,1.81,-1.27,0.68,6.94,-2.4,19.54,-0.98,0.49,1.07,1.2,16.91,9.78,-3.96,-4.15,-2.54,57
5.27,-4.45,19.94,-0.39,-2.59,1.9,6.85,-2.73,19.62,0.44,0.15,-1.42,1.39,17.3,8.86,4.25,8.84,3.08,57
5.54,-4.36,19.84,-1.12,-0.59,0.49,6.2,-2.5,19.78,-1.81,0.78,-0.2,1.01,17.28,9.23,0.59,1.86,-0.29,58
4.76,-4.66,20.2,-0.88,-0.39,1.37,6.5,-2.28,19.59,-0.83,0.34,0.68,1.09,17.34,9.19,0.68,1.56,-0.44,58
5.29,-4.68,19.84,-0.59,-1.27,0.78,6.47,-2.55,19.64,-1.32,-0.15,0.05,1.05,17.34,9.16,0.68,2.34,0.0,58
5.19,-4.73,20.01,0.68,-0.98,1.03,6.54,-2.54,19.52,-0.29,-0.34,0.05,1.06,17.36,9.13,0.73,1.76,-0.39,58
5.12,-4.49,20.09,1.17,-0.73,1.27,6.56,-2.4,19.52,0.54,-0.29,0.15,1.05,17.31,9.13,0.78,2.0,-0.15,58
5.29,-4.42,20.08,1.07,-0.49,0.54,6.55,-2.48,19.53,-0.29,-0.24,0.05,1.19,17.38,9.05,0.63,0.98,-0.39,58
5.21,-4.48,20.06,0.78,-0.78,0.83,6.51,-2.38,19.55,-0.0,-0.44,0.24,0.89,17.44,9.2,0.73,1.86,-0.29,58
5.16,-4.3,20.11,0.98,-0.73,1.71,6.46,-2.33,19.55,0.05,-0.05,0.1,1.15,17.38,9.04,0.73,2.25,-0.1,58
5.12,-4.58,20.07,-0.15,-0.78,1.27,6.58,-2.51,19.59,-0.63,-0.24,0.1,1.11,17.36,9.14,0.68,1.51,-0.44,58
5.17,-4.42,20.0,0.24,-0.78,0.83,6.53,-2.4,19.62,-0.49,-0.1,-0.2,1.07,17.36,9.13,0.73,1.86,-0.34,58
5.21,-4.42,19.99,0.39,-0.63,0.78,6.5,-2.44,19.55,-0.39,0.0,-0.15,1.14,17.39,9.15,0.78,1.71,-0.29,58
5.1,-4.59,19.99,0.1,-0.78,0.44,6.52,-2.46,19.55,-0.24,-0.2,-0.2,1.09,17.3,9.18,0.73,2.0,-0.2,58
5.08,-4.48,20.02,0.68,-0.68,0.73,6.52,-2.45,19.6,0.05,-0.29,-0.15,1.05,17.35,9.2,0.78,2.0,-0.15,58
5.19,-4.39,20.03,0.93,-0.78,0.88,6.5,-2.47,19.62,-0.2,-0.2,-0.05,1.04,17.33,9.16,0.68,2.15,-0.24,58
5.15,-4.43,20.01,0.34,-0.78,0.93,6.53,-2.4,19.6,-0.24,-0.1,0.0,1.08,17.32,9.12,0.78,2.44,0.05,58
5.13,-4.47,20.02,0.59,-0.63,0.98,6.49,-2.43,19.6,-0.2,-0.24,-0.05,1.04,17.35,9.17,0.68,2.05,-0.24,58
5.21,-4.53,20.0,0.1,-0.78,0.93,6.48,-2.34,19.65,-0.34,0.0,0.0,1.07,17.35,9.2,0.68,2.15,-0.24,58
5.18,-4.5,20.07,0.44,-0.78,0.93,6.54,-2.37,19.63,-0.29,-0.1,0.29,1.1,17.33,9.19,0.73,2.05,-0.2,58
5.11,-4.55,20.04,0.24,-0.83,1.12,6.54,-2.38,19.62,-0.0,-0.2,0.1,1.04,17.34,9.14,0.78,1.95,-0.24,58
5.2,-4.55,19.98,0.39,-0.83,0.88,6.45,-2.42,19.62,-0.29,-0.1,0.0,1.09,17.33,9.18,0.78,2.0,-0.24,58
5.24,-4.65,20.0,2.2,-1.76,0.24,6.41,-2.55,19.63,0.54,0.0,-0.05,1.05,17.35,9.2,0.78,2.05,-0.2,59
5.25,-4.71,19.94,0.68,-1.32,1.27,6.46,-2.48,19.61,0.54,-0.1,0.34,1.06,17.37,9.22,0.83,2.44,0.1,59
5.26,-4.68,19.98,1.27,-1.17,0.44,6.38,-2.56,19.61,-0.0,0.15,0.1,1.11,17.43,9.16,0.68,2.54,0.1,59
5.35,-4.43,20.04,1.56,-1.71,0.88,6.36,-2.44,19.54,-0.49,0.24,0.1,0.97,17.37,9.2,0.83,1.61,-0.39,59
5.25,-4.1,19.79,-1.71,-2.15,1.95,6.17,-2.58,19.97,-4.83,-0.83,-0.29,0.95,17.38,9.19,0.78,2.59,0.1,59
5.38,-4.8,19.77,0.59,-2.15,1.42,6.53,-2.43,19.47,-0.34,-0.15,0.49,0.94,17.47,9.16,0.63,2.25,-0.15,59
5.35,-4.66,19.84,0.44,-1.66,0.98,6.6,-2.43,19.59,-0.93,-0.83,0.34,1.34,17.36,9.11,0.49,1.42,-0.54,59
5.46,-4.8,19.64,0.93,-2.25,2.59,6.59,-2.65,19.43,0.49,-0.1,1.22,1.05,17.36,9.19,0.88,2.73,0.0,59
5.82,-4.78,19.79,-0.1,-1.07,1.61,6.57,-2.71,19.49,-0.68,0.44,0.24,1.06,17.32,9.23,0.73,1.76,-0.29,59
5.6,-4.84,19.83,-0.0,-0.39,1.03,6.55,-2.71,19.6,-0.63,0.05,-0.15,0.95,17.38,9.23,0.54,1.42,-0.34,59
5.59,-5.1,19.74,0.1,0.1,1.12,6.58,-3.06,19.66,-0.0,-0.44,-0.29,1.1,17.38,9.15,0.83,1.66,-0.39,59
5.36,-4.61,20.01,2.93,0.39,1.22,6.36,-2.56,19.7,1.76,0.0,-0.34,1.01,17.41,9.02,0.93,1.9,-0.24,59
5.48,-4.34,20.07,2.29,-1.71,-1.61,6.43,-2.33,19.6,0.54,-0.34,-0.63,0.98,17.32,9.11,0.88,2.2,-0.05,59
5.48,-4.65,19.88,0.2,-0.1,1.27,6.57,-2.59,19.62,-0.15,0.29,-0.88,1.01,17.41,9.06,0.39,0.1,-1.07,59
5.03,-4.37,20.07,0.63,0.15,1.66,6.1,-2.51,19.85,-1.42,0.34,-0.68,1.08,17.38,9.07,0.78,3.03,0.2,59
5.6,-4.85,19.89,-0.1,-2.54,-1.17,6.49,-2.64,19.73,-0.2,-0.49,0.2,0.98,17.44,9.16,0.78,2.2,-0.1,59
5.62,-4.67,19.85,1.07,-1.03,1.56,6.5,-2.7,19.66,0.05,-0.54,-0.05,1.17,17.36,9.11,0.68,0.88,-0.78,59
5.32,-4.48,19.97,1.95,0.49,1.76,6.31,-2.42,19.61,0.05,-0.2,-0.68,1.08,17.44,9.03,0.63,1.71,-0.49,59
5.16,-4.19,20.0,1.9,-0.73,-2.0,6.22,-2.28,19.59,-0.2,-0.2,-0.63,0.94,17.43,9.13,0.78,2.05,-0.2,59
5.61,-4.68,19.85,-0.73,-1.12,1.51,6.57,-2.4,19.55,-0.68,-0.29,-0.2,1.03,17.3,9.29,0.73,1.56,-0.44,59
5.68,-5.28,19.54,-4.93,1.61,0.78,7.45,-3.79,19.2,-6.64,-1.61,-0.24,1.11,17.45,9.15,1.56,2.25,-0.05,60
5.6,-6.04,19.94,-7.57,6.59,1.86,7.52,-3.76,19.38,-0.54,-2.49,1.66,1.09,17.47,9.12,2.54,2.69,0.24,60
4.02,-5.65,17.69,0.29,6.59,5.42,7.32,-4.07,18.98,-2.05,-5.22,0.73,1.03,17.5,9.03,1.95,2.64,0.2,60
4.55,-6.58,19.48,-4.64,0.05,1.51,7.81,-4.11,18.78,-9.33,-2.83,1.22,1.07,17.49,8.99,2.78,2.1,0.05,60
5.37,-6.6,20.03,-8.45,5.62,3.22,8.44,-5.19,19.81,-10.84,3.32,3.96,0.96,17.46,8.86,4.64,-0.49,-1.42,60
4.73,-6.96,20.45,8.4,1.32,6.2,5.38,-6.37,17.61,-8.4,11.04,2.29,-0.56,17.64,8.42,12.16,-9.08,-7.13,60
3.26,-6.85,18.41,12.01,-6.93,3.56,5.44,-5.46,18.26,2.15,-9.28,6.74,0.89,18.16,7.83,6.45,-7.81,-3.96,60
7.16,-4.89,19.52,18.6,-29.74,5.42,8.22,-5.55,17.65,-13.72,-24.76,2.98,1.19,18.47,6.52,14.45,-2.69,0.68,60
7.22,-4.83,18.7,-17.97,-16.31,1.12,9.91,-6.69,17.17,-0.29,-6.05,2.44,2.17,17.92,6.39,27.64,7.71,-16.99,60
7.13,-5.72,18.66,2.83,-3.08,1.46,8.6,-6.1,17.36,-4.05,-2.93,3.86,1.3,19.31,5.68,21.0,7.81,-7.52,60
6.96,-5.75,18.3,-4.64,-2.54,3.86,10.58,-6.93,18.45,5.08,-9.72,1.17,-0.05,19.57,4.33,7.57,6.3,-1.37,60
8.56,-6.77,19.41,0.15,-6.49,3.52,9.35,-7.55,16.73,-13.43,-3.52,5.42,-0.8,19.72,3.44,17.72,9.13,-12.99,60
7.28,-6.94,17.29,-10.84,-1.81,5.91,9.78,-7.11,16.72,5.32,1.46,0.49,-0.04,16.22,3.22,-21.68,3.13,-3.47,60
7.97,-6.71,17.71,12.55,-4.0,-0.83,8.95,-5.44,18.53,16.31,9.67,-8.79,-0.41,19.76,3.34,11.62,-0.83,11.04,60
7.96,-5.65,19.28,-3.32,1.61,-7.18,8.68,-6.6,17.06,4.98,11.38,-6.54,0.22,18.7,4.48,-22.12,-4.88,2.49,60
