ACC-X-Ring1,ACC-Y-Ring1,ACC-Z-Ring1,GYRO-X-Ring1,GYRO-Y-Ring1,GYRO-Z-Ring1,ACC-X-Ring2,ACC-Y-Ring2,ACC-Z-Ring2,GYRO-X-Ring2,GYRO-Y-Ring2,GYRO-Z-Ring2,ACC-X-Ring3,ACC-Y-Ring3,ACC-Z-Ring3,GYRO-X-Ring3,GYRO-Y-Ring3,GYRO-Z-Ring3,TEST
5.76,-3.56,20.08,-1.9,-2.73,203.76,5.95,-11.52,15.08,-14.55,-96.04,205.27,-13.92,13.82,-1.5,-220.46,96.0,36.13,1
3.0,-1.81,18.37,-19.29,-8.11,212.4,7.04,-13.47,16.62,-7.52,-103.03,81.74,-10.93,10.16,6.52,-96.68,40.33,68.02,1
5.88,-3.17,20.37,17.38,-52.05,90.48,3.43,-7.22,15.55,35.11,-24.71,48.63,-13.31,12.6,5.7,-21.48,13.82,44.29,1
3.21,4.48,16.84,59.18,-45.8,49.61,5.52,-6.97,17.92,-27.39,-12.99,6.1,-11.4,16.02,6.44,-20.51,-17.97,31.49,1
5.82,-2.24,22.23,-1.42,-15.48,23.58,3.95,-11.76,19.03,14.6,10.35,2.83,-13.66,12.64,8.92,-8.98,0.29,0.0,1
3.97,-3.0,22.29,-1.12,-1.56,-3.61,6.09,-9.5,20.07,-17.38,35.6,-39.01,-13.12,15.81,6.96,44.43,-28.03,-20.56,1
7.64,0.16,23.36,-0.83,11.77,-49.56,5.57,-7.25,16.33,-17.09,98.93,-93.16,-15.49,13.91,3.18,83.5,-46.14,-77.59,1
3.81,-2.01,19.08,-35.4,62.6,-118.02,4.84,-10.82,14.0,-67.09,82.52,-123.0,-11.03,16.77,2.49,82.96,-107.13,-42.14,1
6.05,-6.41,18.31,-42.72,20.12,-124.8,7.88,-14.49,13.91,-30.91,78.52,-108.89,-9.92,15.37,6.18,73.39,-100.68,-33.94,1
8.88,-7.97,19.1,-35.06,8.54,-125.24,5.58,-16.81,12.74,-15.48,81.49,-103.76,-8.73,16.78,8.34,90.04,-86.28,-42.72,1
5.97,-9.55,19.09,0.15,25.0,-120.61,3.4,-16.57,12.13,-23.78,30.76,-27.05,-9.93,16.45,10.41,8.69,-37.65,-29.15,1
4.07,-11.86,18.81,-33.84,19.29,-28.03,2.65,-17.0,14.84,-5.03,4.1,0.2,-11.75,14.49,11.62,-5.27,-9.33,-2.1,1
3.76,-10.36,21.25,-5.42,3.08,1.46,1.64,-14.97,17.37,4.88,5.86,6.4,-15.18,13.97,8.52,-8.25,10.4,-6.1,1
1.15,-6.64,22.21,6.15,11.52,5.52,0.42,-14.18,17.61,7.37,7.42,19.14,-15.78,14.72,7.82,-5.37,13.96,-8.4,1
0.61,-5.22,22.18,3.08,16.31,16.06,-1.2,-11.03,16.23,7.62,10.4,27.73,-14.2,10.98,6.43,-21.88,18.95,-15.43,1
-0.4,-3.54,19.77,10.74,16.11,22.9,-0.83,-10.05,16.47,11.96,-10.6,20.26,-15.7,10.02,4.66,-1.03,22.41,-6.45,1
-1.99,-1.22,18.98,12.26,-8.3,20.75,-0.1,-14.07,17.88,-13.92,-7.08,9.77,-15.89,11.08,6.2,3.61,9.42,-5.08,1
-1.54,-3.57,20.78,9.08,-1.9,12.7,-0.58,-13.38,16.04,1.51,2.39,-12.74,-16.39,13.29,8.31,29.74,2.1,-4.83,1
-0.59,-4.89,20.84,12.6,-1.12,-12.74,2.62,-11.52,16.44,-4.05,-4.93,-14.16,-15.57,13.85,6.93,10.06,-2.88,10.6,1
1.97,-2.96,20.92,-0.73,-13.57,-8.74,2.98,-13.9,16.51,-11.13,-1.42,13.72,-14.53,17.05,8.01,-7.76,2.88,1.95,1
3.6,-1.42,18.85,-51.71,-5.47,159.03,5.03,-11.71,15.97,-45.22,-96.83,133.94,-10.38,16.93,11.01,-24.85,58.2,17.09,2
1.48,-3.23,20.33,-8.25,-57.37,88.43,3.9,-13.99,16.66,-10.55,-94.87,62.01,-11.03,18.31,6.73,-95.22,99.32,38.96,2
3.01,-6.49,20.85,-0.34,-8.25,66.31,5.15,-16.8,17.16,2.64,-48.49,48.83,-14.25,17.32,0.62,-120.56,89.06,3.22,2
-0.61,-2.1,22.36,7.18,-2.93,31.79,1.49,-12.25,18.92,14.11,-14.79,23.05,-15.52,13.75,3.43,-29.93,61.18,53.52,2
-0.97,-0.47,20.65,1.61,13.28,-35.55,2.58,-9.42,17.51,1.76,36.23,-26.81,-14.15,12.97,3.96,-61.82,46.83,13.33,2
2.68,-3.31,21.69,-33.98,-0.34,-69.43,3.91,-13.78,16.4,-48.54,36.96,-63.67,-18.31,15.18,2.58,-29.69,23.68,2.54,2
5.24,-5.73,19.79,-41.89,-7.13,-84.42,5.84,-14.65,12.61,-34.72,49.76,-71.92,-18.22,11.39,1.75,7.76,-28.08,-8.98,2
6.43,-10.24,17.24,-35.69,20.85,-78.71,7.42,-18.4,10.51,-26.86,64.21,-62.01,-15.06,14.63,4.53,33.15,-70.17,-10.84,2
5.62,-10.92,18.09,-5.62,35.25,-104.15,6.29,-20.2,9.5,-3.91,84.91,-78.22,-10.02,16.01,7.0,43.95,-81.49,-14.79,2
4.67,-17.89,13.9,-42.72,21.04,-100.59,2.56,-21.45,7.44,-10.3,61.52,-66.65,-8.72,13.21,9.42,37.94,-68.12,-33.5,2
4.86,-12.37,18.75,1.51,24.46,-47.85,1.28,-18.14,10.26,-4.98,27.2,-19.63,-10.34,14.57,11.16,62.3,-68.6,-42.82,2
0.62,-10.86,18.91,8.98,31.79,-15.97,1.6,-20.5,11.04,15.48,19.38,-9.81,-10.29,15.69,11.65,92.97,-49.27,-32.67,2
-1.27,-5.39,20.6,31.3,18.31,-11.28,3.09,-16.73,14.42,24.12,18.8,-8.35,-10.6,19.52,10.6,59.72,-20.26,-25.54,2
2.23,-4.3,21.04,24.07,7.86,-10.3,4.23,-15.23,15.16,29.98,12.21,2.83,-12.69,11.98,8.39,18.55,-2.34,-25.05,2
1.13,-3.96,20.77,30.27,7.76,-10.89,1.9,-12.57,15.41,19.92,15.67,-3.42,-14.8,15.25,5.37,37.35,11.87,-9.28,2
1.32,-2.95,20.91,8.35,-0.98,-1.56,4.47,-14.08,16.95,8.98,0.0,-9.23,-14.2,15.89,4.46,31.35,12.7,-9.28,2
0.97,-1.87,20.81,12.01,-0.15,-7.86,3.14,-12.21,16.78,2.98,-1.46,-13.18,-14.07,13.9,2.59,32.47,8.25,-4.64,2
1.1,-1.78,21.02,4.78,5.76,-13.53,3.21,-12.12,16.73,13.82,5.47,-12.84,-14.08,14.87,1.95,11.52,7.28,0.73,2
1.63,-1.34,21.4,14.4,0.54,-8.94,3.32,-10.97,17.48,16.85,5.76,-5.57,-14.21,16.58,1.09,16.36,5.66,1.32,2
1.87,-1.72,21.76,-7.81,-4.88,1.95,4.27,-11.14,18.11,-2.69,0.05,5.42,-14.45,14.14,0.48,17.04,8.98,0.2,2
3.77,-7.45,19.51,25.1,-13.96,118.31,10.26,12.89,17.67,107.03,14.11,78.32,-13.89,16.9,-6.05,-82.18,64.84,1.27,3
3.38,-4.09,18.13,33.94,-3.52,99.27,8.68,11.86,17.81,-6.1,-5.03,-35.99,-12.61,19.01,-4.58,20.31,-22.36,-12.89,3
5.66,1.48,19.44,107.62,-10.21,87.7,4.36,6.62,16.41,-66.99,4.64,-73.24,-13.51,14.07,-0.28,43.36,-58.84,-27.78,3
4.25,11.69,19.97,2.49,10.79,44.29,4.68,-1.09,17.38,-132.52,1.27,-108.64,-11.72,18.08,3.73,74.41,-90.87,-14.84,3
5.0,12.51,18.61,-0.49,3.22,-46.44,5.15,-7.06,20.18,-40.72,1.81,-102.93,-10.78,20.67,6.45,104.49,-78.17,-11.62,3
0.51,6.61,18.43,-20.41,4.05,-79.44,8.15,-12.43,22.29,-16.11,-5.62,-110.99,-8.69,19.07,4.8,134.67,-58.64,9.28,3
2.3,2.5,19.53,12.16,-17.43,-111.38,5.4,-2.2,20.4,-37.21,3.22,-58.11,-8.97,21.4,5.21,26.07,-59.96,-12.94,3
3.52,0.28,21.98,-0.78,-22.8,-98.29,1.09,-3.7,20.39,-28.86,15.63,-29.69,-11.63,13.5,4.67,14.79,-32.62,-24.12,3
5.09,2.87,23.27,55.13,-43.55,-108.01,-0.27,1.63,19.24,-27.49,13.09,-12.55,-14.65,14.12,3.43,0.78,-26.81,-17.97,3
5.8,-1.69,22.01,-28.81,1.66,-48.34,-1.33,-4.5,19.82,-16.26,-4.3,-2.1,-13.72,13.01,3.87,5.81,-3.12,-6.49,3
0.11,-3.73,21.37,-17.04,8.89,-26.03,1.98,-3.46,21.42,1.22,-6.59,2.1,-13.87,13.94,3.16,1.56,1.71,4.64,3
-2.22,1.75,20.97,-13.77,5.03,-22.71,2.63,-1.22,21.13,-2.64,1.17,5.47,-14.17,14.09,2.94,-5.96,4.1,-2.93,3
-1.72,0.94,19.87,-6.98,-9.13,0.15,2.36,-2.08,20.9,-3.17,-1.46,3.61,-14.73,14.14,2.86,1.22,7.47,-0.44,3
0.92,1.82,21.5,2.1,-7.76,5.42,1.52,-2.42,20.82,-1.81,0.93,7.08,-13.41,14.43,2.66,1.81,4.64,-1.42,3
0.87,1.19,21.27,-4.25,1.56,5.71,1.94,-2.36,21.15,4.15,-1.66,-0.05,-14.46,14.23,2.58,2.98,0.73,0.15,3
0.39,1.62,20.84,-0.2,-1.51,3.52,1.87,-2.81,21.23,-2.1,1.95,-0.59,-14.62,14.93,2.74,1.86,0.1,-2.78,3
0.23,0.38,20.92,-2.3,1.37,7.13,0.81,-2.65,21.16,-1.37,2.69,-2.1,-15.2,14.95,2.83,4.44,0.39,-2.25,3
0.16,0.92,21.48,-0.73,-2.05,0.78,1.04,-3.01,20.99,0.59,3.42,-1.81,-14.36,15.49,3.09,6.79,-0.29,-0.63,3
0.26,0.4,21.54,-1.03,0.49,0.39,1.74,-2.17,20.99,4.88,0.0,-4.0,-14.54,14.59,2.8,9.23,1.17,0.29,3
-0.56,0.99,21.53,2.64,1.51,-1.81,2.36,-2.08,20.96,4.35,0.73,-6.4,-14.24,13.8,2.48,10.06,-3.08,0.68,3
2.67,-7.1,20.54,16.7,-21.58,61.38,19.47,3.98,17.53,139.45,-33.89,37.21,-4.72,23.37,0.88,13.87,55.03,39.01,4
5.07,-7.35,19.66,31.1,-20.46,85.79,15.98,15.42,16.96,71.04,15.48,5.13,-6.74,21.66,-0.31,-33.55,10.69,-2.98,4
5.99,-7.15,17.48,56.69,-26.9,109.38,10.69,2.88,17.45,-30.08,17.92,-43.21,-8.78,20.74,0.89,36.82,-20.07,-42.38,4
8.44,0.93,15.73,81.45,-40.33,161.04,7.21,3.69,17.14,-58.89,-7.08,-95.36,-11.95,18.2,-0.5,79.35,-74.8,-29.49,4
10.65,-0.33,15.93,62.16,-31.54,123.49,14.38,1.5,17.86,-88.62,-28.03,-124.32,-8.47,21.6,0.7,86.47,-118.75,10.16,4
14.83,13.03,20.0,76.81,11.28,49.12,14.82,-5.45,19.91,-45.36,-8.59,-90.82,-7.51,19.06,4.7,47.22,-88.13,-4.15,4
11.18,8.17,18.79,-13.62,21.68,-8.2,10.32,-2.87,19.37,3.03,24.56,-81.45,-9.07,21.99,3.39,32.96,-73.44,-28.03,4
7.33,9.29,17.44,-38.72,21.29,-60.69,7.72,-1.74,18.51,-26.32,36.13,-86.52,-8.38,15.76,2.39,11.23,-86.82,-40.38,4
4.92,8.9,15.41,-52.59,-40.77,-116.89,4.47,-2.0,17.68,-9.08,45.02,-84.03,-9.98,19.5,3.5,41.36,-74.56,-48.44,4
11.51,3.5,15.77,-75.54,-30.42,-106.35,2.73,-2.95,16.54,-58.11,29.3,-52.44,-12.06,14.37,6.15,-3.71,-63.18,-35.55,4
14.18,-4.03,20.15,-35.6,-5.81,-86.82,-0.77,-12.57,18.51,-26.27,20.65,-15.77,-12.43,13.94,10.97,-8.11,-28.96,-23.63,4
11.07,-2.56,19.39,-58.59,5.03,-70.7,-0.13,-10.69,20.21,17.87,-1.37,0.83,-14.4,11.7,9.51,10.69,1.95,0.15,4
8.71,-5.54,19.14,-56.88,23.97,-79.54,2.62,-3.77,20.24,10.89,0.68,13.23,-14.56,15.02,5.71,-8.25,13.33,-0.15,4
4.29,-2.84,18.69,-52.44,31.1,-66.65,0.39,-4.87,19.56,-1.12,-1.46,-4.98,-13.46,14.02,6.03,-0.73,-1.46,-1.27,4
1.17,-7.93,19.34,-46.39,21.24,-53.86,0.82,-5.59,19.8,-0.88,-4.44,0.73,-13.29,13.82,6.76,-1.9,2.83,1.81,4
-1.33,-8.86,19.83,-27.93,17.77,-13.67,1.46,-4.93,22.27,-6.64,-10.3,6.3,-14.75,16.84,6.06,-6.2,3.32,8.5,4
0.38,-6.42,21.59,2.2,0.68,2.44,2.0,-7.38,20.37,-0.44,-6.15,-5.57,-13.85,15.52,7.48,-1.12,-1.61,6.54,4
2.15,-2.38,20.92,-5.03,-1.46,7.28,1.18,-8.98,19.39,-12.01,-4.05,-3.52,-13.25,15.78,8.71,0.88,-2.2,-0.93,4
1.2,-3.06,20.27,-0.05,-3.27,-2.0,1.05,-8.53,19.9,1.71,-6.88,-3.12,-13.89,14.39,8.49,3.37,2.0,1.86,4
1.15,-2.95,21.24,-0.44,-5.66,0.29,2.02,-8.97,19.98,2.59,-4.83,-1.07,-13.15,15.08,8.48,-0.83,2.54,2.54,4
7.6,-3.95,17.68,48.39,-43.21,124.17,7.6,-9.61,17.02,50.44,-57.28,122.56,-10.17,15.14,9.05,-53.52,92.48,82.71,5
9.13,-0.31,19.56,35.5,-38.82,111.91,11.32,-2.44,18.26,38.82,-46.68,113.04,-10.22,18.5,7.65,-62.5,67.82,81.79,5
8.72,-4.6,19.18,19.24,6.74,96.29,8.33,-7.79,18.52,22.75,-9.52,94.19,-11.69,14.54,11.78,-80.18,80.57,31.4,5
3.07,-0.39,20.37,11.72,9.77,100.29,5.49,-1.43,19.92,29.44,-14.94,105.42,-13.72,14.48,8.57,-79.59,60.45,39.5,5
6.66,5.65,19.34,-16.94,22.22,2.0,8.93,4.85,17.05,-20.17,37.74,-28.27,-16.86,8.05,5.72,-14.8,-6.01,-21.0,5
5.93,-0.34,20.64,-44.43,27.25,-90.62,8.0,-2.82,18.87,-48.24,39.11,-107.23,-15.91,8.42,8.23,61.43,-52.54,-79.2,5
8.34,-6.23,19.13,-39.06,27.78,-133.84,10.21,-7.38,17.11,-35.01,37.74,-142.43,-11.53,8.63,10.37,86.43,-83.3,-80.42,5
8.6,-7.94,18.6,-6.25,9.47,-123.83,10.12,-11.09,16.77,-22.85,24.27,-115.77,-8.23,11.21,13.55,95.07,-67.09,-56.79,5
9.29,-9.02,18.47,-9.96,26.22,-84.81,9.45,-12.72,17.63,-12.06,33.98,-93.51,-10.15,5.81,15.48,56.69,-37.35,-58.15,5
6.9,-8.43,19.37,5.22,44.14,-73.14,6.62,-9.57,17.3,5.37,48.24,-75.24,-12.8,14.06,14.78,65.58,-22.46,-58.2,5
5.67,-7.09,20.22,13.82,30.08,-67.77,5.0,-9.73,18.83,8.35,39.89,-63.33,-12.97,16.39,12.85,71.73,-24.17,-48.63,5
2.29,-6.42,20.27,-8.64,14.06,-32.28,1.83,-9.53,19.37,-27.1,13.57,-27.34,-13.26,11.41,12.21,13.33,-22.56,-22.85,5
1.49,-7.51,20.04,-11.04,6.84,-3.32,4.45,-9.2,20.23,-8.89,-4.35,2.69,-13.06,11.73,12.09,-6.15,-5.22,-7.23,5
1.6,-5.19,20.67,1.81,-1.56,-8.25,2.44,-6.64,19.73,-3.56,-3.03,6.74,-13.43,15.16,10.78,11.67,0.34,-2.05,5
1.46,-5.01,20.49,-0.29,0.73,-3.42,4.15,-6.52,19.61,1.61,-9.86,9.28,-13.36,15.37,10.66,9.08,2.0,-0.1,5
1.27,-3.94,20.42,9.23,-0.54,0.93,3.0,-6.02,19.77,6.2,-5.66,7.08,-14.09,13.32,10.24,-0.0,4.44,1.42,5
1.05,-5.57,20.4,1.17,0.68,2.83,3.58,-7.34,19.64,-1.22,-7.81,-1.86,-14.5,10.61,10.0,-0.29,0.83,-0.24,5
3.29,-5.79,21.17,1.9,5.57,-0.93,2.72,-7.32,20.12,1.86,-1.76,1.9,-14.1,12.39,11.29,6.84,5.03,-5.03,5
1.87,-5.04,20.49,4.93,4.54,0.2,4.6,-6.34,19.65,6.15,-4.74,1.46,-14.09,13.3,10.17,6.49,4.64,-2.0,5
1.95,-4.7,20.42,4.69,-2.2,-2.25,4.11,-5.8,19.86,0.68,-1.66,3.08,-13.8,12.93,10.07,8.79,1.42,0.49,5
1.04,-5.33,20.33,8.01,-6.54,8.11,9.78,-19.17,21.25,-24.32,-65.92,99.41,-10.88,11.29,12.35,-68.07,103.76,36.28,6
3.63,-6.77,22.1,-1.76,-31.64,35.69,7.09,-8.81,13.49,4.25,-111.52,194.73,-21.61,6.62,6.16,-35.4,70.41,6.59,6
10.08,-12.89,20.81,39.45,-43.51,108.15,13.22,-13.23,14.35,13.77,-68.55,177.93,-20.28,8.27,5.48,30.18,-35.16,-33.54,6
10.49,-3.64,17.75,5.08,-100.93,198.93,7.35,-11.3,16.76,59.91,11.47,107.03,-16.74,6.84,11.47,64.06,-84.62,-42.48,6
10.44,-7.68,17.54,31.25,-41.94,180.57,0.11,0.89,19.64,89.11,28.76,49.07,-8.13,9.86,12.63,137.7,-117.97,-62.94,6
7.83,-5.53,17.87,43.46,34.52,103.71,-2.09,1.29,19.08,-52.59,1.42,-51.66,-8.74,18.19,14.94,139.21,-58.06,-66.6,6
-4.2,4.06,20.81,39.75,21.53,46.24,0.63,-8.84,18.78,-70.65,-3.47,-96.87,-10.33,16.49,15.36,89.06,-42.97,-56.35,6
-3.0,0.71,20.17,-34.23,-8.2,-48.29,11.92,-18.02,15.68,-77.78,21.63,-178.96,-11.49,12.22,14.23,70.21,-20.31,-71.24,6
1.41,-6.92,19.04,-54.69,-9.81,-93.99,9.96,-11.31,14.12,-2.0,42.48,-127.1,-12.38,10.46,14.64,28.56,-17.24,-46.39,6
11.1,-11.86,17.4,-36.08,0.1,-170.17,9.75,-8.27,15.43,-22.51,45.41,-74.71,-13.74,10.1,13.16,16.41,-0.73,-12.94,6
9.3,-7.24,18.22,14.21,27.44,-136.38,5.56,-10.1,15.84,-15.14,54.79,-61.57,-14.92,7.63,12.0,7.37,3.08,3.71,6
11.72,-7.91,19.25,-11.77,26.03,-81.4,2.42,-12.5,17.07,-17.63,30.96,-30.81,-15.03,10.67,11.16,-5.86,6.15,1.12,6
6.18,-8.1,19.13,-1.27,47.8,-73.14,2.96,-10.94,17.89,0.24,4.0,-6.88,-14.55,9.89,10.61,-9.03,5.08,-2.54,6
2.84,-9.11,19.29,-9.86,26.81,-36.67,4.31,-8.54,18.64,16.6,2.93,-5.13,-14.05,12.72,10.77,-11.96,-1.37,2.73,6
0.72,-7.92,19.73,4.49,11.82,-8.11,5.35,-8.02,19.33,3.08,-0.88,3.42,-14.93,10.75,10.69,0.88,2.98,2.73,6
3.48,-6.11,20.64,9.08,-7.91,-6.74,3.88,-8.37,18.69,-0.49,1.51,0.05,-14.72,12.34,11.09,0.24,2.93,2.34,6
3.09,-6.49,20.76,-2.78,-2.93,4.79,6.03,-10.03,19.02,-7.67,0.24,8.69,-14.67,12.17,11.23,3.08,4.39,-2.69,6
2.15,-6.04,20.33,-1.03,3.96,1.32,5.5,-9.24,18.97,2.2,2.54,-3.42,-14.59,10.08,11.02,18.95,8.35,-4.3,6
3.43,-6.06,20.56,-6.2,-6.35,10.21,5.7,-7.94,18.76,0.78,-0.73,-0.39,-14.84,10.6,10.08,-11.72,3.22,0.49,6
3.23,-4.99,20.63,1.37,-6.2,1.76,4.78,-8.26,19.18,-6.3,-2.64,2.98,-13.85,11.41,11.07,-1.86,0.88,2.49,6
4.97,-9.98,21.39,7.37,-20.51,62.01,5.91,-7.3,16.99,16.7,-1.71,91.06,-11.29,16.75,15.77,-43.6,30.52,35.99,7
9.98,-4.67,19.63,1.66,-16.6,212.4,2.91,-7.02,20.34,18.85,5.96,74.22,-9.75,23.12,8.96,-171.53,110.64,75.63,7
8.97,-8.05,18.19,31.79,-18.02,181.45,-3.67,2.9,20.25,59.28,32.86,30.03,-12.36,11.04,8.22,-170.17,91.8,71.34,7
4.14,-6.0,18.41,43.21,9.91,90.14,-4.33,0.16,19.79,-52.15,-7.23,-58.59,-13.17,10.39,12.11,-44.68,73.24,28.96,7
0.51,-3.86,20.78,27.73,27.0,75.2,6.69,-10.02,19.21,-56.69,11.08,-170.17,-18.87,6.55,8.71,-55.66,71.97,5.66,7
-7.54,6.0,20.65,3.22,7.32,27.34,3.09,-11.81,17.37,5.71,32.67,-192.33,-22.8,6.91,2.12,-21.83,23.05,1.17,7
-6.35,2.03,19.83,-30.18,-3.76,-51.12,8.91,-9.55,18.84,1.51,19.09,-126.42,-21.42,4.79,3.5,40.33,-46.92,-25.29,7
0.72,-0.63,20.45,13.53,8.11,-161.96,10.34,-10.18,18.71,-56.88,15.63,-70.17,-19.74,7.26,6.53,163.43,-73.93,-60.16,7
-0.77,-6.38,18.98,35.16,13.38,-189.21,7.25,-9.81,18.09,-35.94,30.62,-44.48,-15.13,11.53,7.89,206.74,-64.89,-49.41,7
7.48,-2.85,21.17,24.02,-5.91,-125.2,2.03,-11.81,17.28,-22.8,23.29,-15.33,-11.76,18.33,11.17,140.92,-52.78,-24.56,7
9.1,-5.43,21.17,-15.67,1.95,-65.92,-1.14,-10.26,17.12,16.16,12.79,-7.81,-9.59,15.22,13.0,53.71,-52.2,-27.2,7
5.86,-7.35,21.06,-28.22,23.05,-50.63,1.36,-8.63,19.24,10.89,4.88,4.2,-12.48,11.35,13.29,24.27,-31.49,-40.33,7
1.39,-8.14,19.59,-25.73,18.7,-24.85,3.26,-7.44,19.42,13.48,3.71,4.1,-13.11,10.42,12.81,7.42,-15.33,-30.52,7
-0.84,-7.28,19.49,5.13,2.15,-12.11,3.58,-7.44,19.04,3.91,5.18,0.0,-15.18,10.17,12.03,26.56,2.44,-2.78,7
1.63,-4.83,21.48,7.52,4.64,1.61,4.02,-7.28,19.15,6.49,-1.07,-1.9,-15.23,12.53,11.61,11.82,8.2,-1.61,7
1.89,-3.77,21.5,7.52,6.79,2.2,3.86,-6.73,19.25,3.22,-0.05,-2.83,-15.53,13.28,10.09,12.84,11.77,-3.47,7
1.7,-4.06,20.63,3.47,5.57,4.25,3.9,-7.2,19.48,5.42,0.88,-4.59,-15.79,10.51,9.84,-0.34,10.11,-4.79,7
1.03,-3.21,21.07,6.49,-2.0,-1.81,3.69,-6.22,19.31,2.78,1.07,1.27,-15.48,11.51,9.2,11.91,2.98,1.61,7
1.13,-3.15,21.04,3.22,-3.91,-1.71,2.95,-6.42,19.23,5.32,-0.29,-1.07,-16.38,10.1,9.2,1.66,2.83,1.22,7
1.55,-3.75,20.94,2.93,-2.05,-1.76,3.85,-6.93,19.81,3.03,0.34,-1.51,-15.62,10.43,9.48,4.78,3.47,0.29,7
11.11,-7.01,23.1,-2.73,-34.77,91.85,17.33,-9.03,15.69,76.76,-71.92,118.26,-16.84,9.36,8.71,-122.71,97.31,25.83,8
9.25,-11.79,17.63,-6.79,-58.15,205.62,11.13,-9.17,17.84,51.51,-19.68,70.41,-14.13,12.57,10.07,-62.89,69.73,16.41,8
8.55,-6.46,19.22,16.31,-20.7,115.92,4.84,-5.6,18.21,51.71,31.3,104.69,-16.84,7.01,3.41,-110.01,87.7,-29.1,8
9.8,-5.47,20.88,14.65,-15.58,68.6,-5.01,4.95,17.92,-3.71,2.54,-59.28,-25.49,-6.5,-1.25,13.62,-16.41,-11.13,8
3.03,-2.02,18.71,12.16,43.31,112.7,4.23,-0.89,19.48,-41.36,-13.62,-104.93,-20.57,3.7,3.42,80.71,-62.06,-25.63,8
-9.56,2.67,18.62,3.66,-4.64,-31.69,8.32,-9.14,18.1,-4.69,24.32,-191.21,-15.82,13.53,4.41,202.93,-90.14,-9.57,8
-0.17,-0.85,20.31,-26.9,-10.35,-92.92,12.69,-8.74,18.21,-25.73,14.5,-110.11,-14.03,25.52,10.36,148.34,-46.14,-4.1,8
1.0,-2.17,19.83,69.63,-6.3,-184.96,14.05,-7.95,19.56,1.86,53.03,-70.17,-12.44,17.35,11.54,49.95,-38.28,-28.96,8
12.03,-3.79,20.54,2.05,-24.22,-112.55,9.5,-9.49,18.34,-5.96,64.06,-52.73,-14.08,14.32,11.14,35.99,-23.29,-62.4,8
12.56,-4.01,23.0,-3.91,19.38,-71.53,5.16,-14.08,16.87,-12.11,47.66,-27.64,-11.17,10.89,12.02,14.79,-33.15,-52.05,8
9.32,-5.52,20.98,-29.88,43.85,-61.72,-1.0,-13.46,17.22,-18.21,15.38,-12.45,-15.72,8.29,10.77,5.71,-8.54,-31.74,8
5.5,-10.56,19.48,-29.05,34.96,-41.75,-0.21,-12.71,17.25,-4.2,2.0,3.42,-16.59,8.39,10.87,-5.22,-0.88,-11.67,8
-1.97,-9.67,18.44,-15.28,27.25,-15.14,0.47,-10.78,18.34,2.49,2.1,5.32,-17.54,8.85,9.63,-7.08,0.78,-5.03,8
-2.56,-9.21,19.11,-9.81,9.33,-1.03,0.24,-10.88,18.89,-1.27,-0.2,7.28,-16.72,9.28,9.51,-10.84,-0.44,-3.37,8
-2.05,-7.92,19.56,1.56,4.15,8.84,1.0,-10.75,18.95,-3.91,-3.52,1.56,-17.26,9.91,9.74,3.12,-0.39,1.03,8
-2.02,-6.51,20.37,2.2,6.64,9.47,0.43,-10.06,18.68,-2.2,0.68,0.05,-17.67,10.0,10.02,5.47,1.81,-0.63,8
-1.54,-6.89,20.74,0.73,-2.44,2.29,-0.12,-8.66,18.35,1.51,2.64,-5.27,-17.28,9.38,9.55,14.11,2.15,-2.83,8
-1.07,-6.3,20.98,3.03,-1.56,-1.27,-0.44,-10.2,18.19,-5.03,8.4,0.2,-16.97,6.87,10.19,1.03,-5.32,-3.42,8
-1.1,-6.0,20.44,5.57,1.66,-6.4,0.45,-11.1,17.65,-0.63,4.83,-4.0,-16.69,5.93,10.72,4.05,-4.15,-3.08,8
-0.08,-6.72,20.82,-1.22,-4.15,-5.91,-0.32,-11.59,17.68,0.78,2.64,-8.69,-16.9,5.72,10.76,1.27,-3.66,-2.49,8
9.82,-18.41,18.55,-15.38,-81.74,103.76,12.68,-13.45,10.15,0.24,-164.84,99.9,-10.68,18.23,8.46,-110.4,46.78,107.37,9
0.47,-18.94,13.63,-9.96,-84.23,186.96,9.49,-11.25,15.59,28.95,-46.24,70.9,-14.5,12.24,11.52,-51.61,21.29,68.36,9
3.62,-14.29,16.43,33.15,-107.13,156.2,5.46,-9.92,18.14,19.92,11.96,24.22,-17.1,9.51,9.66,-9.42,20.36,-4.44,9
8.83,-10.46,16.2,29.78,-102.49,121.83,1.36,-9.54,16.37,-23.05,45.8,-31.15,-17.66,4.23,10.44,26.56,-28.42,-37.7,9
6.21,-5.74,21.12,31.2,-25.83,72.95,0.48,-11.39,14.01,-29.0,72.41,-69.34,-18.81,4.5,10.97,39.45,-51.86,-63.62,9
1.0,-3.2,20.68,12.16,31.49,11.18,3.47,-19.26,10.61,-40.92,92.38,-114.11,-11.65,7.4,13.7,105.22,-90.67,-71.0,9
-0.26,-6.04,19.54,-21.05,31.3,-43.31,5.22,-17.89,9.65,0.39,86.82,-100.63,-7.89,14.25,15.52,109.28,-69.09,-60.94,9
-1.43,-8.11,18.39,-40.58,33.54,-92.63,8.62,-16.41,12.55,8.15,74.07,-57.42,-8.89,14.69,14.39,60.11,-31.64,-64.94,9
3.69,-13.58,17.39,-14.94,30.57,-132.57,5.97,-17.97,12.1,9.81,72.75,-55.81,-10.17,13.34,15.74,66.36,-29.05,-57.62,9
6.24,-13.96,16.86,14.55,30.96,-110.21,4.33,-19.06,11.74,-6.93,46.09,-31.45,-10.24,8.2,16.26,25.1,-19.29,-44.24,9
7.32,-11.68,17.73,-0.59,55.42,-78.22,2.27,-17.27,13.91,-3.71,17.14,-10.45,-11.76,8.72,14.09,8.69,-4.83,-20.61,9
6.27,-13.19,17.56,4.98,47.8,-71.19,1.79,-16.35,15.13,-0.83,2.1,8.01,-14.04,10.05,13.33,-11.23,7.52,-6.05,9
3.77,-15.6,17.12,-6.69,38.09,-42.19,1.2,-14.11,15.59,3.61,-0.83,6.74,-13.6,11.22,11.69,-1.61,9.67,-1.07,9
2.33,-11.87,18.62,-0.15,15.72,-11.87,3.4,-14.55,16.14,8.74,0.88,-0.59,-13.16,11.21,10.64,8.4,3.81,4.69,9
1.05,-10.61,19.62,-4.54,4.79,6.93,1.51,-13.53,15.95,2.93,0.54,-4.1,-14.31,9.42,11.11,0.98,1.42,0.73,9
0.56,-8.34,19.6,6.3,2.73,8.45,2.46,-14.85,16.09,-3.61,1.56,0.24,-14.49,10.85,11.36,-7.57,6.25,-4.2,9
3.02,-7.0,20.0,6.15,-7.08,-0.68,1.7,-13.76,15.66,2.1,4.1,1.42,-13.52,13.44,11.76,9.28,1.56,-4.35,9
0.96,-8.22,20.06,2.83,-2.54,-3.37,2.48,-15.0,16.45,3.32,7.37,-2.05,-14.48,10.72,11.33,1.46,2.05,-3.22,9
0.33,-8.06,19.58,0.1,0.54,0.63,2.3,-15.36,16.21,7.13,-4.39,-0.68,-14.27,10.69,11.51,0.2,4.59,0.0,9
2.08,-7.83,20.14,-1.37,2.93,-0.24,2.96,-13.04,16.01,13.33,-1.95,-1.9,-13.98,11.07,10.67,0.15,12.5,1.51,9
3.1,-10.57,20.0,7.57,-12.35,5.91,1.62,-15.49,14.03,27.54,-34.23,65.14,-9.24,13.87,14.9,19.14,36.47,13.77,10
5.52,-11.61,19.76,20.95,-10.4,58.01,10.41,-16.93,15.21,2.15,-116.85,196.58,-9.35,21.37,11.62,-75.2,82.08,31.59,10
12.41,-8.69,19.71,-6.3,-65.09,200.29,12.29,-13.49,13.99,-27.34,-130.13,209.28,-10.84,20.79,3.36,-209.42,123.05,52.98,10
13.44,-4.9,18.91,-19.19,-55.27,221.88,5.17,-9.88,16.21,61.57,-1.76,107.52,-10.28,11.3,2.87,-239.55,108.3,42.09,10
5.38,-4.9,18.24,49.12,8.89,127.88,-1.01,-3.38,19.01,43.16,11.91,48.54,-15.95,9.54,7.93,-80.22,81.05,22.61,10
-4.74,-1.84,21.19,35.35,25.73,76.71,-1.18,-2.24,18.12,9.91,4.0,-30.86,-23.03,3.07,6.39,-38.38,38.92,10.6,10
-6.32,-1.43,20.19,4.49,4.44,5.47,-0.28,-7.77,17.85,-50.0,29.05,-70.12,-22.0,2.4,5.13,43.7,-18.02,-8.69,10
-3.13,-2.76,20.3,-26.76,5.62,-55.71,0.26,-15.7,17.12,-19.09,77.88,-131.35,-18.07,4.22,7.75,65.33,-53.66,-41.94,10
-2.21,-9.41,19.61,-16.7,40.67,-127.05,-0.07,-15.95,15.01,6.59,75.15,-112.45,-17.23,7.33,8.79,153.71,-63.87,-66.8,10
-2.42,-12.48,18.49,30.76,59.62,-132.67,-0.45,-15.05,14.17,29.05,75.88,-113.23,-16.63,10.51,11.4,140.33,-46.44,-54.0,10
-1.77,-10.74,18.9,55.13,38.87,-142.58,0.51,-17.19,16.99,10.5,42.77,-65.14,-13.35,18.63,11.74,162.84,-53.71,-35.01,10
0.79,-11.32,20.11,9.81,32.91,-70.07,-0.42,-13.92,15.18,13.62,42.09,-32.37,-16.44,11.63,13.93,77.78,-30.18,-24.46,10
3.09,-10.34,20.13,22.41,20.7,-60.89,-0.52,-15.67,16.57,14.65,27.15,-10.4,-14.73,15.51,12.41,30.18,-12.21,-29.25,10
-0.92,-11.96,19.14,-3.56,22.31,-14.94,-0.76,-12.88,16.73,0.93,14.6,-11.52,-16.32,8.55,10.93,33.89,3.52,-19.97,10
-2.25,-8.13,19.71,3.08,12.99,-14.45,-2.55,-14.03,16.37,-2.34,1.66,-5.08,-17.14,7.41,9.54,14.31,0.68,-13.62,10
-3.23,-8.17,19.38,1.9,10.11,-12.3,-0.23,-11.02,16.85,15.43,-9.96,3.08,-17.41,7.86,10.3,5.03,-0.93,-2.98,10
-2.37,-8.39,19.08,8.98,-5.13,3.61,0.89,-11.8,19.37,-2.15,-1.03,-2.29,-16.95,9.14,8.75,4.54,13.04,8.4,10
-1.03,-5.18,22.22,6.45,-12.84,5.27,-0.85,-12.27,17.28,5.13,3.86,0.83,-18.8,10.13,8.68,1.95,1.27,1.71,10
-1.74,-7.47,20.6,1.51,6.49,-1.27,-0.3,-12.02,17.87,2.0,2.39,-4.98,-16.72,8.44,8.9,3.52,4.98,-4.98,10
-2.29,-6.52,20.25,-0.29,2.05,2.64,-0.8,-12.28,17.59,-4.49,-1.95,-1.51,-17.7,7.69,8.48,6.01,1.32,-1.37,10
3.61,-7.54,18.95,31.2,-30.86,182.08,1.39,-10.48,16.57,-0.05,-79.64,172.07,-19.58,10.92,5.32,-170.85,73.39,48.68,11
1.47,-4.79,19.67,12.26,-47.85,183.64,10.51,-15.19,18.7,19.04,-49.95,100.59,-24.61,-5.41,5.06,-141.94,66.65,27.54,11
-1.75,-3.71,20.53,21.83,9.13,128.42,0.1,-9.36,18.82,-8.55,-31.2,34.23,-21.31,3.82,4.81,-37.11,13.09,21.04,11
-4.09,-2.93,20.46,-0.54,-16.5,46.53,-1.9,-7.94,18.69,-13.72,2.78,-3.03,-21.82,1.51,4.19,-3.27,-12.6,3.32,11
-5.26,-2.61,20.45,-5.66,-3.08,-0.44,3.26,-11.36,18.8,-27.54,26.42,-25.29,-20.52,1.64,7.11,13.53,-40.97,-15.67,11
-0.26,-5.13,20.98,-33.4,6.25,-28.52,3.96,-9.04,17.6,-35.5,84.96,-115.58,-20.86,5.13,6.71,107.96,-59.52,-69.19,11
1.73,-4.25,20.46,-48.05,41.26,-120.36,5.4,-17.78,13.84,-45.51,80.13,-180.32,-14.39,11.8,8.83,171.68,-93.36,-85.45,11
7.14,-8.14,18.25,-35.3,48.54,-179.88,9.56,-18.44,13.55,-11.28,68.41,-102.54,-9.98,10.69,15.19,79.83,-64.55,-65.19,11
8.73,-11.78,18.15,-18.31,30.27,-122.17,9.15,-22.91,11.26,-6.79,104.64,-131.15,-11.76,5.71,15.63,125.68,-54.3,-80.08,11
7.22,-16.5,15.88,-7.57,64.65,-144.68,4.44,-20.47,12.5,1.86,84.96,-79.3,-10.82,15.06,16.45,117.43,-33.2,-64.84,11
7.78,-14.16,17.21,14.06,69.87,-109.28,2.6,-19.45,14.11,0.83,55.37,-30.86,-14.17,10.65,15.27,45.21,-9.33,-46.19,11
3.38,-13.17,18.59,1.81,50.15,-47.36,-0.75,-13.73,15.46,10.79,29.15,2.78,-15.95,10.79,11.63,23.1,15.72,-28.86,11
0.13,-9.63,19.24,16.16,34.67,-11.82,-0.06,-11.68,16.88,21.87,-1.07,9.13,-17.03,9.0,9.45,12.06,28.17,-8.3,11
-2.0,-8.12,18.99,13.09,12.79,14.89,0.29,-10.7,18.3,11.28,-0.24,-3.96,-18.06,8.76,7.78,13.48,9.81,1.22,11
-1.57,-6.08,20.14,11.87,2.39,-2.64,2.35,-11.27,18.69,-7.91,-13.67,-6.59,-17.55,13.09,7.05,4.3,-4.79,4.2,11
-2.03,-4.7,20.03,-1.22,-5.03,0.68,1.59,-12.14,17.93,-4.74,-6.25,-6.01,-17.16,12.24,8.36,10.55,-6.74,3.03,11
-0.5,-5.62,20.8,2.78,-6.74,-9.86,1.76,-11.79,18.28,1.51,-2.2,3.08,-18.31,9.91,8.7,2.78,9.08,2.54,11
-0.03,-6.04,21.0,5.66,-4.05,5.42,1.52,-11.13,18.37,2.15,-0.49,1.46,-17.29,9.88,7.91,2.54,3.71,-1.81,11
-0.22,-6.29,20.57,0.93,-0.39,2.1,0.24,-10.64,18.06,1.27,1.95,2.54,-17.26,9.31,7.03,-1.22,3.37,-0.29,11
-0.09,-5.16,20.67,1.56,-3.61,2.39,1.9,-11.18,18.63,4.64,0.29,-0.88,-18.01,8.9,7.92,3.22,2.98,2.69,11
2.36,-11.15,20.31,-47.41,-9.03,216.36,2.87,-11.36,18.88,-10.89,-81.93,78.08,-15.98,5.75,7.64,-205.71,105.96,12.11,12
-1.1,-6.61,19.43,15.14,-19.58,154.0,2.22,-11.8,20.22,6.1,-51.95,60.79,-20.79,3.04,3.77,-128.66,101.71,18.6,12
-2.25,-3.28,20.76,13.62,-43.21,127.44,0.01,-5.85,20.49,11.43,1.95,8.74,-22.65,5.06,3.58,-112.6,36.18,52.69,12
-3.32,-5.03,20.68,-10.11,-43.16,93.6,-5.91,-7.32,19.24,-21.05,34.23,-55.71,-20.33,4.65,3.78,-76.76,16.94,35.84,12
-2.73,-5.64,20.83,0.63,-9.08,64.45,-1.67,-11.43,17.88,-11.28,25.49,-87.11,-20.44,2.68,3.17,-57.52,36.38,11.13,12
-5.6,-1.42,20.72,-6.54,10.5,0.2,1.15,-14.1,16.98,0.63,55.27,-114.94,-23.68,-0.78,0.91,12.3,7.42,-17.53,12
-4.72,-0.89,21.1,-23.97,7.62,-58.94,1.43,-16.16,15.31,-1.27,62.99,-135.11,-22.8,4.41,2.4,47.7,-39.36,-30.27,12
-3.02,-6.28,19.9,-35.25,-1.95,-86.43,2.81,-19.22,12.98,-46.14,39.65,-78.37,-19.91,3.54,4.52,67.87,-58.5,-25.49,12
-0.37,-7.74,19.3,-9.33,21.78,-126.71,2.04,-19.09,12.72,2.98,48.1,-56.79,-18.84,2.84,6.58,107.08,-59.57,-40.87,12
0.98,-9.32,18.72,13.09,21.34,-146.14,3.28,-16.37,14.67,19.78,48.19,-43.75,-16.79,5.75,9.32,126.51,-65.77,-35.35,12
2.76,-11.19,17.6,-5.32,15.09,-86.33,-0.5,-15.8,13.48,7.42,40.82,-37.35,-12.38,9.57,15.37,53.76,-68.46,-16.11,12
4.31,-13.68,18.74,9.03,24.37,-71.68,0.22,-17.2,14.27,6.59,19.14,-13.77,-13.09,13.85,14.89,71.34,-40.38,-19.82,12
2.59,-10.75,18.94,17.53,31.93,-55.66,-0.09,-14.33,15.28,17.58,14.65,-6.64,-15.36,9.43,10.71,72.02,-14.7,-28.47,12
0.78,-11.11,18.31,2.64,26.61,-43.99,1.1,-14.65,16.48,4.49,0.44,2.93,-14.89,10.09,11.69,35.4,-18.16,-24.27,12
1.72,-12.19,18.91,1.71,9.33,-20.46,0.55,-13.73,16.4,4.39,-0.49,-1.07,-14.96,10.25,12.45,11.91,-2.69,-13.28,12
0.55,-9.76,19.27,15.38,11.57,-11.82,0.94,-14.02,16.63,-0.78,-2.83,0.29,-15.65,10.63,10.33,22.61,5.47,-7.57,12
1.4,-8.99,19.81,2.93,-0.63,4.79,0.57,-12.92,16.78,1.76,0.49,2.1,-15.81,9.88,9.42,-2.05,7.67,-0.83,12
0.26,-8.28,19.52,3.66,1.22,1.37,0.51,-13.15,16.76,1.95,-0.39,0.59,-16.36,10.09,8.71,4.93,5.66,-0.15,12
0.44,-7.77,19.96,0.49,-1.12,3.52,0.04,-13.29,16.58,1.42,0.59,-2.49,-15.86,11.32,8.45,-2.0,1.95,0.93,12
1.05,-7.49,20.35,4.44,0.68,-0.15,0.4,-13.13,16.88,4.54,0.59,-4.44,-16.15,12.32,8.85,3.86,4.44,-0.98,12
2.84,-5.47,23.39,-24.12,19.63,155.22,1.0,-5.27,20.61,3.71,-3.08,-0.05,-18.37,9.88,4.51,-79.88,59.81,-12.21,13
2.84,-0.93,21.17,-11.77,40.72,176.95,0.99,-4.9,20.72,0.1,-0.68,0.78,-21.74,4.55,1.19,-93.07,59.23,-9.13,13
1.26,3.83,20.77,3.32,47.36,114.36,1.02,-5.48,20.53,-1.03,-0.2,-1.22,-22.7,2.65,-2.45,11.72,-6.2,0.68,13
-3.08,0.32,20.37,-13.23,50.68,78.13,0.24,-5.05,20.57,-5.86,0.15,0.73,-22.14,3.29,0.16,75.59,-41.8,-7.76,13
-10.69,2.63,17.79,-28.22,37.3,89.21,0.86,-4.86,20.53,-1.61,-3.12,0.88,-19.5,4.02,5.35,87.89,-56.2,-2.73,13
-11.38,4.82,17.19,-10.16,-19.92,-25.49,1.26,-5.18,20.75,-0.83,-2.1,-0.24,-15.99,3.66,7.72,63.53,-46.83,-7.47,13
-10.13,2.96,17.86,13.09,-19.68,-76.56,0.79,-5.24,20.46,-1.56,-0.44,-0.34,-14.01,7.53,6.95,98.05,-48.0,3.76,13
-7.5,-1.08,20.47,14.36,-31.98,-76.51,0.92,-5.39,20.65,-0.93,-0.88,0.78,-16.01,8.25,5.31,129.44,-48.63,4.93,13
-7.52,-3.79,20.41,33.54,-9.03,-62.35,0.99,-5.42,20.64,-3.56,-1.37,0.15,-14.03,18.0,7.21,92.82,-48.63,-3.42,13
-4.35,-0.98,20.19,66.65,-19.92,-89.06,2.16,-5.0,20.7,-0.39,-3.56,-2.0,-13.9,11.78,9.58,15.48,-37.16,-16.16,13
-1.93,-2.06,20.48,53.37,-24.8,-118.21,1.31,-5.65,20.81,1.81,0.78,-1.46,-15.74,11.53,9.09,40.09,-21.83,-17.33,13
3.29,-2.38,22.54,11.62,-9.47,-76.46,0.65,-5.72,20.31,-2.0,1.22,-1.27,-16.17,11.91,9.23,16.45,-18.41,-16.8,13
2.94,-3.55,22.71,11.72,12.06,-47.07,0.96,-5.28,20.57,1.61,1.76,-0.34,-16.56,12.05,9.12,17.19,2.78,-8.01,13
0.52,-3.01,21.75,4.35,2.83,-43.46,1.01,-5.14,20.59,1.37,-1.46,-0.49,-16.71,9.95,7.34,4.59,3.71,1.51,13
-2.09,-4.19,21.22,0.05,4.05,-21.09,1.23,-5.11,20.6,0.05,-0.1,-0.88,-16.76,10.89,7.05,-1.32,3.76,0.0,13
-1.53,-3.8,21.35,-4.25,0.73,-4.59,0.64,-4.83,20.49,2.1,-0.73,-0.54,-17.12,10.09,6.97,-6.15,3.42,-1.66,13
-1.0,-2.12,21.33,6.64,-6.01,-0.15,1.5,-5.31,20.68,1.81,1.61,-0.63,-16.57,11.22,6.92,0.54,2.05,-2.59,13
-0.73,-2.09,21.41,-2.25,-1.51,2.49,1.35,-5.51,20.41,10.94,1.32,-1.32,-16.55,11.61,7.3,6.25,0.05,1.37,13
-0.99,-1.06,21.28,1.9,2.34,0.73,1.28,-4.91,20.72,2.78,-0.73,0.05,-16.59,11.02,7.34,3.27,-0.24,0.73,13
-1.59,-2.07,20.99,-5.76,0.29,2.2,0.58,-6.07,20.54,-1.61,-2.34,0.44,-16.87,10.68,6.92,1.42,0.1,1.22,13
-6.47,1.32,20.77,-2.49,35.11,90.58,-4.19,2.66,20.53,4.98,34.67,100.29,-21.98,3.27,1.8,-102.78,76.66,-2.1,14
-8.49,5.15,18.05,-0.1,44.43,70.56,-4.28,-2.32,19.72,17.63,37.11,78.61,-19.67,4.14,0.28,-66.7,53.91,-9.03,14
-11.25,0.83,17.25,-18.55,13.23,26.12,-8.15,4.48,16.79,4.54,6.64,26.56,-24.03,0.46,-1.55,-48.63,12.7,-8.89,14
-10.48,5.84,17.62,-0.98,-25.15,-40.23,-10.73,5.01,17.66,13.43,-8.15,-42.04,-22.36,3.62,-2.29,38.33,-19.78,-2.39,14
-10.42,2.37,18.13,-0.44,-24.41,-69.19,-8.88,1.79,18.65,-14.31,-23.44,-73.63,-21.42,2.63,-0.57,59.23,-42.24,-5.03,14
-3.51,-1.82,20.57,-31.98,-19.58,-80.62,-3.33,-0.24,20.35,-31.84,-32.71,-86.08,-19.79,5.84,3.59,71.39,-59.77,-9.37,14
-6.06,0.02,17.34,8.89,-35.01,-73.54,-6.92,-19.59,21.22,-9.08,-36.43,-97.02,-17.84,8.22,7.49,88.13,-53.03,-1.71,14
-0.64,-1.3,20.66,33.5,-54.2,-97.75,1.12,-7.71,20.43,45.7,-31.54,-106.64,-15.93,11.12,7.0,110.4,-57.42,25.29,14
1.71,1.39,21.03,54.69,-53.96,-114.94,4.2,-5.28,21.18,41.94,-25.73,-127.34,-15.17,11.45,5.49,119.14,-59.91,15.23,14
9.29,4.79,23.49,30.52,-53.37,-74.51,7.77,-2.58,22.2,19.92,-20.17,-72.61,-11.56,25.67,7.47,86.08,-62.89,12.94,14
2.96,-0.41,22.14,-14.31,2.83,-36.28,4.07,-5.05,21.32,-16.94,14.31,-36.57,-14.6,13.74,9.0,8.94,-28.12,-23.68,14
1.05,-0.15,21.6,-7.42,11.96,-28.17,0.8,-6.11,20.5,-17.68,18.07,-23.93,-14.46,13.25,9.74,12.6,-25.49,-22.41,14
0.39,1.22,21.46,-11.57,11.13,-39.16,0.23,-3.64,19.91,-27.25,26.32,-35.21,-16.44,12.09,8.47,21.78,-26.71,-32.28,14
-1.42,-1.74,20.68,-22.07,19.58,-17.77,-1.24,-8.58,19.87,-27.73,11.87,-8.2,-13.99,9.72,9.39,3.86,-7.47,-32.28,14
-1.65,-2.19,21.08,-0.78,-3.81,-3.47,-0.29,-7.15,19.94,3.17,-0.49,-2.73,-16.11,9.87,9.23,0.15,-1.56,-3.47,14
-0.3,-1.61,21.85,2.78,2.25,5.47,-0.52,-5.88,20.42,2.39,5.62,7.42,-16.37,10.54,9.77,3.52,6.35,-1.56,14
-0.43,-0.83,21.1,5.18,3.03,2.49,0.27,-5.54,20.34,7.52,2.54,3.66,-16.38,11.08,7.79,5.91,8.64,-0.15,14
-0.75,-0.07,21.3,4.25,-1.37,1.81,-0.58,-4.7,20.32,1.03,3.66,-2.39,-17.24,8.54,7.7,-5.81,7.03,-0.24,14
-0.81,-0.57,21.48,1.37,-1.56,2.49,0.88,-5.38,20.94,-0.44,0.29,-1.81,-16.58,10.16,8.19,-3.86,1.81,1.42,14
-0.9,0.08,21.4,-0.93,-0.2,1.9,0.4,-4.69,20.33,-1.47,-3.37,-2.78,-16.4,11.35,8.28,1.12,1.37,-0.29,14
1.41,-1.1,21.3,9.37,37.94,140.28,-1.95,-1.57,19.29,31.49,28.61,82.52,-14.63,13.95,7.79,-126.76,94.04,22.51,15
0.43,0.44,20.89,21.83,17.19,97.12,-4.7,-1.07,19.56,31.98,21.48,59.57,-16.49,6.95,6.95,-71.53,88.82,17.48,15
-4.47,3.89,19.53,15.53,49.17,70.75,-4.69,3.31,19.98,-7.57,8.64,47.56,-19.16,7.99,3.41,-57.23,77.49,-5.32,15
-7.82,5.67,18.78,28.17,33.01,51.42,-5.11,7.25,18.49,21.39,-15.77,-35.55,-20.86,7.46,-0.07,-28.96,56.4,-0.63,15
-7.69,6.02,18.45,-20.75,16.16,45.56,-6.87,2.81,17.57,-17.92,-17.48,-118.16,-21.27,2.16,-2.35,-48.93,24.71,-11.38,15
-10.51,7.73,17.36,-26.9,-6.74,-37.74,-4.84,-4.31,17.41,-26.51,-11.47,-169.87,-23.6,0.96,-4.22,35.3,-25.59,-13.33,15
-8.52,0.42,17.2,-25.93,-16.31,-113.82,2.05,-5.84,19.69,6.25,-22.31,-139.16,-22.29,2.64,-1.51,97.12,-66.46,-17.04,15
-4.89,-7.58,16.92,1.9,-12.84,-155.22,10.04,-1.05,21.45,-9.96,-10.45,-79.1,-13.88,2.81,2.3,155.18,-97.9,16.16,15
0.47,-4.26,20.04,15.58,-49.8,-121.44,8.16,-3.14,21.44,-17.19,7.03,-68.12,-13.13,10.98,6.02,124.66,-83.59,26.9,15
8.0,-0.04,23.31,-15.97,-45.46,-74.8,3.93,-7.47,19.84,-22.12,21.63,-51.37,-13.39,17.32,7.66,48.24,-71.24,7.42,15
5.94,-0.91,22.76,-2.83,-28.42,-60.55,1.08,-10.49,18.53,-37.35,30.96,-35.16,-12.9,18.59,8.65,37.7,-59.08,-3.71,15
2.47,-1.38,22.11,-18.07,2.49,-57.08,-0.87,-11.85,17.94,-16.26,17.63,-15.38,-12.84,14.03,11.58,23.39,-46.97,-31.49,15
0.3,-4.52,21.4,-26.61,14.31,-46.0,0.67,-8.35,18.96,9.33,1.56,-1.07,-13.54,10.93,12.53,17.92,-33.01,-36.47,15
-2.78,-5.65,20.56,-14.21,13.62,-20.51,2.33,-8.71,19.76,8.79,-4.39,6.93,-15.22,6.09,12.71,10.94,-11.62,-21.29,15
-0.12,-4.21,20.79,-4.15,-10.6,-9.62,2.15,-7.76,19.77,1.76,-2.73,8.74,-15.36,10.34,11.14,34.96,6.74,-0.39,15
0.57,-2.68,21.4,1.27,-4.98,6.35,2.5,-7.28,20.04,9.86,-1.03,6.93,-14.96,10.48,10.15,-0.34,8.89,3.37,15
0.19,-1.76,21.36,4.15,-0.63,11.47,1.19,-7.03,19.32,6.54,2.05,-0.34,-15.46,11.42,9.65,-11.57,7.03,3.52,15
0.8,-1.7,21.7,2.29,-1.66,3.32,0.06,-7.48,19.23,0.88,5.66,-3.42,-15.2,12.1,9.89,-0.15,7.91,-2.15,15
0.11,-1.77,21.22,2.59,-6.45,-3.66,1.25,-7.58,19.85,-1.95,2.05,0.73,-15.25,10.75,9.4,14.45,1.12,0.44,15
-1.02,-1.66,21.07,3.17,1.76,1.17,1.66,-8.0,19.85,-1.27,-1.71,0.49,-16.53,9.74,8.71,3.95,1.07,-0.49,15
7.49,-10.51,25.85,-78.76,-11.33,172.75,-15.84,3.29,14.76,82.62,40.43,28.37,-14.67,11.78,10.38,2.05,3.81,-1.22,16
1.32,-3.5,21.24,-18.85,20.12,174.17,-14.36,9.94,14.12,-18.41,-22.07,0.39,-14.33,11.73,9.99,3.47,3.86,-0.15,16
0.39,0.4,20.94,14.01,35.01,97.75,-11.3,1.65,17.83,-35.01,-32.37,-26.46,-14.43,12.45,9.5,9.72,-0.39,2.1,16
-7.34,0.87,18.74,29.69,63.67,91.36,-9.88,-1.43,18.76,-57.08,-41.75,-59.96,-14.31,12.09,10.15,1.56,1.86,-0.44,16
-14.62,5.29,12.3,40.43,36.38,48.93,-1.36,-8.32,20.91,-14.21,-66.46,-98.54,-13.99,11.72,9.87,0.83,1.46,-0.59,16
-12.71,6.98,16.01,-12.5,-21.97,3.27,4.4,-6.25,21.54,4.35,-21.04,-142.92,-14.3,13.48,9.53,7.91,3.56,-1.76,16
-11.99,5.14,17.68,-17.82,-24.56,-10.01,5.86,-3.42,20.18,-4.79,-9.03,-122.95,-14.28,11.92,9.17,1.46,2.54,-0.54,16
-9.93,0.45,18.7,-20.22,-34.72,-21.83,7.14,-6.19,20.41,-25.24,2.98,-103.66,-14.36,13.33,9.58,2.64,3.86,-1.32,16
-6.29,-0.78,19.41,31.1,-70.7,-91.55,6.32,-9.55,20.31,-27.1,21.83,-55.81,-14.06,12.12,9.46,4.88,1.42,-0.44,16
1.68,-3.22,20.91,21.53,-48.05,-128.96,3.43,-12.37,19.61,-27.25,18.65,-23.93,-14.13,12.75,9.16,2.88,2.69,-0.78,16
5.42,2.48,21.66,14.55,-45.51,-133.69,0.2,-10.26,18.52,-9.38,17.14,-10.06,-14.32,11.56,9.39,6.15,-0.05,0.39,16
5.38,0.04,20.92,-10.94,-18.75,-91.89,0.8,-10.92,19.14,-1.76,3.71,2.93,-14.38,12.92,9.47,2.44,2.54,-1.03,16
7.99,-2.16,22.46,-24.17,-12.11,-74.41,0.99,-8.89,19.45,8.54,-0.24,3.52,-14.34,11.82,9.03,-0.05,2.2,1.56,16
5.01,-5.14,21.91,-18.6,6.64,-37.21,1.1,-7.21,19.95,2.34,-1.56,6.01,-14.04,13.28,9.11,3.08,3.66,0.24,16
0.93,-4.9,20.81,-7.57,13.62,-18.55,2.52,-7.29,20.4,-3.61,-5.52,3.56,-14.49,13.04,8.97,0.73,1.71,-1.86,16
-0.31,-5.41,20.65,-7.72,6.74,-5.03,2.8,-7.91,20.16,-4.59,-0.34,-4.93,-14.21,13.15,9.16,1.66,2.73,-2.83,16
-0.27,-3.48,20.79,3.91,1.95,11.62,0.73,-6.43,19.62,2.59,-0.29,1.37,-14.17,13.1,9.16,6.98,-0.1,-2.0,16
0.73,-2.46,21.12,2.59,-6.01,6.05,1.9,-8.62,20.09,-6.35,-4.3,-1.37,-14.35,13.45,9.0,3.66,3.22,-1.66,16
1.18,-1.99,21.17,-3.13,-3.22,5.22,1.88,-7.87,19.8,-2.0,-1.12,2.39,-14.17,12.86,9.01,2.73,1.86,-0.34,16
1.33,-1.91,20.97,-3.47,-3.81,-1.51,1.57,-7.33,20.02,-1.32,-0.93,1.51,-14.23,13.52,9.05,5.96,3.13,-0.83,16
-4.6,0.68,18.55,-14.26,22.75,168.21,-14.13,9.48,15.16,-2.44,4.49,-27.54,-22.86,6.8,-4.15,30.57,-15.62,-5.03,17
-7.37,4.39,18.84,5.42,8.11,85.74,-14.14,3.67,16.17,-37.4,-12.99,-35.35,-22.21,3.57,-1.22,15.87,-38.48,-8.94,17
-12.49,9.05,16.91,19.14,3.66,62.26,-9.48,-1.79,16.56,-79.3,8.69,-59.47,-21.17,3.57,3.03,21.44,-66.8,-27.64,17
-14.21,7.44,16.17,-0.88,-8.25,-20.07,-6.12,-12.68,17.67,-29.83,-26.46,-107.57,-17.96,1.74,7.1,74.12,-80.18,-8.89,17
-13.95,3.0,16.8,-25.39,-14.11,-29.44,0.22,-10.99,20.64,86.43,3.66,-200.0,-16.34,4.83,3.79,205.71,-68.9,-13.43,17
-8.68,-1.42,17.64,-54.64,-0.63,-51.95,0.02,-0.61,20.12,148.19,-12.79,-179.83,-13.24,28.21,0.78,249.41,-72.22,20.26,17
-7.86,-6.33,17.27,-7.62,-33.25,-96.24,7.2,-0.78,22.19,-141.46,-8.06,-36.28,-14.05,14.59,9.19,-26.86,-49.9,4.0,17
-1.92,-5.53,19.91,77.59,-31.3,-195.7,3.02,-4.59,20.72,31.93,20.12,-30.37,-14.94,15.01,8.85,-2.2,-19.19,-14.36,17
3.04,6.6,21.62,118.16,-84.62,-200.0,0.24,-4.64,20.21,-12.74,21.97,-35.55,-15.15,13.65,7.01,10.2,-24.71,-24.85,17
7.49,-3.07,23.04,-37.21,1.22,-18.6,-0.89,-7.05,19.58,-11.87,12.35,-33.15,-14.91,12.66,9.1,16.99,-22.56,-18.12,17
2.69,-2.16,22.58,-30.81,8.98,-18.46,-1.76,-9.2,19.29,2.83,6.01,-17.77,-15.25,11.82,10.17,9.47,-12.7,-13.77,17
0.9,-1.39,20.95,-11.77,17.09,-31.01,-1.15,-9.5,19.73,15.77,-1.03,2.59,-15.09,10.85,9.9,6.3,3.17,-0.39,17
0.5,-3.27,21.16,-11.04,7.28,-33.5,0.1,-7.36,20.5,7.18,-4.2,7.37,-14.84,12.2,8.25,5.27,7.37,4.98,17
0.15,-4.56,20.91,-6.49,5.81,-18.55,0.87,-4.71,20.52,7.13,0.24,2.88,-15.72,11.75,7.52,-4.83,8.89,1.42,17
-0.43,-4.33,20.68,3.37,-3.22,-1.46,0.34,-6.56,20.58,-5.03,-2.83,-1.27,-15.6,13.49,7.32,6.74,2.0,-0.98,17
0.77,-3.23,21.3,7.86,-5.47,5.27,-0.21,-6.67,20.46,-0.54,1.66,3.22,-15.09,12.94,8.13,0.24,2.64,-2.64,17
0.97,-1.03,21.38,4.69,-3.81,4.83,-0.45,-5.25,20.14,2.25,-1.66,-1.22,-16.06,11.88,7.55,3.03,5.03,-2.54,17
1.04,-1.07,21.53,2.15,-1.07,-0.05,-0.41,-5.54,20.3,0.24,-4.64,-2.34,-15.82,11.43,7.2,1.9,-0.73,1.56,17
0.47,-2.35,21.5,2.2,1.61,2.34,0.46,-5.9,20.58,3.22,-3.96,-3.17,-15.49,11.91,7.54,1.27,1.12,1.46,17
-0.6,-1.73,20.86,1.9,1.17,0.34,0.88,-5.19,20.7,4.25,-1.56,-1.32,-15.3,13.69,7.49,9.03,0.44,1.9,17
16.44,-6.96,22.3,-5.27,-27.25,196.0,-5.31,1.45,17.66,28.91,55.96,73.29,-21.41,5.5,0.63,-67.68,61.87,1.71,18
6.56,4.58,21.95,18.26,26.66,160.3,-10.54,14.39,20.28,67.68,-42.38,37.21,-27.09,5.33,-2.79,-32.47,21.44,11.43,18
5.42,4.13,19.27,6.79,46.78,168.9,-6.52,4.97,18.63,-31.1,-31.25,-68.46,-22.72,2.85,-1.09,34.08,-54.35,-8.2,18
-7.76,3.89,17.58,5.91,55.32,92.63,5.8,-0.13,20.58,-52.64,-56.69,-115.77,-20.69,6.28,5.02,90.09,-86.04,-28.03,18
-12.04,2.17,24.44,-16.75,4.1,56.74,4.49,-13.18,18.89,18.55,34.47,-233.89,-13.77,12.6,2.47,230.27,-118.12,-47.85,18
-9.3,5.11,18.84,-20.61,-26.22,-46.87,4.5,-0.64,19.3,37.7,-17.82,-132.76,-11.5,26.91,4.87,159.67,-98.24,-14.11,18
-0.67,2.61,20.98,-26.51,-54.59,-96.73,6.88,-3.01,19.35,-18.16,9.13,-96.68,-9.38,24.0,7.25,75.29,-86.57,-27.29,18
1.38,-1.61,18.09,10.45,-8.79,-204.64,8.08,-9.36,19.17,-29.98,29.15,-64.45,-8.57,17.35,12.68,31.1,-60.94,-36.72,18
8.39,7.34,21.16,54.93,-46.58,-181.69,3.8,-13.28,19.03,-38.28,32.32,-41.85,-11.45,11.2,14.48,40.19,-27.88,-38.48,18
7.91,3.38,19.84,-16.41,-4.69,-104.2,1.77,-13.37,19.07,-13.13,9.91,-3.66,-12.2,9.47,13.13,-6.01,-9.42,-15.43,18
11.02,-2.96,20.81,-46.05,7.86,-74.71,0.41,-5.92,18.42,-0.54,4.05,24.32,-13.63,13.24,10.33,3.17,12.26,0.15,18
7.18,-6.53,21.72,-34.38,12.79,-49.71,2.83,-4.4,19.37,9.52,-10.79,7.42,-13.1,16.87,8.86,29.44,9.33,4.93,18
3.14,-9.38,20.3,-19.14,11.77,-10.21,4.68,-3.26,20.22,4.64,3.27,-3.86,-13.65,15.16,7.64,22.75,5.47,2.1,18
2.89,-4.63,20.7,8.74,0.29,7.18,3.73,-5.7,19.72,-0.05,5.52,-8.79,-13.68,11.51,8.7,0.73,-2.73,-3.03,18
3.93,-2.58,20.37,15.58,-2.83,1.42,3.01,-6.8,20.03,-5.13,2.64,0.73,-13.57,14.51,9.45,10.25,0.98,-5.81,18
5.45,-1.31,21.16,12.84,-12.11,2.39,2.82,-5.66,19.8,1.27,-2.0,1.42,-13.55,13.3,8.73,-0.15,4.64,-3.27,18
4.04,-3.0,20.64,-3.96,-1.61,-0.98,3.27,-5.64,19.92,-1.86,1.07,0.39,-14.21,13.47,8.35,-0.2,5.27,-0.78,18
4.3,-4.09,21.03,-1.95,2.64,-4.59,3.59,-6.15,19.8,0.1,2.59,-0.78,-14.03,13.02,8.73,0.44,5.03,-2.64,18
3.13,-2.98,20.19,2.59,2.98,1.42,3.42,-5.91,20.27,4.98,11.23,14.7,-13.07,14.34,8.68,-6.05,12.16,-2.05,18
3.62,-2.33,21.05,3.76,-0.83,2.59,2.06,-5.23,19.81,4.69,5.96,8.54,-14.63,12.19,7.91,-2.1,12.89,-4.35,18
7.78,-9.04,22.25,-15.48,-20.46,122.95,12.03,-9.06,20.94,40.38,-13.04,186.87,-17.84,11.6,0.52,-143.65,62.74,33.06,19
10.98,-2.7,22.11,-1.27,4.74,179.44,5.93,-1.62,18.92,24.8,11.23,160.35,-20.79,4.04,2.07,-55.08,24.85,40.87,19
6.37,0.35,19.88,9.33,18.31,155.47,1.69,-1.16,19.34,-17.09,-36.18,140.92,-22.79,4.94,0.37,-28.52,13.33,4.64,19
1.87,0.77,19.65,-22.41,-15.19,149.07,-3.02,0.46,21.12,38.53,-23.29,55.86,-21.6,7.58,3.27,16.7,-40.38,-26.22,19
-3.61,1.68,20.74,9.72,-37.35,66.8,0.4,3.8,20.83,4.69,13.09,0.2,-17.13,11.06,6.88,94.29,-82.47,-31.59,19
-2.67,1.32,22.46,7.71,0.63,21.73,-0.57,-0.02,20.4,-52.59,19.97,-61.28,-15.09,11.6,6.64,138.96,-101.95,-21.29,19
-2.22,2.45,21.7,-42.43,8.64,-41.85,0.59,-7.02,18.83,-47.31,4.74,-103.47,-8.76,15.86,7.23,162.65,-118.9,-25.93,19
0.6,-3.8,19.71,-45.12,-18.21,-104.59,6.66,-4.48,18.69,-8.5,-1.9,-139.6,-6.71,22.05,11.16,118.6,-84.28,-31.3,19
4.42,-2.32,19.09,-7.76,-44.58,-144.43,10.78,-9.99,18.59,-14.55,9.13,-160.99,-6.22,20.15,14.36,75.15,-105.27,5.66,19
9.28,-3.35,18.26,13.28,-33.4,-186.82,11.55,-8.31,18.74,-17.77,5.81,-112.6,-8.54,16.51,12.92,-15.77,-30.13,-47.61,19
12.26,-5.01,18.75,-7.13,-10.25,-130.76,13.58,-14.74,20.75,-73.1,-35.06,-75.49,-11.31,14.06,11.14,26.46,-16.46,-41.6,19
13.01,-8.41,19.55,-30.91,-41.46,-103.91,7.27,-12.35,19.03,-32.42,36.28,-29.83,-12.14,13.01,11.04,10.16,-2.34,-23.05,19
9.79,-7.94,18.85,-48.14,53.71,-23.83,2.62,-10.15,18.36,-13.28,28.13,-24.9,-13.96,12.05,9.68,3.12,12.16,-8.01,19
6.0,-6.15,18.97,-15.63,36.18,-34.37,2.72,-8.77,18.99,-9.23,11.33,-2.29,-13.54,14.42,8.55,-6.49,15.28,-2.78,19
4.46,-5.69,19.42,-7.76,20.9,-11.04,1.54,-7.19,18.96,2.59,7.32,8.15,-13.48,14.67,8.43,-6.15,8.64,-2.25,19
3.93,-4.43,20.29,5.52,6.74,1.95,3.24,-6.13,19.93,4.15,0.98,9.42,-13.51,13.5,8.36,-3.71,-5.86,2.34,19
3.84,-3.37,20.52,3.17,6.01,15.09,3.3,-5.94,19.67,4.64,3.42,9.28,-14.19,12.84,8.49,7.28,1.27,-4.05,19
4.8,-2.74,20.3,4.54,2.25,6.98,3.66,-6.3,20.01,-4.35,1.42,2.2,-14.31,10.65,9.01,2.49,3.08,-2.39,19
4.32,-2.48,20.93,4.64,-1.66,-0.59,2.6,-6.29,19.94,2.2,0.73,-2.0,-13.74,11.83,9.34,-0.05,1.17,-0.29,19
3.25,-2.66,20.53,2.1,1.61,-3.61,2.04,-6.56,19.5,3.66,-0.59,-2.88,-13.52,15.23,8.98,-0.49,1.61,-0.34,19
5.79,1.6,21.1,6.59,30.91,165.63,-12.66,4.74,17.15,30.27,35.4,14.94,-23.63,-1.3,-5.01,-6.35,34.18,-8.06,20
-0.81,4.58,20.26,28.27,43.9,103.13,-12.2,4.42,17.13,0.88,-2.69,-17.63,-23.52,-0.19,-4.26,9.42,-11.91,-0.44,20
-9.86,5.67,18.91,-1.81,87.4,79.54,-9.42,-0.5,17.92,-29.0,-21.58,-40.62,-20.6,-0.2,-0.85,20.41,-49.17,1.81,20
-16.05,8.98,15.5,15.97,-6.4,-5.57,-9.45,-10.68,19.15,28.71,-9.08,-137.5,-16.78,2.7,2.4,148.19,-56.88,-0.78,20
-14.92,6.58,16.31,-4.79,-22.51,-17.92,-1.55,-6.6,19.38,50.29,-24.12,-163.48,-16.54,6.75,3.4,171.78,-67.33,16.31,20
-9.98,2.73,18.1,-23.44,-35.64,-35.94,2.88,1.64,20.78,64.5,-52.78,-138.96,-14.3,18.87,2.55,183.84,-67.58,43.65,20
-7.8,-1.62,19.45,28.61,-59.67,-127.2,7.44,0.32,21.73,-20.36,-20.75,-39.89,-13.68,18.38,6.25,24.85,-44.38,7.08,20
-3.37,-0.18,19.4,59.57,-57.32,-150.49,2.87,-4.69,21.34,-34.08,13.09,-39.55,-16.16,10.93,8.01,3.52,-27.83,-22.36,20
5.65,8.43,20.76,58.06,-89.6,-118.41,4.6,-9.61,21.89,-29.25,11.18,-34.91,-14.68,14.85,12.15,28.56,-33.06,-17.24,20
8.08,4.41,21.52,-21.83,-26.9,-30.42,0.6,-9.09,19.83,-19.38,18.21,-14.11,-15.76,9.47,10.84,15.97,-10.06,-22.51,20
2.72,-0.05,21.44,-29.54,5.22,-40.82,-1.33,-7.76,19.63,-4.88,8.84,-2.15,-16.55,9.94,9.42,11.43,6.1,-13.77,20
6.42,-3.59,22.74,-23.49,4.98,-30.96,-1.53,-5.96,20.06,6.35,6.98,6.25,-16.89,9.42,7.99,11.67,6.01,-1.81,20
1.62,-4.07,21.19,-13.92,19.14,-17.58,1.06,-7.54,21.29,-1.22,-10.94,0.78,-16.06,10.58,7.11,6.69,9.28,1.37,20
0.01,-3.93,20.8,-5.91,12.89,-2.29,0.84,-5.49,20.2,-10.64,-1.17,6.4,-17.32,11.68,6.96,-18.26,3.22,-3.81,20
-0.7,-1.4,20.77,-0.63,0.24,3.03,0.37,-6.24,20.3,-5.71,-2.83,-1.27,-16.24,12.02,6.65,-0.98,-1.07,0.1,20
-0.06,-2.41,21.45,0.59,-2.29,1.86,-0.3,-5.1,20.41,9.72,7.47,-2.83,-17.07,9.91,6.86,12.06,5.42,-0.39,20
-0.03,-0.7,21.46,-0.29,6.79,6.74,-0.44,-4.92,20.14,8.2,5.96,-4.15,-17.26,8.24,6.43,1.61,3.47,-1.66,20
1.12,-1.76,21.04,1.17,-0.34,1.61,0.91,-5.52,20.21,4.25,3.47,-3.22,-16.07,9.75,6.68,0.39,-0.34,0.29,20
0.98,-0.46,21.4,6.74,-2.39,-5.27,0.92,-5.81,20.26,5.03,2.49,-2.69,-16.26,9.34,6.64,-0.15,-1.17,1.32,20
-0.72,-0.85,21.15,2.69,0.68,-3.32,0.22,-6.39,20.63,-5.18,-2.0,0.98,-17.07,11.21,6.98,4.1,0.54,-1.95,20
8.47,-16.56,20.9,-49.56,-29.54,239.65,-8.49,4.51,20.05,4.69,-32.18,20.75,-15.74,13.15,6.4,3.76,2.83,0.88,21
8.88,-5.78,23.77,-44.34,-33.64,273.97,-9.23,-0.65,19.93,-12.94,12.26,-59.47,-15.36,12.3,6.03,-2.0,3.61,-0.93,21
-4.45,-5.95,18.93,-1.07,-11.57,163.13,-4.15,-9.77,18.39,-7.13,17.92,-160.89,-15.69,13.2,5.96,2.15,0.93,1.22,21
-6.0,-1.75,18.61,12.11,4.25,97.46,1.46,-13.82,17.69,17.28,53.17,-226.81,-15.41,12.97,6.03,-3.86,1.46,-0.29,21
-12.14,5.75,15.89,21.58,-31.59,62.6,5.17,-5.75,19.42,20.51,30.08,-153.86,-15.53,12.95,6.4,0.39,1.61,1.71,21
-12.22,4.34,17.98,-9.86,0.98,-37.99,6.8,-6.19,20.36,-28.61,17.53,-92.92,-15.37,12.19,5.84,-3.37,2.54,-0.68,21
-8.94,-2.77,17.66,0.15,1.66,-134.03,6.43,-10.76,19.98,-23.34,28.03,-68.21,-15.18,13.91,5.86,14.75,2.0,1.07,21
-1.08,-5.74,18.98,28.91,-10.25,-217.68,3.08,-11.37,19.85,-11.04,37.74,-42.04,-15.52,13.59,5.53,-1.71,2.88,-2.88,21
6.52,0.6,22.06,38.04,-28.96,-196.68,-3.06,-11.35,17.96,-5.81,37.45,-22.31,-15.42,13.57,5.83,2.73,2.0,1.46,21
6.27,0.17,22.02,16.02,-6.69,-123.54,-2.76,-11.22,18.22,1.66,3.76,-4.44,-15.73,12.24,5.67,-9.91,2.88,-1.56,21
6.51,-3.2,22.25,-20.46,14.21,-75.63,-0.94,-8.36,19.86,5.76,-4.0,4.64,-15.83,12.71,5.52,-0.68,4.44,-1.56,21
4.33,-5.51,22.08,-5.71,23.14,-66.21,-0.36,-6.91,19.62,3.47,-11.47,5.03,-15.77,12.15,5.29,-3.13,3.91,-1.66,21
1.37,-6.61,21.42,-10.6,29.05,-35.84,0.81,-7.49,20.42,-1.32,-8.89,3.27,-15.65,13.43,5.6,1.46,2.39,0.29,21
-2.35,-7.94,19.62,-4.39,10.16,-13.57,0.03,-7.32,19.86,0.93,-1.51,2.2,-15.83,12.98,5.33,-0.2,3.52,-1.61,21
-1.53,-5.73,20.61,5.66,-4.05,2.83,-0.14,-7.1,19.95,-1.07,0.44,2.29,-15.78,13.23,5.2,5.57,2.98,-0.2,21
-0.64,-3.51,20.77,3.12,-4.64,9.77,-0.58,-7.68,19.65,-1.03,3.03,2.78,-15.92,12.92,5.19,0.49,1.17,-1.71,21
0.64,-2.75,21.37,3.61,-9.52,4.98,0.87,-8.04,20.14,2.34,3.03,-0.63,-15.72,14.32,5.54,4.1,0.49,0.44,21
1.16,-2.53,21.77,1.9,-3.81,5.37,-0.55,-7.55,19.71,1.66,4.69,3.76,-15.72,11.06,5.36,-12.7,1.95,-2.44,21
0.53,-2.91,21.2,-0.0,-4.54,2.15,-0.52,-7.81,19.91,0.93,0.98,-1.51,-15.69,13.12,5.7,-4.3,0.24,0.59,21
0.25,-2.76,21.24,1.66,-4.39,-2.25,-0.58,-7.52,19.39,-3.32,1.56,2.15,-15.68,11.9,5.65,-7.47,1.07,0.34,21
0.92,-8.09,19.84,-28.96,-3.96,158.79,-13.81,1.82,16.19,54.39,51.81,-83.98,-21.09,4.15,-1.71,94.78,-32.62,-0.63,22
-2.5,-3.58,19.94,7.03,-5.22,95.31,-11.84,-5.26,16.57,-24.61,2.88,-83.4,-19.83,2.91,3.39,64.99,-48.34,3.27,22
-10.64,1.29,18.16,10.3,16.31,64.84,-5.41,-9.71,17.9,8.06,-17.58,-131.54,-17.0,6.27,4.48,128.08,-63.87,16.26,22
-11.84,2.5,17.33,31.35,-15.38,-76.27,2.49,-7.7,20.26,42.19,-22.9,-135.84,-13.93,15.72,2.76,155.71,-55.08,25.98,22
-10.41,-2.63,17.4,17.68,-20.31,-77.34,7.15,-4.48,21.38,10.35,-5.42,-78.03,-12.81,22.18,2.95,64.99,-44.87,16.41,22
-4.84,-4.51,18.75,33.45,-38.28,-123.1,4.57,-6.67,19.93,-17.14,8.79,-61.28,-13.17,17.44,3.5,31.15,-44.43,-5.32,22
1.75,-1.81,21.11,49.12,-44.34,-126.27,3.96,-10.19,19.54,-27.25,17.29,-59.33,-12.08,17.08,5.17,45.75,-52.73,-12.7,22
7.26,1.08,22.92,9.23,-23.29,-72.75,3.86,-11.45,19.55,-21.09,23.05,-44.04,-12.57,16.51,6.72,27.39,-45.56,-19.58,22
3.73,-2.28,20.96,-8.69,-3.08,-62.3,0.7,-11.37,18.41,-11.08,21.68,-17.97,-13.41,14.21,7.76,7.96,-22.75,-20.41,22
4.84,-3.74,21.29,-16.02,0.0,-58.35,-0.88,-10.83,18.39,-1.56,2.39,0.29,-14.69,11.37,7.74,0.15,-4.15,-5.47,22
4.16,-5.74,21.65,-19.29,9.96,-47.56,-0.26,-9.79,19.23,-0.93,0.2,7.91,-14.98,12.16,6.75,-9.23,3.32,-0.29,22
1.71,-6.21,20.51,-12.5,15.04,-22.12,1.44,-7.14,19.8,5.52,-6.64,10.16,-15.51,14.2,5.21,-4.93,11.43,3.91,22
-0.83,-6.54,20.17,-1.56,1.76,-1.61,2.08,-6.47,20.26,5.18,-0.98,6.2,-15.12,15.09,4.65,1.66,9.23,4.35,22
0.28,-5.02,20.77,2.0,-1.27,8.3,1.04,-7.56,19.79,1.12,0.73,1.03,-14.95,13.92,4.94,-0.54,3.32,1.03,22
0.85,-2.79,20.99,2.29,-5.96,12.74,0.67,-8.36,19.53,0.34,-2.2,3.56,-15.06,14.24,5.66,-3.27,2.98,1.81,22
1.66,-1.65,21.61,5.86,-5.37,7.76,0.7,-7.05,19.81,4.49,-1.42,5.71,-15.33,13.31,5.67,2.39,6.74,3.13,22
0.71,-2.75,21.07,3.12,-0.93,2.54,2.03,-7.0,20.32,3.52,-2.64,3.86,-14.69,13.54,5.11,2.1,5.32,3.71,22
0.62,-3.69,20.66,0.63,-2.34,6.69,1.67,-7.11,19.96,-3.08,-2.29,-2.69,-15.11,13.55,4.98,-3.71,1.51,0.39,22
0.81,-2.59,21.17,3.42,-4.25,5.96,2.33,-8.35,20.48,0.59,-0.49,-2.29,-14.56,14.7,5.85,1.76,-0.29,2.64,22
1.72,-2.3,21.43,3.91,-4.1,4.88,1.17,-7.47,19.72,2.49,1.12,0.34,-14.93,13.36,5.44,-6.79,3.37,-1.95,22
5.45,-4.22,20.25,-23.44,-4.64,162.65,6.08,-7.49,19.2,-2.98,-35.74,166.89,-15.86,9.1,4.8,-166.46,92.04,22.51,23
0.08,-4.22,19.99,0.68,0.88,99.27,-1.5,-7.21,18.95,7.62,-15.77,103.27,-16.34,8.19,6.76,-98.1,68.6,13.38,23
-6.94,-1.66,18.5,-4.44,-6.2,108.79,-8.59,-2.95,17.3,-18.31,-33.2,102.78,-18.47,6.23,3.69,-96.39,55.27,25.54,23
-7.53,-0.74,19.88,10.99,2.64,46.14,-4.89,-3.52,20.04,19.87,7.03,41.89,-20.82,5.54,1.63,-39.45,25.78,12.79,23
-10.84,1.29,19.53,-2.98,9.57,9.52,-8.14,-1.06,19.44,8.01,13.96,9.42,-23.78,2.85,1.28,-12.11,9.18,-3.52,23
-9.03,-2.08,19.6,-6.05,-13.77,-40.33,-7.81,-5.29,19.19,-14.65,7.57,-44.29,-21.92,3.34,3.62,32.86,-42.33,-2.05,23
-6.49,-3.25,19.66,-13.43,-12.35,-81.84,-3.28,-8.12,19.3,-23.54,3.27,-99.07,-19.9,0.34,5.79,60.01,-59.67,-15.97,23
-3.1,-5.3,19.25,23.73,-19.48,-185.6,-2.28,-11.05,18.09,15.14,25.49,-183.79,-15.86,5.54,4.56,174.12,-102.59,-24.41,23
3.49,-2.96,20.25,34.47,-15.87,-157.42,5.31,-9.1,19.69,31.98,11.08,-164.65,-13.5,10.49,5.44,153.81,-71.58,-19.63,23
8.95,0.31,20.46,12.79,-20.9,-115.53,6.69,-4.17,19.46,4.93,9.23,-107.96,-10.68,23.08,4.98,129.35,-64.26,-8.59,23
8.87,-1.64,21.09,-26.17,-4.88,-66.46,8.05,-6.64,20.1,-34.72,11.62,-68.85,-12.62,16.71,7.11,50.78,-50.78,-19.19,23
8.44,-3.29,20.93,-15.67,-6.4,-61.33,6.2,-8.46,19.58,-33.5,7.76,-49.9,-11.43,18.6,8.99,49.27,-53.42,-16.26,23
4.42,-7.36,20.65,-18.16,16.26,-36.62,3.99,-11.75,19.43,-9.33,20.9,-34.08,-12.67,14.39,10.87,11.43,-32.96,-23.29,23
2.76,-6.87,20.04,-12.89,11.96,-16.6,1.16,-12.59,18.47,-9.38,8.79,-8.01,-13.65,13.94,11.3,12.45,-15.23,-20.61,23
1.65,-6.3,20.16,-3.52,7.57,0.29,0.84,-9.93,18.6,-1.32,3.61,-1.03,-14.65,11.17,9.52,2.2,2.25,-8.5,23
2.99,-4.59,20.57,-0.1,-0.83,6.49,2.83,-8.69,19.63,-3.22,-6.1,3.27,-13.86,14.25,8.51,-0.1,5.52,-0.15,23
3.22,-3.68,20.66,2.1,-2.64,3.52,3.95,-7.83,19.69,2.59,-2.88,-0.68,-13.78,14.56,7.87,-1.37,3.56,1.86,23
3.45,-3.89,20.6,0.59,-0.39,2.1,3.36,-8.0,19.52,0.63,-0.73,-1.32,-13.91,14.38,7.92,3.22,2.29,-1.03,23
2.43,-4.23,20.4,-1.03,0.49,2.1,2.8,-7.79,19.39,2.0,0.39,-2.15,-14.48,12.67,7.82,-3.86,3.22,-1.32,23
3.15,-4.14,20.89,0.39,-1.61,1.12,2.58,-8.0,19.54,0.68,0.63,-0.29,-14.31,12.7,7.95,-0.39,2.29,-0.34,23
-4.38,-7.74,19.01,-20.65,-4.49,95.75,-1.6,-9.84,18.55,-13.97,-16.16,103.13,-20.25,5.52,2.95,-103.32,52.88,-6.49,24
-8.66,-7.85,16.18,-30.71,10.99,105.27,-9.3,-10.22,14.86,-16.11,0.49,116.26,-17.3,7.58,2.34,-116.41,55.42,-5.86,24
-12.83,-2.09,15.83,-13.48,-31.64,74.32,-12.49,-3.79,15.46,-21.09,-24.95,71.04,-19.99,3.58,-0.52,-72.36,12.7,33.59,24
-11.77,-0.7,18.29,0.15,-24.12,30.27,-10.15,-1.48,18.62,14.06,-0.49,26.56,-21.51,4.05,-1.0,-32.18,1.61,17.43,24
-14.93,-1.17,16.79,8.3,-4.44,-11.13,-10.66,-3.45,17.65,3.71,5.71,-16.11,-23.52,-2.34,-0.15,-24.12,-11.87,4.79,24
-12.37,-3.13,17.31,2.39,-6.54,-54.39,-7.72,-5.33,17.98,-2.05,3.91,-65.67,-22.76,0.46,1.64,37.11,-37.65,-2.0,24
-8.78,-4.88,18.93,35.89,-11.87,-132.08,-4.67,-8.71,18.8,21.14,15.97,-150.83,-19.43,2.76,1.76,136.62,-72.36,-2.05,24
-2.36,-3.71,20.74,33.11,-30.08,-126.86,-0.51,-8.88,20.71,30.62,-12.99,-136.08,-14.97,11.97,3.75,128.47,-67.87,12.74,24
-0.62,-3.89,20.53,54.44,-8.64,-140.97,1.35,-8.13,19.68,41.26,19.34,-147.95,-13.45,15.07,1.29,144.87,-68.51,8.2,24
3.42,-1.08,21.97,33.06,-11.47,-129.0,5.05,-5.55,20.62,13.96,9.52,-127.69,-12.02,20.84,-0.27,140.62,-68.95,14.75,24
5.03,-3.34,21.52,22.12,-9.91,-88.13,6.68,-9.4,20.11,6.15,12.4,-80.13,-12.18,18.77,2.83,61.87,-54.25,3.52,24
3.46,-5.02,22.49,-3.52,10.5,-40.28,4.6,-10.72,20.24,-1.95,24.41,-28.96,-13.19,19.99,4.79,38.13,-27.34,-12.84,24
-0.38,-4.79,21.95,-0.15,20.9,-20.31,0.35,-8.6,19.75,1.12,31.4,-10.11,-15.3,16.53,3.78,19.78,-11.96,-19.78,24
-2.32,-3.57,20.78,6.49,8.54,-10.3,-1.1,-7.4,19.45,5.13,9.81,-4.59,-15.82,15.24,2.93,22.8,-2.83,-8.11,24
-2.89,-3.56,20.69,5.86,-1.66,-4.2,0.25,-6.94,20.32,3.56,-3.71,-4.35,-16.01,12.3,2.02,17.43,1.81,2.15,24
-2.69,-3.27,20.98,4.05,-0.39,-0.88,0.29,-7.14,20.19,8.89,-0.73,-2.73,-15.66,12.02,1.26,5.52,2.59,-0.1,24
-1.82,-2.14,21.45,3.37,-3.86,-0.24,0.01,-6.11,20.27,7.96,2.05,0.15,-15.84,11.92,0.64,0.39,3.86,1.42,24
-2.18,-2.75,21.05,1.76,-0.83,0.39,0.05,-6.1,19.89,4.44,0.98,-0.1,-15.85,12.88,0.2,2.2,3.27,-0.78,24
-2.81,-2.77,20.8,0.98,-0.83,0.2,0.19,-6.73,20.31,1.61,-2.34,-2.88,-16.44,12.76,0.33,1.9,2.44,0.34,24
-2.51,-1.86,21.32,1.32,-0.83,0.15,-0.3,-6.5,19.91,-3.27,-1.9,0.54,-16.61,13.62,0.49,0.15,2.15,-0.15,24
-1.35,-7.73,21.82,-93.41,-7.47,176.12,-8.78,-6.42,17.75,-0.15,25.2,92.04,-15.98,12.58,-0.03,1.22,6.25,-3.08,25
-2.8,-8.77,20.35,-62.84,-11.08,152.25,-11.78,-3.44,17.33,-29.1,6.1,92.53,-15.95,13.88,0.19,1.9,2.1,0.68,25
-4.08,-4.34,19.54,-42.87,-20.36,129.69,-6.73,-0.18,11.68,-30.37,-21.63,33.98,-15.94,12.7,-0.01,-2.73,2.0,-0.44,25
-7.51,-3.55,18.12,-14.26,-14.65,91.55,-11.21,-2.63,17.48,-7.81,21.14,-78.71,-16.08,11.68,-0.3,-1.32,2.88,-2.73,25
-10.64,-4.47,17.57,-14.36,1.17,88.72,-7.79,-8.05,17.28,-21.44,-9.91,-108.25,-16.41,13.08,-0.1,-4.44,3.08,-2.54,25
-11.58,-0.08,19.14,-2.59,-9.67,48.1,-6.31,-10.94,16.77,-4.69,1.03,-141.99,-15.21,12.17,-0.26,-3.71,2.98,-0.78,25
-14.37,-1.89,16.67,19.82,0.15,-68.26,1.58,-11.23,18.88,35.94,7.23,-130.08,-15.94,12.35,-0.06,6.25,4.0,0.44,25
-11.95,-5.01,16.99,21.24,-16.11,-100.93,5.45,-7.11,19.77,25.88,5.91,-92.48,-15.95,14.8,-0.57,8.25,2.88,-0.93,25
-8.92,-4.93,18.91,56.88,-34.33,-138.82,6.07,-9.9,20.62,-7.42,1.9,-91.16,-15.97,14.87,-0.48,4.98,1.86,1.12,25
-1.28,-4.92,20.01,48.14,-37.79,-129.1,5.86,-5.11,22.29,33.2,25.54,-67.38,-15.78,12.71,-0.19,5.27,3.13,2.05,25
4.11,-2.18,21.4,18.7,-23.68,-101.46,1.19,-6.25,21.18,15.43,15.33,-37.11,-15.66,14.06,-0.55,-2.39,2.29,-2.0,25
1.92,-8.84,21.56,8.15,-1.9,-85.4,-1.79,-6.87,19.82,8.89,8.5,-10.94,-15.84,13.44,-0.62,-1.61,2.0,-2.59,25
7.9,-2.15,24.81,14.31,-15.04,-84.81,-1.61,-5.82,19.94,9.96,2.88,-2.93,-15.94,14.3,-0.63,0.34,2.44,-1.95,25
1.34,-0.04,22.56,7.91,8.98,-43.6,-0.61,-5.71,20.53,2.93,3.13,0.29,-15.67,13.53,-0.6,1.27,1.12,-2.44,25
-2.26,-0.78,20.72,11.43,17.92,-16.6,1.01,-5.18,20.98,3.03,-4.3,1.22,-15.81,12.58,-0.44,8.3,2.78,1.51,25
-3.03,-1.18,20.81,8.54,5.08,-7.08,-0.58,-6.26,20.62,-5.18,1.9,-2.49,-15.69,11.99,-0.53,-1.42,1.81,-0.98,25
-1.82,-2.89,21.01,6.15,4.25,-1.03,-0.75,-4.56,20.56,-1.47,-0.24,2.25,-15.82,13.38,-0.68,0.2,1.61,-0.88,25
-1.36,-1.9,21.43,5.42,-4.49,0.1,-0.32,-5.25,20.79,2.98,1.66,0.1,-15.65,13.65,-1.09,0.78,1.9,-1.51,25
-2.37,-0.75,21.12,1.56,3.03,0.34,-0.32,-5.28,20.44,1.12,1.86,1.12,-15.9,13.77,-1.1,4.88,2.69,0.63,25
-2.15,-0.36,21.39,-0.49,1.22,1.17,-0.37,-6.01,20.55,1.27,-0.93,-2.64,-15.49,13.11,-1.03,-2.73,2.78,-1.61,25
-10.63,-2.35,16.48,-29.83,11.91,97.71,-10.83,-0.17,16.41,-4.88,22.9,100.05,-19.92,7.45,-1.4,-107.72,42.72,-7.28,26
-15.37,-0.51,14.35,-22.36,3.66,66.06,-12.85,-1.53,15.56,-6.79,8.11,68.36,-22.52,2.12,-1.95,-72.61,18.99,4.74,26
-16.05,-1.49,14.62,0.78,-2.44,17.14,-14.42,-3.68,15.89,-19.34,-5.81,11.18,-22.39,-0.39,-0.38,-25.88,1.27,7.28,26
-17.24,-1.21,13.75,-7.67,-9.28,-10.69,-14.03,-0.07,14.82,-5.47,-11.72,-33.4,-24.21,-2.38,-1.38,-17.29,-15.77,6.84,26
-14.08,-3.22,14.92,-2.64,-28.22,-65.77,-11.85,-4.25,15.83,-16.26,-27.83,-88.62,-21.59,-4.51,0.41,27.44,-49.22,9.33,26
-9.43,-6.07,17.35,24.9,-38.62,-108.74,-7.56,-7.64,16.76,16.26,-25.39,-122.66,-19.66,4.83,4.14,93.26,-70.61,19.19,26
-2.42,-5.1,21.07,44.14,-42.68,-103.66,0.09,-11.27,20.38,23.97,-26.61,-116.89,-15.43,10.37,5.93,97.41,-64.06,28.22,26
0.13,-1.09,21.39,61.47,-32.32,-146.39,2.41,-6.03,20.1,61.87,-5.32,-154.1,-12.75,15.22,1.07,163.92,-66.6,16.46,26
2.17,-0.04,21.44,40.77,-10.69,-125.1,1.55,-4.11,18.74,3.12,10.89,-101.9,-11.2,24.74,0.72,143.41,-67.72,6.88,26
5.03,-2.77,21.76,10.74,-15.77,-88.04,4.12,-7.94,20.2,-9.72,17.33,-70.02,-10.56,20.66,2.22,110.11,-57.13,5.08,26
4.01,-3.8,21.68,-3.37,-6.01,-36.13,5.53,-8.86,20.32,-9.42,4.0,-34.37,-11.28,18.01,3.52,27.98,-30.32,1.81,26
3.95,-3.96,22.98,0.2,-7.96,-16.55,4.41,-10.65,20.82,-4.3,3.27,-12.21,-12.89,18.39,4.78,7.62,-15.67,3.13,26
-0.42,-3.89,20.51,0.63,11.08,-2.98,1.16,-8.6,19.17,1.9,5.86,1.81,-12.78,16.28,3.38,5.32,-2.0,-7.96,26
-0.55,-2.92,20.57,2.83,7.23,0.93,0.87,-7.31,20.15,9.18,6.05,2.05,-13.08,14.05,2.02,3.56,2.78,-6.88,26
-0.37,-0.9,20.16,1.81,2.29,1.86,1.02,-5.74,19.62,1.42,-4.74,-0.05,-13.92,14.19,1.34,1.95,5.13,-4.44,26
0.94,-1.3,21.75,3.71,-8.94,-4.0,3.24,-6.21,20.44,-4.54,-5.71,-6.64,-13.63,16.89,0.99,6.93,-1.56,6.64,26
1.22,-2.8,22.13,4.74,-3.91,-6.93,2.43,-7.5,20.38,6.4,0.73,-7.13,-13.36,16.26,1.92,8.64,-2.39,2.73,26
0.6,-2.9,20.62,-0.1,0.29,-1.71,1.67,-7.36,19.93,-0.59,-2.69,-1.37,-12.59,15.82,1.99,4.2,-0.15,-1.27,26
0.44,-2.0,21.01,2.54,-3.66,0.15,1.98,-6.03,20.16,-0.2,-4.3,2.54,-12.75,16.61,1.14,8.54,1.95,2.1,26
1.16,-1.09,21.57,1.42,-2.88,-1.03,3.23,-6.5,20.16,-4.0,-4.3,0.15,-12.65,17.01,0.9,6.88,0.2,1.07,26
7.12,-6.97,25.33,-20.41,-1.37,115.43,4.19,6.33,20.77,-18.95,6.59,-35.25,-18.09,12.41,1.01,34.67,-27.39,-10.01,27
4.04,-6.19,19.58,-3.71,-1.61,145.56,3.7,-6.75,22.06,-57.86,-7.23,-85.35,-15.2,15.29,6.57,87.84,-52.34,-18.85,27
-0.32,-0.19,17.6,35.4,-13.67,162.21,4.01,-5.78,22.2,6.84,-2.25,-98.58,-18.82,9.3,5.95,113.53,-43.26,-12.45,27
0.2,8.0,20.09,21.14,-9.18,52.0,3.7,-8.27,20.68,-11.96,-3.22,-95.8,-13.13,16.54,4.29,75.44,-62.94,8.94,27
-1.25,5.02,20.36,12.99,-11.91,-8.79,6.63,-8.15,20.28,-8.3,5.76,-93.46,-16.51,17.29,4.59,71.09,-62.11,1.81,27
0.02,5.56,20.42,-27.44,10.89,-55.76,7.04,-11.72,20.83,18.51,27.59,-68.36,-13.39,18.45,5.2,62.5,-46.14,-8.25,27
3.82,-0.9,22.43,-41.99,1.71,-76.46,4.52,-7.28,19.72,10.16,26.22,-51.07,-11.56,16.88,5.02,26.86,-39.31,-15.28,27
3.5,1.41,23.18,-21.88,-16.02,-103.08,2.55,-8.34,20.04,-16.26,15.63,-34.33,-12.54,17.06,6.26,3.86,-41.46,-12.06,27
4.71,4.29,21.92,-26.32,-38.48,-93.95,1.38,-7.66,20.14,7.86,12.11,-3.37,-12.84,15.6,7.03,-4.0,-10.01,-15.33,27
3.83,3.57,22.11,-23.88,-32.28,-97.75,1.53,-5.47,20.13,14.84,3.71,5.76,-13.52,14.18,4.84,2.15,9.57,-5.91,27
3.91,2.03,21.71,-22.75,-8.4,-81.69,2.08,-2.23,20.47,11.62,0.73,-1.61,-14.94,15.49,3.05,1.56,8.01,0.49,27
3.44,1.3,20.7,-15.53,3.42,-57.96,1.96,-3.46,20.64,0.93,-0.83,-0.44,-14.19,14.6,3.74,-0.63,4.64,1.81,27
2.49,-2.46,21.95,-24.22,-4.98,-30.81,0.87,-3.65,20.53,-6.15,0.73,7.76,-12.89,16.05,4.7,-2.54,2.15,-1.86,27
1.61,-3.52,21.16,-18.36,2.93,-4.39,1.34,-5.36,20.7,-9.72,0.34,2.0,-13.2,16.97,4.42,1.71,-2.2,-0.24,27
0.87,-1.52,20.53,-0.0,2.39,3.47,1.27,-5.95,20.05,-4.49,-1.86,2.15,-12.66,15.07,4.93,-2.15,0.93,-3.32,27
0.85,0.25,21.02,-1.07,-2.44,-2.1,1.65,-4.2,20.5,0.15,-1.17,2.15,-13.21,15.15,4.55,1.76,4.93,-1.07,27
1.49,0.77,20.96,3.56,-4.74,-0.05,-0.73,-6.55,23.42,-10.45,-13.48,-1.61,-18.16,15.36,4.61,-3.76,4.05,0.2,27
1.17,-1.77,21.15,-4.74,0.39,9.08,0.09,-4.89,19.87,-8.4,2.49,7.47,-12.57,19.85,4.76,3.66,7.86,-11.87,27
2.06,-0.69,21.08,-4.35,-0.59,3.52,0.25,-4.11,19.55,-4.74,-0.1,2.49,-13.43,15.63,3.98,9.96,3.47,-2.98,27
0.77,-1.87,20.48,-2.49,-1.03,3.03,0.61,-4.49,20.89,-3.37,-4.44,-0.83,-13.98,14.44,3.44,2.05,0.39,1.46,27
4.74,-4.8,21.68,2.25,-6.64,32.08,0.31,-13.94,14.92,-0.0,-53.91,161.23,-13.58,9.93,7.86,-160.16,87.45,32.67,28
12.27,-8.89,21.46,-47.61,-24.95,132.42,-0.87,-10.24,15.49,10.06,-49.41,139.31,-17.08,5.84,6.5,-126.27,78.81,46.29,28
3.23,-5.32,18.44,2.39,5.37,165.33,0.67,-12.8,17.75,-6.98,-83.94,131.4,-18.63,2.8,4.62,-128.56,75.68,52.2,28
0.86,-5.69,19.11,20.46,-0.68,167.24,-2.52,-6.92,19.68,40.28,3.71,39.11,-23.72,1.23,2.89,-16.85,57.03,-3.61,28
-2.16,-2.89,18.87,9.91,-13.67,159.62,-7.98,-0.39,19.89,-5.27,25.49,-32.03,-25.55,2.3,0.02,24.56,-7.23,-26.07,28
-4.14,-1.85,20.47,19.48,22.17,94.73,-5.72,-7.46,18.56,-29.79,44.14,-105.52,-24.42,0.59,2.57,75.2,-69.19,-43.16,28
-9.88,3.84,20.76,8.3,21.48,-5.03,-0.89,-13.1,16.14,-1.71,64.16,-194.78,-22.15,-0.9,3.31,174.76,-102.29,-47.71,28
-11.29,0.13,19.93,-10.35,13.04,-68.7,5.94,-17.5,14.82,73.53,95.36,-212.6,-12.98,12.81,2.54,263.57,-96.68,-25.15,28
-9.88,-5.29,19.08,2.1,13.28,-142.33,8.66,-9.26,19.4,78.47,38.43,-125.63,-10.86,21.55,5.49,154.93,-50.15,-11.08,28
-0.69,-9.41,18.14,30.18,-11.08,-216.85,7.36,-5.93,18.88,-35.21,28.32,-68.41,-12.74,16.1,6.25,25.15,-52.15,-31.15,28
9.21,-0.99,20.43,75.93,-55.42,-191.55,3.85,-12.0,17.34,-8.4,36.82,-71.87,-13.26,15.14,9.97,50.49,-51.51,-32.91,28
10.46,4.99,22.12,12.74,-16.5,-92.97,3.43,-13.26,17.89,3.22,20.56,-42.24,-13.68,14.54,11.01,37.5,-26.76,-19.53,28
5.11,-1.41,20.27,-16.16,8.45,-79.64,0.5,-12.09,17.79,-14.4,6.2,3.08,-14.17,14.47,9.04,-2.59,-4.83,-17.29,28
4.1,-6.24,20.74,-20.7,12.35,-64.16,0.3,-9.96,18.71,17.33,-0.05,2.34,-15.39,13.27,7.12,14.16,9.08,-4.74,28
3.39,-4.74,21.53,-14.01,16.6,-36.43,0.35,-9.34,18.68,-0.88,-6.25,-4.39,-15.56,12.17,6.52,5.08,0.73,4.05,28
0.83,-3.32,20.85,-10.5,8.15,-0.68,1.95,-9.5,18.93,2.25,-0.54,-11.62,-15.35,14.63,7.09,13.33,-3.37,2.15,28
0.88,-1.09,20.85,1.86,1.9,-0.05,1.4,-9.95,18.9,2.59,-0.73,-3.37,-14.68,13.46,6.86,3.17,-0.44,0.29,28
1.39,-1.11,21.27,10.01,-8.3,-6.64,2.21,-9.95,18.87,5.37,-2.0,-4.35,-14.54,14.22,6.37,11.62,0.83,3.47,28
1.76,-1.7,21.38,-0.15,-1.86,-7.37,2.85,-10.3,18.98,-6.74,-4.1,-8.5,-14.37,13.53,6.59,8.89,-1.9,5.62,28
0.81,-1.16,21.13,-0.78,-4.39,-3.86,1.82,-9.64,18.93,-7.32,-0.49,-3.32,-14.22,13.7,6.4,0.15,-2.34,-0.54,28
10.57,-8.0,19.31,9.13,-74.71,272.27,2.4,-9.14,18.25,23.53,-16.11,82.18,-20.86,2.69,6.23,-75.49,82.62,8.06,29
4.91,-4.28,18.53,51.12,11.43,133.45,-10.22,-7.3,17.88,-7.32,67.63,-27.59,-25.02,2.01,4.64,22.9,-14.79,-39.89,29
-6.74,0.31,20.98,11.33,33.11,45.17,-8.82,-12.7,15.38,-21.34,53.32,-145.7,-25.07,-4.07,5.32,117.68,-80.81,-54.64,29
-12.9,-1.57,19.77,-15.77,34.72,-62.3,0.31,-16.01,13.64,32.52,93.21,-221.34,-17.18,8.33,3.04,252.49,-114.79,-46.53,29
-8.97,-6.38,18.06,-16.99,-1.27,-171.14,7.22,-15.14,13.92,48.39,82.91,-189.26,-7.26,21.46,4.85,195.36,-111.18,-17.77,29
2.52,-5.13,18.54,26.76,-22.36,-237.11,10.39,-6.71,17.39,44.19,64.84,-123.1,-8.69,24.0,3.87,158.11,-64.5,-30.27,29
10.45,-0.7,19.44,60.6,-33.54,-189.89,7.97,-9.98,16.38,-37.84,48.19,-61.87,-9.1,18.37,6.93,34.18,-60.99,-38.53,29
11.98,4.34,20.01,20.65,-0.24,-125.68,4.26,-12.41,16.11,-29.0,36.47,-32.28,-10.16,18.7,8.06,33.5,-46.87,-33.98,29
8.12,-2.11,19.37,-33.4,20.02,-69.53,4.03,-14.34,16.86,-21.83,17.72,-13.62,-12.83,13.49,8.53,-0.98,-21.63,-22.27,29
5.41,-2.65,20.21,-31.93,18.46,-39.65,2.85,-12.93,16.57,3.08,0.0,-0.59,-12.68,15.04,8.51,9.81,2.25,-2.2,29
3.03,-4.86,21.04,-20.7,15.04,-19.92,4.63,-11.65,17.51,-2.49,-18.21,3.27,-12.95,15.2,6.5,-1.51,10.99,8.89,29
3.04,-3.48,20.59,3.08,-1.51,1.95,4.53,-11.13,17.33,-3.37,-6.98,2.34,-13.05,14.95,6.18,-2.54,4.25,2.44,29
3.57,-1.56,20.81,1.42,-6.3,9.57,4.05,-11.65,17.17,-2.3,-5.62,0.73,-12.6,16.01,6.65,2.83,2.73,0.78,29
3.81,-1.54,20.71,-3.03,-4.44,5.57,3.82,-11.34,16.98,0.1,-0.44,-1.51,-12.86,15.37,6.1,11.38,1.61,-3.47,29
3.38,-1.79,21.01,-1.95,-4.88,3.71,4.28,-10.71,16.49,-8.06,-4.3,6.05,-12.22,15.33,6.19,6.3,-0.88,-0.93,29
3.25,-1.72,20.78,-0.34,-1.03,0.1,2.51,-12.0,16.17,-7.23,4.93,1.03,-12.94,13.23,6.44,1.61,-3.71,-7.23,29
4.1,-1.0,20.59,-8.11,-2.29,8.3,4.71,-12.13,17.89,-2.49,-6.4,-0.15,-12.71,15.86,6.18,12.55,2.39,-0.88,29
2.39,-3.07,20.09,-8.25,3.76,0.49,5.38,-12.21,16.98,0.15,6.69,-4.05,-13.03,17.82,5.8,13.82,1.42,-1.66,29
3.14,-1.9,21.33,-0.44,-6.05,2.39,4.42,-12.13,17.12,0.78,-0.93,0.83,-13.0,14.35,5.78,2.73,3.03,-1.95,29
4.45,-2.43,20.92,1.42,1.61,-5.13,5.15,-11.14,17.01,0.83,-0.24,-1.56,-12.75,16.23,5.08,12.84,3.61,-1.07,29
9.67,-6.5,21.42,-24.37,-12.26,57.71,-1.87,-16.01,10.34,43.65,-53.81,147.12,-15.47,7.63,7.11,-126.17,116.5,16.11,30
8.35,-11.02,17.28,-98.34,-44.04,257.57,-7.14,-6.87,16.03,33.59,-34.96,102.54,-23.46,3.17,1.64,-83.3,78.52,25.98,30
7.53,-16.2,16.44,-44.19,-32.81,265.92,-10.16,-3.81,19.27,-6.54,19.38,-29.25,-26.27,2.91,-0.31,10.01,-23.93,6.64,30
-2.57,-6.8,16.78,23.49,12.5,157.52,-7.11,-13.07,14.04,-23.63,32.71,-145.17,-21.8,-1.62,4.04,100.24,-94.14,-17.29,30
-13.09,-0.47,17.93,7.91,-2.49,100.73,5.75,-19.68,11.35,-7.13,88.67,-234.33,-15.17,6.44,1.59,226.51,-135.69,-26.46,30
-14.09,2.59,19.52,5.03,-4.79,-29.1,9.39,-17.43,13.54,55.27,93.65,-192.14,-4.31,23.76,2.4,231.98,-103.12,-21.48,30
-11.0,-5.79,16.68,12.21,-18.26,-147.71,9.84,-13.47,15.63,-28.27,49.41,-70.7,-8.34,24.9,6.65,50.39,-66.06,-22.02,30
0.34,-10.86,16.15,65.97,12.35,-249.51,4.88,-17.98,14.49,-15.63,44.04,-34.52,-9.72,19.55,10.58,36.87,-44.58,-25.98,30
13.93,-7.13,19.12,48.05,-10.55,-214.16,2.47,-14.99,15.07,-4.88,16.41,1.12,-11.74,13.1,8.41,-7.03,-5.91,-20.17,30
11.31,-5.55,20.72,-16.02,19.48,-81.3,4.66,-13.78,17.23,5.27,0.78,-6.15,-14.21,12.37,6.22,-2.34,1.9,-0.98,30
7.09,-10.04,19.97,-10.89,23.34,-48.1,3.41,-12.83,17.13,-14.16,-11.67,10.55,-13.13,16.14,6.56,-18.51,0.88,2.64,30
2.28,-7.65,19.22,-2.2,21.0,-3.52,2.12,-13.34,15.69,-11.62,-4.64,9.18,-13.11,16.57,7.26,-4.79,0.68,-1.56,30
3.26,-6.4,20.85,4.78,-3.76,-3.76,2.4,-12.45,16.37,1.22,-5.13,3.17,-13.14,14.72,7.16,15.04,4.74,-3.66,30
3.05,-5.74,20.56,-12.55,-8.79,14.16,1.17,-11.86,16.39,10.99,9.33,-3.96,-13.71,13.43,6.4,19.63,2.49,-3.32,30
2.09,-5.62,19.99,-8.84,-1.27,9.13,2.12,-11.92,16.47,4.15,0.59,-6.45,-14.06,13.82,6.1,10.4,0.68,-0.44,30
1.6,-5.36,20.38,2.69,-2.69,3.27,3.48,-13.88,16.37,1.86,1.32,-4.64,-13.45,13.34,6.54,3.42,0.88,0.83,30
2.63,-5.79,20.65,8.79,4.79,-7.37,3.94,-13.07,16.86,-0.88,-1.76,0.05,-13.49,14.97,6.13,-6.69,2.05,0.34,30
1.38,-5.28,20.35,5.57,-0.68,-5.86,2.99,-12.97,16.97,-0.73,-1.07,1.42,-13.6,14.49,6.22,-0.29,1.22,-0.2,30
3.09,-6.93,20.19,2.88,-3.08,-3.03,3.92,-12.53,16.75,-3.03,-1.17,0.49,-13.51,16.2,5.8,9.96,2.15,-0.1,30
2.8,-5.5,20.52,-1.27,-1.56,2.88,1.93,-12.63,16.73,-0.05,3.37,-0.15,-14.0,13.6,5.94,4.05,-0.29,-1.42,30
-2.72,0.99,21.1,-5.42,-3.42,1.22,1.9,-8.33,19.42,4.2,-0.24,-0.05,-15.29,13.73,-1.93,-4.15,2.05,-0.2,31
-2.47,1.1,21.57,1.17,-3.17,1.12,2.19,-8.19,19.66,3.52,-2.0,-0.44,-15.18,14.94,-1.94,2.44,3.32,1.66,31
-1.93,0.82,21.63,-2.1,-8.59,-1.17,2.35,-7.43,19.92,5.47,-0.68,-2.39,-15.16,13.5,-2.35,1.51,1.56,2.2,31
-3.38,1.04,20.82,-0.39,-0.98,1.66,1.59,-7.93,19.59,0.49,-2.0,-0.39,-15.56,12.84,-2.13,-3.81,2.78,0.24,31
-2.31,0.62,21.2,-0.98,-3.47,0.49,2.09,-8.09,20.05,2.78,-1.17,-2.29,-15.36,13.79,-2.12,0.93,2.59,1.86,31
-2.54,0.35,21.03,5.47,-2.05,-0.93,1.8,-8.08,19.91,4.59,-1.03,-3.76,-15.14,12.92,-2.03,2.59,3.17,2.78,31
-2.27,1.26,21.51,0.44,-5.03,1.51,2.96,-7.29,20.02,4.25,-2.73,-2.83,-15.79,13.54,-2.49,-0.24,3.86,1.95,31
-1.84,0.3,21.59,0.78,-1.9,2.2,2.94,-7.25,20.18,1.32,-0.54,1.32,-15.15,13.05,-2.49,-5.08,3.76,-0.24,31
1.0,-3.23,23.42,-4.88,-19.19,27.49,3.02,-14.69,18.07,-18.99,-19.24,48.14,-10.96,21.27,0.14,-10.79,4.05,14.31,31
3.1,0.38,25.86,-211.43,-59.37,250.15,6.37,-38.25,12.3,-167.48,-138.53,266.89,-9.42,29.27,-13.17,-541.5,108.98,50.68,31
-2.18,11.92,17.59,21.78,105.76,136.72,0.99,-4.0,17.65,-15.33,39.55,139.94,-14.09,12.43,8.06,-83.69,92.29,26.22,31
-4.45,0.94,18.69,-32.08,53.86,133.74,-7.03,-2.68,17.08,-41.7,4.79,145.65,-18.2,9.56,4.52,-124.95,79.69,5.57,31
-4.63,-0.03,19.49,-64.31,-3.22,130.66,-1.69,-4.54,21.67,-51.27,-49.41,82.71,-18.99,3.73,0.42,-152.44,42.19,25.49,31
-9.9,4.83,18.89,4.54,-16.94,-104.44,-4.63,-0.17,18.94,16.89,21.63,-141.65,-25.58,-1.16,-0.21,75.98,-46.78,-25.15,31
-6.75,1.52,18.72,59.28,-41.6,-204.44,0.22,-7.55,18.58,38.48,12.6,-214.45,-18.5,6.61,2.51,203.66,-109.67,-30.96,31
0.17,-1.38,18.66,94.78,-22.61,-189.79,4.5,-6.34,18.26,67.38,16.31,-189.36,-11.88,13.69,3.45,242.53,-73.05,-11.67,31
10.5,3.06,22.47,14.7,-39.75,-79.05,11.24,-7.54,20.52,-11.13,-2.29,-75.68,-10.15,21.87,7.13,85.25,-46.48,10.45,31
7.59,-2.84,22.79,25.54,0.78,-76.61,9.27,-11.64,19.45,11.03,33.01,-66.5,-10.59,20.26,8.18,89.06,-41.8,-6.84,31
4.66,-5.2,22.07,-11.33,30.27,-43.99,5.59,-15.31,17.97,-19.58,20.02,-32.03,-10.54,14.89,7.19,32.71,-35.35,-17.19,31
1.01,-3.96,20.26,-8.98,13.72,-13.48,3.66,-12.76,18.02,1.81,7.81,-5.32,-12.96,14.4,5.92,20.85,-7.42,-12.21,31
4.77,-5.21,21.15,-85.5,-38.57,165.97,-7.09,-12.2,14.79,2.39,-2.78,31.35,-19.75,9.2,2.71,-34.47,29.44,-1.22,32
-0.15,-1.67,18.8,-71.83,18.26,184.28,-7.63,-14.06,14.96,4.88,15.97,-33.15,-21.75,6.91,4.44,8.98,-21.53,3.76,32
-9.88,0.18,22.9,-14.26,11.82,101.17,1.16,-15.13,15.87,-0.1,57.42,-134.47,-20.52,4.52,2.47,98.44,-76.17,-0.59,32
-12.57,-2.96,18.36,-26.03,-4.88,16.85,2.57,-14.82,14.52,43.7,64.99,-165.19,-9.83,20.73,-0.19,163.62,-111.04,19.38,32
-13.24,-4.99,17.43,7.28,-8.45,-57.76,6.64,-13.29,15.86,38.28,53.81,-118.36,-7.13,20.51,-0.14,128.52,-78.86,6.35,32
-7.59,-5.88,17.38,88.87,0.83,-180.57,7.89,-12.16,15.78,6.45,51.81,-87.21,-9.46,17.7,0.21,92.28,-62.3,-5.47,32
3.75,-3.49,20.88,24.95,-30.22,-162.89,7.01,-13.25,15.31,10.35,58.25,-72.61,-9.69,20.65,1.0,76.66,-58.98,0.15,32
3.78,-0.71,21.83,32.47,-2.1,-123.1,5.2,-14.85,16.27,-0.29,28.08,-36.52,-10.37,20.46,1.85,33.25,-36.47,-2.54,32
3.28,-4.24,20.91,25.24,13.82,-110.35,3.38,-15.22,16.74,-11.52,1.17,3.76,-10.88,18.15,1.82,-0.68,-9.23,-0.98,32
4.28,-5.21,21.65,2.88,14.99,-82.47,3.59,-12.04,17.97,-0.24,-12.45,11.23,-11.88,18.87,-0.28,-4.74,10.89,-4.93,32
2.35,-5.65,21.38,-0.54,8.74,-39.84,4.4,-10.88,17.89,0.1,-7.96,7.71,-11.7,19.48,-2.12,8.25,12.11,0.49,32
1.79,-4.12,22.41,-1.95,2.98,1.76,2.92,-10.19,17.73,1.95,-0.29,5.08,-11.46,17.45,-1.94,6.01,6.05,-4.59,32
0.42,-3.46,21.24,-4.44,-5.57,13.33,2.75,-10.77,17.37,5.32,3.47,1.27,-12.25,15.36,-1.57,8.35,4.64,-2.49,32
1.02,-1.8,21.18,-0.63,-1.12,9.72,3.39,-11.15,17.82,1.81,-0.24,-1.37,-12.3,15.87,-1.92,-1.51,4.35,-0.68,32
0.58,-0.39,21.18,-7.13,-0.83,7.42,4.25,-11.58,18.31,0.68,-1.42,0.54,-12.01,16.18,-2.13,-0.34,2.59,-0.39,32
-0.22,-0.98,20.99,3.56,1.66,2.78,3.54,-11.28,17.91,-1.66,-0.83,1.95,-12.39,16.85,-1.87,-0.49,3.37,-2.15,32
0.34,-1.62,21.26,4.39,-1.76,-0.2,2.88,-10.83,17.81,0.73,0.2,0.54,-12.13,16.99,-2.02,4.39,2.2,-2.29,32
0.7,-1.96,21.57,1.66,-0.15,1.56,2.68,-10.24,17.87,5.37,0.34,0.98,-12.17,16.02,-2.13,6.79,3.52,-3.52,32
-0.17,-1.91,20.97,0.63,1.27,1.76,3.17,-10.35,18.04,-1.76,0.44,3.66,-12.07,15.55,-2.55,2.05,3.32,-2.05,32
-0.01,-1.26,21.23,1.66,-0.59,2.15,3.08,-10.72,18.1,-0.1,1.95,1.76,-12.46,16.89,-2.45,3.47,2.49,0.05,32
1.73,-8.86,20.03,-108.15,-15.28,221.92,-6.3,-6.81,18.74,-9.08,10.35,-39.7,-21.98,5.16,-0.23,4.35,-19.09,14.79,33
-1.89,0.42,19.27,26.37,1.07,134.62,-3.46,-13.07,16.75,1.9,33.01,-105.81,-17.48,9.36,3.85,68.21,-80.22,18.16,33
-9.61,-0.91,18.78,-11.18,-2.05,94.09,1.44,-13.44,15.15,34.62,57.52,-140.82,-12.02,15.11,2.86,136.33,-91.36,7.67,33
-11.12,2.25,19.32,3.71,-22.41,-24.51,6.02,-12.28,15.21,18.65,47.71,-126.12,-8.56,19.07,1.8,140.67,-75.68,-1.27,33
-7.11,-2.23,20.13,17.63,-43.8,-100.39,6.96,-11.78,14.87,7.13,62.94,-91.65,-7.62,21.26,1.48,92.92,-74.71,-12.11,33
-2.06,-2.62,20.47,52.83,-32.57,-143.55,5.73,-15.75,15.13,-9.18,52.39,-69.09,-6.54,18.83,2.72,73.93,-74.76,-10.5,33
4.59,-3.7,20.62,30.37,-17.09,-134.18,3.83,-15.63,14.95,-7.23,37.99,-57.03,-8.32,16.62,2.91,50.63,-58.69,-7.57,33
7.26,-4.43,22.12,13.53,0.88,-112.7,1.78,-12.83,15.82,-1.66,39.11,-41.94,-10.47,16.68,1.38,43.9,-43.02,-9.13,33
6.38,-5.6,21.03,12.5,1.61,-92.04,0.62,-15.16,16.28,-14.8,8.84,-10.55,-12.02,16.6,2.96,10.69,-23.14,-4.1,33
3.77,-5.22,20.74,7.23,5.62,-70.12,1.49,-12.46,17.17,-1.37,0.98,-3.37,-12.9,16.72,1.5,14.5,-2.2,3.17,33
3.07,-3.92,21.08,6.2,14.84,-58.3,3.26,-10.78,18.49,-2.73,-1.81,-10.55,-13.08,14.51,-0.55,5.47,0.78,1.42,33
-0.32,-5.77,20.81,-15.28,4.25,-17.72,2.65,-11.1,17.54,-9.03,4.0,-7.91,-12.33,17.6,-0.86,3.03,-6.84,-1.71,33
-0.4,-2.57,21.62,4.3,-4.25,-6.15,3.86,-12.89,17.44,-6.35,6.88,-10.89,-12.67,17.07,-0.23,3.03,-6.59,-0.78,33
-0.59,-1.33,21.26,1.61,-3.47,-4.44,3.24,-13.46,17.1,-6.45,7.52,-7.67,-12.27,16.57,0.51,1.42,-8.5,-1.42,33
0.48,-0.5,21.36,-4.2,5.57,-8.11,2.44,-12.04,17.11,0.73,10.94,-5.81,-12.47,16.43,0.26,5.52,-3.86,-7.08,33
0.39,-2.13,21.52,-5.96,2.39,-8.54,1.58,-11.86,17.13,-4.15,10.94,-5.08,-13.85,15.79,-1.44,-3.81,-2.1,-10.64,33
0.64,-3.65,21.44,-3.47,1.12,-8.45,1.98,-11.15,17.54,-6.45,8.59,-0.05,-13.03,18.68,-0.88,9.37,-0.54,0.29,33
0.04,-2.72,21.1,-1.61,6.59,-8.01,2.54,-11.75,17.42,-8.45,2.39,-5.81,-12.82,17.16,-0.51,11.52,-3.66,3.37,33
-1.02,-0.74,20.77,-5.76,15.23,-1.76,1.28,-12.13,17.22,-4.98,-2.39,-1.81,-12.76,16.7,0.26,3.08,-2.34,0.54,33
1.36,0.19,22.34,4.78,0.2,-4.59,1.76,-12.49,16.62,-0.49,-5.91,-6.25,-12.27,15.57,0.43,4.44,-2.64,6.1,33
6.14,1.8,21.21,2.05,6.05,-16.6,13.62,13.27,14.52,115.72,8.74,97.22,-6.87,17.0,-4.03,-96.92,103.61,17.63,34
5.66,2.66,18.8,9.72,-3.27,-5.37,13.76,1.48,20.67,-53.61,3.71,32.52,-5.69,21.29,3.91,-66.31,7.42,-20.8,34
5.6,4.33,18.86,3.08,-1.66,6.64,7.35,-9.07,21.07,-4.2,19.63,-10.01,-9.12,16.96,10.08,23.0,3.27,-11.23,34
6.14,3.49,19.5,2.93,-10.84,9.57,7.51,-6.72,18.3,15.87,-1.03,-6.79,-7.22,16.92,7.61,15.82,2.83,0.24,34
6.97,4.99,20.82,-11.33,1.9,11.72,7.44,-4.36,18.45,2.73,-3.52,3.91,-7.17,17.64,7.58,1.07,1.51,5.91,34
7.53,5.2,25.34,-94.04,47.51,44.34,7.87,-1.86,18.19,0.34,-8.64,5.08,-8.19,17.49,6.91,-9.18,4.25,5.76,34
20.34,-33.33,15.02,-118.75,-23.05,126.81,8.46,-4.06,19.59,-11.96,-2.25,12.94,-7.51,19.24,7.92,14.21,2.64,7.67,34
7.51,-18.33,8.77,80.18,39.94,83.11,7.43,-6.12,22.95,-73.93,49.37,73.97,-10.53,23.65,12.24,-122.46,25.1,-46.97,34
-2.54,3.01,16.82,-21.92,-1.17,44.82,18.29,-41.71,15.41,-93.9,3.47,119.58,1.48,7.9,18.01,-192.29,-4.93,-13.53,34
-8.56,3.25,27.2,-39.4,38.72,84.91,7.57,-18.83,8.27,81.1,27.54,87.21,-3.35,-13.04,14.3,-110.45,100.98,18.95,34
-9.36,1.84,16.64,-12.5,-7.03,16.65,10.03,-8.03,15.54,38.38,-32.86,34.72,-10.29,7.96,6.65,-6.74,71.39,26.37,34
-7.53,6.8,18.96,-12.79,-54.44,-66.75,-7.59,1.08,21.29,71.87,-16.7,88.13,-23.33,16.55,4.66,-56.93,100.98,-4.49,34
-4.45,-1.02,19.15,3.22,-61.91,-141.21,-12.85,-9.47,19.31,-78.37,-23.78,4.44,-20.15,11.61,5.27,5.86,-16.99,3.81,34
5.1,-8.47,19.41,-3.17,-31.3,-180.91,-6.11,5.55,16.54,-26.95,-46.58,-78.61,-21.36,10.01,4.57,49.76,-64.6,-1.07,34
9.44,-4.63,19.56,37.79,-11.62,-201.66,1.28,-9.44,17.36,-34.13,-2.54,-151.37,-16.67,5.17,7.58,101.22,-115.04,-27.15,34
13.58,3.02,18.72,-2.78,10.45,-141.89,9.4,-12.91,17.1,-32.13,26.56,-159.42,-9.74,5.25,9.73,148.05,-106.15,-50.1,34
9.44,0.75,17.8,-36.04,10.69,-100.54,14.62,-8.82,16.34,7.71,53.03,-193.75,-6.18,11.44,5.17,164.16,-111.13,-43.95,34
11.07,0.21,18.79,-62.21,14.06,-69.38,13.92,-5.7,16.19,-24.32,62.74,-127.2,-4.68,22.36,3.19,102.83,-94.63,-43.65,34
3.35,-6.99,19.65,-54.2,9.67,-32.13,11.09,-10.21,17.07,-54.39,43.12,-99.76,-5.26,17.81,4.45,41.06,-101.71,-38.82,34
2.56,-6.61,21.34,4.83,-9.47,-5.66,7.87,-10.91,14.7,-84.81,43.75,-47.85,-7.1,25.12,6.6,24.22,-88.04,-37.6,34
3.26,-7.82,17.97,-9.13,29.93,196.97,4.4,-10.77,15.88,-18.41,-53.37,55.32,-9.11,18.22,3.91,-54.79,54.3,24.85,35
6.07,-5.53,18.83,-23.1,-67.58,189.84,-0.51,-12.33,14.73,6.74,-0.78,20.95,-13.14,14.53,6.86,-13.67,16.36,0.24,35
6.72,-0.16,20.77,-28.42,-66.02,133.94,1.23,-10.94,15.35,2.69,59.33,-60.11,-13.43,13.69,4.82,34.37,-54.74,-24.95,35
5.77,0.05,20.65,-13.38,-12.16,75.0,7.19,-14.96,14.59,-23.0,86.38,-121.24,-9.06,19.05,4.61,103.95,-116.8,-40.72,35
-1.52,-3.72,20.03,-5.03,7.76,19.09,9.35,-16.08,11.52,-16.21,113.67,-122.85,-5.11,20.12,4.31,92.48,-132.28,-59.57,35
-1.51,-3.66,19.6,-9.28,17.87,-76.32,10.61,-17.51,9.95,-1.32,111.23,-127.25,-2.3,16.59,6.23,93.9,-130.86,-50.34,35
5.52,-3.86,20.99,-9.28,2.69,-146.34,9.35,-17.53,11.62,-5.76,84.38,-100.63,-2.32,19.07,7.43,62.21,-109.13,-35.84,35
9.16,-7.23,18.33,-8.25,29.88,-160.06,4.46,-16.69,12.99,-11.47,45.02,-60.4,-3.82,19.97,8.08,37.5,-74.71,-22.27,35
9.28,-7.82,18.2,4.0,21.68,-162.55,3.55,-14.37,14.98,8.01,18.16,-22.41,-5.99,18.58,6.98,33.25,-23.83,-10.16,35
10.83,-9.21,19.45,-11.96,14.45,-127.1,3.5,-13.95,15.49,-1.76,9.23,-8.98,-6.44,18.43,6.37,17.53,-13.28,-3.86,35
7.58,-8.61,19.74,-18.8,10.84,-81.05,4.28,-12.79,16.56,-2.59,4.49,-2.0,-7.44,17.59,4.91,0.98,-4.49,-3.37,35
5.24,-6.77,20.17,6.01,5.86,-36.77,4.3,-11.89,16.54,-3.66,-3.32,0.29,-7.5,18.83,4.8,0.98,-0.68,2.64,35
5.37,-4.24,20.51,2.83,2.05,-19.87,6.44,-12.13,17.11,4.05,8.84,-0.44,-8.14,18.83,4.57,5.91,2.1,-1.07,35
4.75,-2.76,20.37,-1.03,2.69,-5.66,4.61,-12.3,17.45,7.37,15.92,-6.49,-9.17,15.27,3.7,-6.05,1.37,0.29,35
4.55,-2.23,20.1,0.15,-3.61,0.44,5.45,-11.93,17.62,-7.03,-0.24,3.91,-7.81,17.65,4.14,-4.2,2.0,4.44,35
5.64,-1.52,20.87,5.03,-4.15,0.88,4.09,-11.84,16.99,4.69,7.81,-1.32,-7.75,17.12,4.22,7.47,1.95,-4.05,35
6.13,-2.19,20.51,0.1,-7.62,-0.98,4.93,-11.65,17.88,-0.24,-0.39,1.76,-8.28,17.2,3.22,4.1,8.59,0.05,35
5.17,-2.23,20.92,0.05,-7.32,3.61,3.66,-10.09,17.63,6.1,5.96,-0.34,-8.38,18.51,2.46,18.26,4.79,-5.03,35
4.67,-1.59,20.59,8.4,3.91,-5.52,4.5,-11.13,17.87,1.17,1.42,0.78,-8.3,17.71,2.19,-0.83,3.13,-1.51,35
4.28,-1.17,20.5,2.98,-1.42,3.81,4.4,-10.86,17.93,-0.54,-2.93,4.3,-7.81,18.61,2.28,-2.25,3.22,1.17,35
13.67,-11.83,19.13,32.96,19.82,199.85,12.68,-18.52,13.07,-18.6,-143.8,199.32,-9.32,13.79,2.43,-19.58,40.97,10.5,36
12.44,-5.63,19.51,-9.52,-28.52,245.46,10.05,-10.82,12.45,-46.0,-154.39,95.12,-9.74,16.01,1.63,15.33,-57.91,-20.9,36
13.01,-1.87,18.1,-21.24,-78.81,161.23,7.53,-13.89,15.46,9.37,-53.12,58.59,-4.75,18.55,2.66,50.54,-124.17,-39.84,36
6.38,-0.86,17.51,29.35,-2.83,77.73,3.48,-7.95,18.02,18.07,2.59,10.45,0.35,22.49,5.72,42.68,-126.07,-56.05,36
0.74,1.89,19.77,26.27,19.04,7.62,3.99,-11.75,16.12,-20.07,58.74,-69.92,0.15,18.44,8.55,25.34,-116.99,-48.83,36
3.1,-0.29,20.14,-23.19,7.37,-84.03,9.42,-14.17,12.58,-18.55,93.51,-118.8,-1.43,21.7,8.34,60.2,-103.03,-42.87,36
9.35,-2.24,18.56,-24.56,12.84,-147.51,10.26,-16.22,10.33,-29.39,97.22,-85.21,-5.5,17.14,7.21,6.01,-72.75,-35.84,36
11.76,-6.61,17.99,-41.16,39.45,-122.46,14.53,-22.09,9.88,-26.17,104.54,-90.19,-4.85,21.09,7.26,28.22,-29.25,-14.99,36
12.61,-9.82,19.26,-33.79,33.69,-126.66,7.68,-19.37,11.76,7.57,91.85,-83.74,-8.04,17.75,3.35,8.35,-4.83,-5.13,36
10.53,-10.76,18.92,-7.23,35.06,-113.62,3.14,-19.12,12.1,2.39,60.35,-67.43,-6.92,17.6,3.35,0.68,-0.63,-2.25,36
3.22,-9.84,18.37,-18.9,35.4,-81.3,4.96,-14.69,13.7,-11.91,-12.5,-15.38,-6.76,20.05,3.09,4.59,7.08,3.17,36
4.41,-3.95,15.78,26.17,19.29,-24.61,4.43,-10.16,16.56,0.15,-17.43,-11.72,-7.25,18.23,3.09,1.51,7.62,-4.98,36
4.03,-1.46,19.77,41.7,12.16,-4.3,4.5,-13.33,16.67,-2.73,-4.05,-0.83,-7.22,18.44,2.01,7.03,4.44,-4.35,36
3.99,-3.04,21.0,4.39,0.73,-2.98,5.38,-12.52,17.17,4.05,-7.57,4.49,-7.21,18.74,1.45,2.83,5.57,-4.83,36
5.39,-2.19,21.43,1.61,-6.54,2.93,4.42,-11.84,16.86,12.4,3.08,2.0,-7.22,19.94,1.35,8.98,2.1,-1.86,36
3.62,-2.05,20.39,5.57,3.22,1.37,5.47,-11.12,17.29,-0.68,2.39,5.42,-8.46,17.1,2.21,-0.49,3.76,-2.93,36
3.94,-0.45,20.85,9.13,5.03,1.51,4.98,-10.22,18.22,3.91,-1.81,0.73,-7.95,17.68,2.07,-5.32,0.98,-3.56,36
2.58,0.97,20.39,8.98,-2.0,3.37,3.36,-11.87,16.79,-0.68,5.57,2.69,-8.43,17.97,1.81,3.17,3.42,-1.51,36
3.56,0.79,21.26,0.24,1.03,-0.1,3.36,-10.82,16.96,5.32,2.64,4.98,-7.75,17.57,1.88,10.2,-4.35,-6.01,36
3.92,-0.92,20.86,4.64,-0.39,1.61,3.54,-11.9,17.32,2.44,3.76,-0.15,-7.79,20.32,1.25,6.2,0.63,-3.12,36
-5.58,-7.95,19.31,-48.34,18.55,108.2,-0.84,-18.96,15.18,-86.23,-63.87,186.62,-16.6,2.93,10.71,-129.88,59.62,29.1,37
-8.46,-9.0,18.84,-18.12,12.45,75.63,-3.85,-15.15,14.07,-28.13,-30.47,102.78,-17.56,0.13,13.24,-85.84,36.23,19.73,37
-9.59,-7.52,18.22,-14.4,12.01,96.63,-9.77,-17.18,12.5,-14.75,-18.9,72.75,-17.11,1.69,12.0,-74.66,53.13,25.34,37
-10.56,-1.46,17.24,-9.38,28.56,107.47,-9.15,-15.33,13.67,-4.59,-40.62,95.02,-18.04,2.64,7.37,-83.4,66.8,30.27,37
-14.54,3.44,15.26,-23.14,36.57,82.71,-9.74,-8.76,15.13,-6.01,-21.04,106.3,-20.76,2.05,2.0,-79.98,65.77,17.19,37
-19.6,4.79,12.66,-9.52,2.59,5.62,-12.08,-3.84,15.88,8.11,1.22,86.28,-25.51,-3.98,-1.6,-23.93,34.03,-7.23,37
-17.85,1.9,13.47,-7.81,-11.62,-33.2,-18.37,2.46,13.08,48.88,24.85,-3.37,-23.19,-0.76,-0.13,23.49,-17.53,-6.49,37
-16.22,-1.84,14.67,26.95,-37.11,-110.11,-15.65,-2.43,14.03,-12.7,-10.21,-55.86,-22.38,-2.04,1.83,97.56,-61.04,-16.16,37
-11.1,-2.62,16.25,59.62,-67.04,-161.72,-14.2,-8.0,13.71,34.08,8.06,-136.57,-21.12,-2.26,3.58,166.6,-87.45,-18.51,37
-4.25,-0.83,19.79,70.95,-40.28,-143.07,-9.49,-10.51,14.95,31.2,-8.94,-183.59,-16.18,6.24,7.06,186.28,-84.72,-19.24,37
-0.16,0.71,21.29,67.53,-40.58,-132.86,-1.08,-16.22,17.44,60.45,41.26,-151.12,-14.32,14.83,7.95,171.44,-62.21,-17.63,37
3.0,-0.53,22.64,25.68,-25.88,-95.46,0.85,-10.3,18.39,52.78,25.0,-126.66,-12.41,17.79,9.96,102.44,-56.59,-14.11,37
4.01,-0.76,23.02,8.98,-0.24,-57.91,4.62,-12.61,19.0,16.02,20.65,-95.31,-12.31,18.89,11.34,70.61,-40.19,-21.97,37
-1.7,-2.64,20.48,-2.1,21.34,-36.67,3.0,-12.05,18.71,1.37,29.79,-39.16,-14.1,12.36,10.54,25.63,-13.67,-33.79,37
-3.13,-2.92,20.78,-1.17,3.47,-12.89,-3.12,-11.72,16.86,2.59,31.1,-19.34,-15.36,10.05,10.25,13.23,-4.93,-15.92,37
-1.17,-1.69,21.42,3.71,-2.69,2.15,-2.57,-11.96,17.7,3.56,5.71,-3.91,-14.69,11.1,9.75,8.35,1.86,0.05,37
-0.73,0.58,21.51,3.56,-4.2,4.49,-0.2,-10.69,18.88,5.81,-0.88,2.59,-14.68,13.19,8.4,8.84,6.45,1.86,37
-0.69,1.02,21.43,2.88,-3.61,-1.32,0.98,-9.52,19.83,-0.88,-3.27,2.15,-14.65,13.64,7.85,14.79,1.32,-1.22,37
-0.86,1.09,21.21,2.73,-3.42,-7.28,0.76,-9.61,19.48,-0.24,1.66,-2.44,-15.01,13.31,7.54,15.97,-3.17,-2.39,37
-2.06,1.98,21.41,0.73,14.45,-17.04,0.01,-8.96,19.29,-3.66,4.25,-8.84,-16.07,12.31,7.15,10.64,-10.16,-6.2,37
-0.32,-1.6,18.9,-14.11,10.74,66.16,0.14,-11.29,16.41,-17.58,-27.54,54.79,-8.02,15.78,2.97,-21.29,62.35,22.27,38
-0.41,-3.22,21.37,-13.09,3.13,27.1,-1.68,-11.2,17.29,2.88,-5.32,18.99,-8.27,18.11,4.03,-45.12,23.88,12.89,38
1.86,-4.3,21.45,1.17,-9.57,1.86,-1.2,-13.32,15.62,-1.81,-0.34,2.0,-9.12,19.0,6.92,8.15,2.0,3.86,38
0.0,-5.91,20.39,2.93,7.81,4.83,-1.71,-14.82,15.53,7.62,7.81,4.44,-10.12,17.0,7.51,-8.3,6.98,-3.76,38
-0.53,-4.53,19.99,7.62,4.39,-7.03,-1.96,-13.37,15.8,12.45,10.3,-5.91,-9.94,15.44,6.55,14.36,-3.96,-3.22,38
0.12,-6.28,21.53,-0.59,-2.2,-1.03,-2.22,-15.0,15.91,0.1,-0.2,-0.24,-8.93,17.75,8.24,5.57,0.83,0.0,38
1.42,-5.64,21.65,-6.49,-5.76,16.8,-1.9,-15.76,16.31,-16.75,-10.64,13.82,-8.21,19.34,8.71,-8.74,10.16,2.39,38
1.03,-3.5,21.6,-1.66,-4.54,10.84,-1.99,-14.25,17.08,-15.19,-6.05,8.89,-9.61,17.77,7.17,-9.62,9.81,0.05,38
2.88,-10.25,21.93,-31.3,-7.81,53.52,-4.07,-21.71,12.44,-47.61,-38.72,63.13,-3.1,21.49,11.62,-41.75,37.6,2.1,38
-2.35,-4.89,20.93,17.48,8.2,145.02,-1.48,-8.21,17.79,5.13,-48.54,114.36,-11.77,11.41,5.78,-121.97,102.88,39.31,38
-5.3,1.83,20.1,10.89,11.38,22.41,-5.07,-6.32,17.81,7.57,13.57,-1.71,-16.77,11.7,5.11,-11.13,17.48,1.27,38
-6.9,1.33,19.2,-9.18,-0.78,-113.48,-2.56,-10.54,14.78,2.44,53.52,-126.27,-19.45,9.5,4.16,43.02,-82.13,-29.59,38
3.87,-2.05,19.78,-28.03,-43.46,-170.9,8.59,-16.26,14.67,-11.18,54.54,-179.05,-9.14,15.41,2.79,89.6,-149.61,-21.53,38
12.98,-3.71,21.45,-27.34,-4.05,-170.75,11.31,-18.08,15.3,-13.62,98.63,-149.32,-1.96,21.33,3.53,70.75,-145.9,-35.11,38
11.16,-5.62,19.03,-9.42,39.16,-129.05,6.15,-15.48,13.55,7.08,98.83,-97.51,-0.71,20.61,5.86,42.53,-111.33,-55.52,38
8.84,-7.86,18.47,-14.65,22.31,-106.74,4.09,-18.43,12.9,-6.64,65.53,-70.7,-0.18,18.79,8.08,49.76,-92.19,-43.75,38
8.21,-8.85,20.49,-26.66,19.24,-28.08,3.56,-18.7,14.97,-6.98,26.86,-7.71,-2.28,19.21,10.46,-9.38,-24.8,-25.44,38
2.33,-5.53,19.7,14.26,21.83,-14.36,-0.44,-12.37,14.74,11.43,19.92,-3.42,-7.23,16.52,8.22,3.47,-6.2,-19.68,38
2.83,-3.82,19.98,2.64,4.49,-1.71,0.11,-13.19,16.69,10.45,5.91,-2.49,-7.89,15.04,7.18,-0.24,2.88,-7.81,38
3.45,-3.26,20.62,-2.54,-3.71,4.93,2.48,-13.48,17.37,-0.83,-3.56,0.63,-7.02,17.75,6.59,-3.86,4.05,2.59,38
3.41,-6.35,19.35,-5.57,-20.21,179.3,5.07,-17.77,13.23,-22.61,-113.82,133.35,-10.86,13.23,8.98,-117.19,113.38,75.59,39
-1.76,-7.19,21.26,-6.01,-6.93,121.14,-3.78,-17.2,13.19,-14.16,-62.55,87.01,-11.41,10.64,13.19,-61.13,81.49,51.81,39
-6.91,-5.03,18.71,14.89,0.15,57.57,-6.91,-12.83,13.15,43.8,-25.24,49.61,-15.54,8.92,12.75,-6.69,52.83,19.09,39
-6.79,-5.0,19.33,12.84,-17.92,-8.01,-9.07,-12.61,13.9,-4.98,2.0,-19.97,-14.44,10.7,12.04,35.69,-13.28,2.93,39
-3.84,-3.89,21.14,-10.11,-21.19,-38.09,-3.86,-13.05,16.24,-17.33,-0.54,-44.38,-13.78,11.73,11.06,28.32,-35.69,1.37,39
-3.31,-6.06,19.82,-9.42,-8.25,-91.06,-4.41,-15.35,14.02,-5.57,45.9,-79.15,-11.63,11.49,11.74,40.23,-72.71,-23.54,39
0.0,-7.16,18.55,11.33,10.89,-147.95,-2.3,-18.66,11.46,25.78,89.84,-112.89,-6.89,14.1,10.1,75.54,-112.3,-50.29,39
5.21,-6.92,19.04,27.2,21.04,-164.26,2.66,-19.65,12.23,29.1,106.98,-122.75,-3.19,18.43,8.94,93.55,-121.78,-57.47,39
7.9,-6.28,19.85,11.47,27.2,-151.12,5.09,-17.63,14.33,30.22,102.25,-117.38,-3.59,17.98,8.2,93.99,-101.9,-69.43,39
9.62,-0.69,21.28,16.75,13.33,-129.35,5.47,-13.39,15.54,13.43,89.94,-102.2,-2.35,24.55,6.86,84.62,-102.05,-68.99,39
6.54,-1.74,21.1,-2.25,6.84,-108.45,3.38,-13.31,15.81,13.53,71.92,-85.84,-4.32,18.62,7.78,41.21,-84.96,-47.61,39
2.24,-4.0,20.35,-14.01,8.98,-76.27,-0.57,-14.2,14.83,-9.38,35.69,-57.47,-5.64,15.84,9.12,16.99,-63.62,-28.61,39
2.53,-3.16,20.96,-16.65,-6.4,-34.57,-0.12,-14.15,16.64,-10.35,16.16,-24.32,-6.76,18.12,8.49,5.03,-22.95,-6.4,39
3.1,-2.02,21.36,-5.91,-1.46,-19.43,0.28,-13.65,17.57,-1.32,15.63,-12.7,-6.12,17.25,8.02,9.47,-18.31,-4.25,39
3.14,-2.01,21.39,-7.57,1.07,-4.64,0.81,-13.42,18.19,-10.11,10.55,-4.49,-7.8,16.45,7.44,2.1,-4.88,-3.08,39
1.92,-1.13,21.25,-2.15,2.1,-7.32,0.03,-12.33,17.53,-4.49,3.81,-4.35,-7.08,17.66,7.1,-0.29,-6.2,-3.47,39
1.84,-1.89,20.72,-1.66,1.27,-8.25,0.22,-12.58,17.28,-2.88,4.88,-6.01,-7.13,17.67,7.43,7.52,-6.1,-2.78,39
1.67,-2.62,20.71,-2.15,-0.49,-8.59,-0.13,-12.94,16.74,-2.1,0.05,-6.93,-6.65,17.21,7.61,3.22,-7.96,-1.22,39
2.18,-2.18,20.95,-5.22,1.61,-7.52,0.2,-13.41,16.82,-1.12,5.96,-6.93,-7.36,16.8,7.72,2.05,-6.45,-4.69,39
1.88,-2.16,20.77,0.63,0.05,0.93,0.94,-13.25,16.95,-2.98,0.83,-2.83,-6.85,17.71,8.14,-1.07,0.49,-0.05,39
8.62,-1.83,17.69,-5.66,2.44,219.97,1.38,-14.71,16.44,-10.3,-17.14,51.42,-6.98,14.34,6.83,-47.46,49.61,8.45,40
8.19,1.81,19.82,17.38,-32.23,148.44,1.21,-10.7,18.89,-1.9,-0.1,8.69,-9.16,18.65,4.83,-10.45,10.5,-0.54,40
9.62,2.15,22.03,6.88,-12.06,96.78,0.68,-12.93,15.85,-5.47,28.66,-59.08,-7.79,16.18,7.1,17.87,-55.47,-10.11,40
1.69,-2.97,19.99,-6.64,17.72,49.9,2.51,-15.34,15.01,-16.55,32.71,-57.28,-3.06,19.21,9.3,14.06,-62.01,-19.19,40
1.39,1.4,20.95,-2.15,4.88,5.71,4.02,-21.29,11.05,-13.48,65.87,-55.62,-2.59,16.03,10.85,38.96,-66.7,-45.8,40
1.53,-1.9,19.69,-7.67,-10.4,-63.72,4.04,-18.32,12.0,-5.47,78.86,-51.76,-3.58,17.51,9.04,41.75,-66.89,-52.73,40
5.54,-3.23,21.41,-26.17,-6.15,-58.74,5.14,-18.66,13.97,-20.12,67.63,-67.53,-4.69,14.72,8.03,34.13,-72.56,-47.41,40
5.46,-9.86,18.33,-8.3,21.09,-76.95,2.47,-17.12,13.79,29.74,66.41,-56.05,-4.49,17.57,8.77,37.79,-63.87,-39.94,40
7.34,-8.04,18.73,-7.42,34.52,-80.91,-0.5,-15.36,13.85,13.53,47.12,-44.14,-5.86,18.17,8.04,24.85,-51.12,-30.66,40
7.4,-7.18,19.85,-18.95,20.95,-88.13,-1.4,-16.16,14.77,18.99,22.95,-24.76,-6.07,16.54,7.79,33.64,-28.12,-14.36,40
4.59,-7.5,20.26,11.62,26.17,-82.03,-0.95,-13.69,16.71,15.62,1.81,-13.48,-7.3,16.72,5.03,15.87,-7.28,-1.76,40
2.26,-7.58,20.05,2.73,24.27,-58.4,-0.5,-11.74,17.99,4.44,2.05,-2.69,-6.65,20.31,4.46,11.91,-2.54,2.29,40
1.99,-6.83,20.53,17.14,4.69,-39.55,1.32,-12.45,18.09,14.16,-11.67,2.34,-5.73,21.23,4.58,13.23,-1.66,-1.32,40
1.03,-2.97,20.35,16.36,-2.05,-14.16,1.92,-12.98,18.28,0.24,-1.86,-1.95,-7.38,18.7,3.88,-5.27,2.29,-0.05,40
2.68,-1.26,21.65,5.03,-3.66,-4.49,2.23,-12.65,18.72,-6.59,0.49,-2.83,-7.85,18.21,3.64,-11.13,5.71,2.83,40
3.36,-0.39,21.25,-5.37,-2.44,-1.27,2.39,-13.83,19.12,-10.84,1.12,-1.51,-6.97,18.72,3.5,-12.94,4.05,1.56,40
2.49,-1.85,21.06,-4.2,-0.83,1.51,2.46,-12.68,18.66,-9.33,0.05,1.9,-6.78,21.55,3.8,2.15,3.03,0.05,40
3.25,-1.5,21.35,-3.42,-4.54,6.01,0.52,-12.28,18.33,-12.84,-0.34,0.2,-6.96,19.64,3.66,0.63,1.32,0.24,40
3.79,-0.95,21.41,-5.42,-3.47,6.79,0.69,-11.52,18.69,-0.78,-1.86,2.25,-6.75,20.03,3.65,2.98,2.25,1.12,40
3.52,-0.97,21.65,-4.98,-1.07,4.35,0.73,-10.98,18.5,-4.2,2.93,0.88,-6.86,19.38,3.44,1.81,0.54,1.12,40
7.55,-10.21,19.38,-10.35,-29.88,179.83,1.91,-9.54,16.24,28.66,-15.19,79.35,-8.19,15.54,6.22,-48.29,70.65,16.7,41
10.33,-7.3,18.34,-34.28,-57.91,253.61,-0.42,-12.03,18.04,0.15,4.74,-6.49,-12.77,13.6,7.64,-5.81,4.49,-0.49,41
12.92,-2.69,20.64,9.67,-47.02,130.71,1.91,-14.6,16.33,-16.36,37.21,-70.61,-7.64,15.58,10.12,9.91,-68.95,-18.8,41
1.67,-1.0,19.33,15.67,31.45,80.08,3.88,-17.33,14.31,-5.81,67.19,-99.85,-3.95,16.18,10.98,37.3,-98.83,-49.07,41
-1.99,-1.58,20.13,-4.88,0.73,-3.71,4.03,-19.24,11.78,-29.79,75.88,-60.25,1.47,22.61,12.45,29.15,-70.65,-72.41,41
2.93,-4.71,20.76,-11.82,-6.84,-71.97,6.7,-21.67,10.87,6.1,91.85,-72.17,-2.21,14.03,13.16,62.11,-76.17,-77.73,41
6.23,-6.45,19.94,-9.08,2.2,-114.01,2.93,-17.94,11.79,10.55,66.55,-47.75,-1.46,22.28,12.43,62.5,-61.13,-51.37,41
12.25,-9.03,17.61,-42.09,27.73,-89.16,1.07,-17.6,11.86,20.26,47.02,-35.74,-4.43,17.42,11.63,34.72,-43.46,-34.57,41
8.01,-11.95,18.23,-3.37,45.8,-109.28,0.25,-17.35,13.22,6.88,20.61,-16.16,-4.21,17.85,10.89,24.46,-27.54,-16.5,41
7.9,-7.62,20.16,4.25,30.13,-84.33,0.46,-15.45,14.59,14.4,7.03,-15.28,-5.61,17.62,9.89,22.7,-13.96,-2.98,41
2.8,-9.4,18.72,6.79,29.05,-57.13,0.01,-14.05,14.67,8.06,2.88,-6.3,-6.55,18.74,7.77,15.97,-4.0,-2.0,41
1.91,-8.0,19.82,7.62,9.18,-31.2,-0.36,-12.96,14.89,1.61,0.05,2.59,-6.12,18.79,8.06,9.47,0.93,-2.93,41
2.42,-6.02,20.27,13.33,-4.25,-20.75,2.85,-14.89,16.53,11.82,4.79,-9.42,-6.53,16.52,6.74,6.98,4.35,7.42,41
2.27,-3.77,20.35,9.18,-0.54,-8.64,2.11,-16.48,17.26,-0.0,-0.34,7.28,-6.2,20.73,6.91,-0.93,4.44,-0.24,41
1.89,-3.52,20.51,4.83,3.13,-1.61,2.14,-15.36,17.19,-5.76,2.54,-1.42,-7.09,16.56,6.04,-10.01,5.37,-0.98,41
3.16,-3.49,20.9,13.67,-11.23,-0.44,1.56,-14.18,16.09,-10.3,-0.49,0.98,-5.54,19.16,6.95,-0.83,-0.2,0.54,41
6.1,-0.89,22.58,3.08,-8.3,4.83,1.14,-13.34,16.53,-4.59,-0.44,-1.37,-5.83,19.12,7.06,4.15,1.95,-2.73,41
3.44,-1.96,21.03,-6.25,-2.34,7.86,0.9,-13.44,15.73,2.54,3.37,-6.4,-6.58,17.54,6.77,2.0,-1.56,-1.95,41
3.52,-2.32,20.89,1.42,-3.32,0.29,0.75,-13.4,15.77,-3.32,4.0,0.73,-5.55,18.48,7.54,2.1,-3.71,-10.06,41
2.72,-2.94,20.32,0.05,2.64,0.1,1.39,-14.42,16.86,-6.35,-1.37,-2.64,-5.91,17.31,7.08,0.73,-2.1,-0.88,41
1.2,-0.51,22.9,3.12,1.71,152.69,3.81,-11.3,12.16,-16.89,-67.53,128.42,-3.43,26.31,6.29,-91.55,84.13,62.3,42
3.77,4.31,21.73,-15.28,-6.35,106.69,10.78,-9.33,19.42,-11.67,-93.65,97.22,-8.15,17.41,1.46,-108.59,86.91,64.01,42
1.36,-5.39,20.18,-41.6,24.71,13.96,6.06,-14.29,16.86,-24.71,6.4,4.35,-12.43,13.57,7.08,-21.05,17.09,-6.93,42
3.58,-7.62,19.32,-8.35,-23.93,-16.85,4.28,-16.22,12.73,-3.13,12.3,-11.04,-7.96,15.87,10.09,15.97,-14.7,-12.99,42
4.54,-3.66,21.85,-4.98,-15.72,-80.81,9.17,-13.66,16.77,-6.79,45.21,-68.16,-10.56,14.76,7.31,50.44,-58.2,-23.97,42
4.75,-3.65,20.36,20.41,2.54,-170.07,7.98,-15.57,13.42,-3.66,112.99,-136.57,-6.75,15.4,3.95,109.13,-125.73,-55.71,42
8.08,-5.65,19.59,4.98,13.62,-127.78,6.42,-15.92,10.02,-15.58,92.53,-85.5,-1.28,20.84,8.32,62.06,-105.57,-49.46,42
5.13,-12.62,19.08,18.65,41.6,-121.09,9.54,-22.09,9.56,-2.1,90.63,-77.49,-5.68,10.04,10.31,67.14,-83.54,-48.19,42
3.81,-7.98,20.99,8.74,42.14,-90.04,3.18,-15.24,11.99,12.7,71.04,-53.42,-5.8,16.63,7.37,55.66,-66.8,-43.95,42
1.48,-7.15,20.12,-6.45,33.2,-56.45,3.2,-17.31,12.92,-4.79,49.41,-39.01,-9.0,14.14,5.77,3.61,-43.75,-30.32,42
0.99,-6.56,20.8,1.76,1.9,-41.46,1.49,-16.8,13.62,5.71,29.69,-25.2,-8.07,16.47,6.61,19.63,-33.98,-9.33,42
-0.34,-5.5,20.14,0.98,-4.0,-9.67,1.05,-16.03,14.59,5.76,4.15,-6.84,-8.5,17.83,6.65,4.64,-9.03,-0.2,42
0.08,-4.11,20.68,10.69,8.3,-1.51,0.78,-14.9,14.93,4.69,-3.71,3.37,-9.74,17.55,5.6,12.01,1.61,-3.08,42
0.96,-2.8,21.88,2.44,-2.64,7.76,4.32,-13.36,17.5,-4.1,-8.15,3.13,-7.94,17.36,3.96,-4.54,9.03,0.83,42
-0.5,-1.74,20.81,0.2,-7.28,1.81,2.36,-12.98,16.5,-5.08,-4.2,1.46,-9.14,18.87,3.62,2.0,3.42,0.49,42
0.03,-2.47,20.68,-5.57,-3.61,2.78,3.23,-14.12,16.76,-2.44,-2.73,-2.54,-9.35,18.24,4.12,-4.0,3.61,0.83,42
-0.08,-1.65,21.26,-3.22,-1.61,2.29,2.15,-13.2,16.14,-5.57,-7.57,0.39,-9.32,20.13,4.03,8.11,1.37,-0.05,42
0.56,-2.62,21.4,0.63,-8.11,-4.3,2.49,-13.91,16.37,1.76,-3.27,-4.1,-9.64,18.32,4.24,11.52,-0.63,1.61,42
0.3,-1.97,21.2,8.79,4.59,1.95,2.59,-13.38,16.57,-2.73,-2.69,3.03,-8.73,17.48,4.23,2.88,4.44,-2.1,42
-1.31,-2.04,20.94,-3.47,0.59,6.49,3.52,-14.94,17.0,-4.98,-8.79,-4.59,-9.46,17.58,3.83,-4.88,6.45,2.44,42
17.52,-4.42,22.95,-42.29,-20.95,251.37,2.69,-13.28,16.12,-4.59,-2.25,31.1,-12.14,14.77,5.15,-27.3,32.13,-4.74,43
14.07,-6.12,19.29,-25.05,-55.66,191.46,4.13,-14.72,14.45,-12.94,52.1,-61.82,-11.0,14.32,6.01,37.01,-68.36,-14.7,43
9.97,4.35,19.93,14.99,-5.22,112.74,6.55,-19.07,10.95,49.61,144.82,-205.13,-5.36,11.76,-0.77,144.78,-193.07,-24.37,43
-1.19,-2.96,19.78,-9.52,19.68,27.73,10.29,-8.02,13.99,21.09,65.58,-106.93,5.11,27.24,-0.4,88.67,-109.42,-23.54,43
-0.18,-5.03,19.42,-2.78,3.42,-73.39,13.12,-11.5,15.85,-38.92,59.13,-47.17,0.89,22.3,-0.24,9.03,-71.73,-34.86,43
1.34,-4.39,18.26,75.24,-4.88,-231.35,7.75,-17.83,12.32,-43.85,58.79,-53.66,-0.83,19.87,4.94,19.82,-77.69,-28.91,43
13.33,1.98,19.95,9.47,-0.59,-138.48,3.45,-19.09,12.22,-8.5,43.65,-48.1,-3.47,17.67,6.18,33.4,-54.74,-12.45,43
12.82,0.61,19.92,-44.97,23.54,-68.16,1.08,-16.21,13.21,2.39,8.4,-15.38,-5.43,18.91,5.41,9.28,-16.94,-3.81,43
8.91,-5.62,19.86,-46.34,23.54,-72.51,2.61,-13.68,15.77,4.25,-2.73,15.09,-5.57,21.34,2.76,6.2,8.74,-7.13,43
3.83,-8.54,20.29,-4.83,15.23,-63.53,3.41,-12.61,16.68,5.13,2.2,8.98,-6.53,18.18,1.03,-4.79,8.4,-6.59,43
0.75,-6.23,19.58,4.93,6.1,-21.34,3.73,-12.63,17.11,2.88,1.03,0.83,-6.93,17.11,0.79,1.22,4.1,-3.37,43
2.91,-2.59,21.59,6.59,7.37,8.5,3.39,-12.49,17.27,3.52,1.17,-0.78,-6.79,17.61,0.85,-1.86,3.52,0.29,43
2.09,-1.6,20.7,1.51,4.98,5.96,3.47,-12.64,17.48,-1.51,-3.37,4.74,-6.78,19.12,1.52,-9.77,5.62,2.0,43
2.43,-1.7,20.87,-3.42,-0.1,3.27,2.44,-12.4,16.37,2.54,-2.39,-3.12,-6.49,17.89,2.25,3.71,0.29,1.37,43
2.23,-0.78,21.1,3.52,-0.2,2.25,3.28,-13.48,16.7,-5.71,-10.35,11.33,-6.26,18.41,2.34,-12.65,11.04,4.0,43
1.84,-1.26,20.98,-3.66,-3.66,6.49,1.97,-12.16,16.13,7.42,1.32,0.49,-6.77,18.01,2.32,4.05,4.0,-0.63,43
0.72,-1.62,20.31,2.64,-3.17,-2.0,3.01,-12.15,16.11,2.0,-3.22,0.29,-6.27,19.65,2.63,14.7,2.49,1.37,43
2.2,-2.06,21.06,-8.84,-6.4,15.72,2.91,-12.15,16.66,6.1,2.44,1.71,-6.37,18.64,2.19,12.55,4.1,-2.05,43
1.8,-2.0,21.12,8.89,2.69,1.37,2.73,-11.74,17.1,8.06,4.35,-3.71,-7.07,16.99,1.15,3.37,2.73,-4.15,43
2.51,-1.01,21.43,9.37,-4.79,-2.98,2.53,-12.45,16.23,-0.49,4.88,-3.47,-6.62,19.22,1.74,-0.49,-1.61,-2.44,43
6.46,-11.01,20.04,-43.21,-8.35,157.71,2.64,-14.01,16.42,-6.49,-28.86,11.77,-12.4,14.77,8.76,-26.9,14.79,24.41,44
3.72,-7.35,18.34,-83.98,-37.26,222.71,0.18,-15.04,11.82,7.81,64.6,-69.92,-9.87,11.69,10.31,49.41,-75.49,-36.33,44
2.79,-4.13,21.52,-1.12,-51.27,117.19,2.27,-17.12,10.58,17.48,104.49,-101.12,-5.18,16.54,10.47,90.77,-110.35,-63.23,44
0.47,-2.67,21.72,-8.35,-19.04,28.66,2.55,-18.24,8.0,21.0,117.82,-88.04,-1.93,19.45,10.5,100.1,-96.58,-72.85,44
-1.1,-6.29,19.26,8.25,6.98,-89.75,4.66,-23.09,7.19,1.27,84.13,-72.85,-4.43,17.36,12.82,59.23,-66.7,-66.75,44
3.55,-7.7,19.42,22.31,12.65,-138.43,1.97,-16.51,9.06,38.18,72.85,-44.04,-5.95,19.33,9.81,67.87,-50.34,-41.8,44
5.18,-9.2,17.59,26.07,45.56,-132.08,2.64,-17.97,13.01,13.18,24.61,-24.41,-7.38,16.38,8.47,28.81,-20.31,-10.11,44
5.09,-13.38,17.31,0.59,56.2,-98.63,2.97,-16.18,14.97,14.75,5.13,-7.32,-8.2,19.52,6.43,9.72,1.66,3.86,44
3.12,-9.04,19.03,35.25,38.53,-79.0,4.19,-13.96,16.45,9.33,-3.66,-0.05,-7.82,18.56,5.49,-8.94,3.96,3.17,44
2.92,-7.58,20.65,14.84,9.47,-35.3,3.67,-13.27,16.5,-2.54,0.05,0.34,-8.18,18.15,5.17,-1.32,2.44,-0.59,44
2.21,-3.76,21.28,19.09,-1.37,-7.86,2.4,-13.7,16.2,-2.83,-2.34,2.15,-7.58,19.54,5.25,2.64,1.17,-1.95,44
3.36,-2.44,22.25,18.36,-1.17,8.3,2.23,-12.63,16.13,2.1,-3.03,-1.22,-7.97,18.07,5.35,9.23,1.61,-1.17,44
1.9,-1.43,21.27,-1.03,-2.88,1.32,3.29,-14.85,16.85,-3.96,-4.3,-0.34,-8.27,19.13,4.72,2.15,1.56,0.88,44
1.03,-1.0,21.01,-1.51,0.1,-0.73,2.89,-14.4,16.22,3.71,2.78,2.15,-8.25,17.4,5.09,-1.51,2.34,-1.95,44
0.67,-1.47,20.47,0.24,-2.83,-0.44,1.88,-11.92,16.3,10.01,0.05,5.81,-7.97,18.65,5.48,8.79,4.05,-6.64,44
0.5,-2.14,21.16,1.61,0.83,0.39,2.9,-12.88,16.42,-3.13,-0.29,2.1,-8.44,19.23,5.17,1.56,4.15,-2.64,44
2.51,-1.71,21.55,2.25,-4.79,0.59,2.25,-12.48,16.78,-2.44,-1.42,3.13,-8.38,18.28,4.47,4.0,3.52,-0.83,44
1.26,-1.61,21.05,-4.88,4.98,3.76,1.95,-12.44,16.15,0.39,0.44,2.1,-8.53,18.95,4.74,3.86,2.34,-5.08,44
0.78,-2.29,21.3,-5.13,1.22,1.76,2.3,-13.41,16.69,-0.49,2.0,-0.88,-9.09,17.96,4.79,0.88,0.93,-1.71,44
0.97,-1.66,20.9,2.05,-2.59,0.98,1.42,-12.34,16.43,3.12,1.27,0.98,-8.47,17.54,5.03,1.12,3.76,-2.49,44
6.9,-10.65,19.75,-50.63,-55.96,204.69,0.11,-10.13,17.18,12.35,6.2,-1.56,-17.97,9.1,9.91,15.23,4.79,-11.96,45
5.12,-11.56,17.0,-3.42,9.91,160.79,-1.37,-14.8,13.47,-1.12,61.62,-115.82,-14.06,7.42,10.37,81.2,-89.31,-54.74,45
-3.14,-4.25,19.36,20.95,16.31,101.22,3.72,-18.44,13.01,13.87,66.85,-112.35,-4.59,16.2,12.81,99.22,-94.24,-47.85,45
-6.21,-1.09,20.13,2.64,10.69,-34.08,7.92,-20.74,13.71,0.49,50.49,-79.3,-1.79,15.55,13.78,43.51,-71.44,-38.28,45
-4.24,-5.72,18.35,14.31,-4.93,-139.75,6.49,-19.94,11.64,0.15,79.1,-66.46,-3.28,16.04,13.39,59.96,-60.01,-61.72,45
3.97,-6.51,21.44,25.29,-6.45,-134.57,1.73,-17.8,10.4,9.57,65.09,-60.11,-4.22,18.29,14.49,55.32,-52.93,-42.24,45
7.57,-8.68,21.72,10.45,0.78,-94.43,0.94,-15.16,11.98,-7.52,21.34,-25.0,-6.35,21.35,13.7,25.63,-25.59,-25.63,45
4.32,-9.5,19.42,21.24,36.38,-95.8,0.74,-14.33,13.48,1.9,10.55,-7.18,-7.74,16.5,11.59,28.71,-4.3,-10.55,45
2.3,-9.04,19.91,11.33,18.12,-73.1,3.85,-14.59,16.04,-2.54,7.42,7.62,-8.84,16.94,9.2,11.77,8.89,-7.67,45
1.26,-7.18,20.03,-2.34,13.72,-32.86,3.6,-13.45,16.76,4.44,5.91,18.31,-8.73,17.72,7.92,-4.69,14.79,-10.99,45
1.01,-5.94,20.23,2.78,4.0,-12.94,0.03,-12.6,14.81,-4.44,8.2,15.04,-9.45,18.44,7.28,-0.73,7.28,-9.13,45
1.98,-4.49,21.77,4.39,12.74,3.08,0.62,-15.15,14.93,3.56,-1.51,11.62,-9.73,16.48,9.24,5.27,12.16,-3.12,45
2.23,-3.9,21.42,-6.69,9.03,12.84,-0.11,-13.28,15.56,8.98,2.2,14.16,-11.64,15.18,8.53,-7.13,19.19,1.12,45
-0.73,-3.31,20.08,-4.2,11.23,10.35,-0.09,-13.21,15.42,2.73,-0.73,12.99,-10.59,15.38,8.7,-6.79,12.94,0.93,45
-0.87,-6.0,20.66,6.74,4.39,10.74,-0.69,-12.71,15.95,-3.56,-8.54,-0.1,-11.12,15.27,8.5,-9.33,2.05,8.98,45
-1.91,-4.91,20.54,5.52,5.27,15.04,1.74,-16.37,16.15,3.76,-7.86,-5.62,-7.84,14.88,11.08,-12.89,-16.06,20.95,45
-1.72,-4.89,20.16,-2.83,3.22,13.57,2.19,-14.65,17.5,10.64,-4.1,-1.71,-8.07,16.81,10.63,-8.06,0.2,13.48,45
-2.67,-4.8,19.93,1.12,-8.59,5.81,0.87,-13.54,16.67,-1.32,-2.78,2.49,-7.48,16.42,10.49,-2.64,1.9,8.64,45
0.62,-6.75,21.4,-0.68,-20.12,2.0,0.86,-13.35,16.51,2.49,-3.08,0.73,-8.04,15.39,10.8,4.05,3.17,4.3,45
1.63,-3.41,21.98,0.15,-11.91,7.91,0.48,-13.7,15.8,-0.83,-2.59,-1.37,-8.0,14.7,10.48,-0.39,1.17,1.37,45
9.38,-13.05,19.87,64.21,-51.61,154.79,19.01,-18.0,19.58,-3.76,-107.23,128.86,2.51,21.2,9.82,-32.67,155.96,70.95,46
15.49,-1.94,18.26,6.59,-14.65,163.53,13.26,-2.11,21.28,-7.96,-47.12,96.68,-5.27,8.13,1.99,-60.94,129.59,51.37,46
13.16,7.49,15.88,-1.9,22.02,99.12,6.47,-5.37,21.12,-10.35,-4.59,14.6,-4.1,17.61,-2.26,-72.71,91.65,23.34,46
8.26,5.98,20.69,-13.92,-3.52,22.8,6.2,-6.57,20.13,-21.39,8.64,-47.07,-4.36,17.2,3.62,-23.49,14.36,-1.71,46
5.89,4.77,20.91,-10.45,-21.63,-41.26,7.95,-14.76,17.31,-59.47,55.13,-80.52,-2.38,21.16,4.8,12.06,-48.24,-14.65,46
7.33,-0.71,21.41,-45.07,-7.71,-84.77,7.1,-16.69,11.25,-39.89,67.58,-104.05,0.81,16.15,8.17,6.49,-86.57,-46.24,46
5.5,-5.77,17.66,-33.4,1.51,-119.34,8.02,-21.5,12.24,-20.9,82.37,-77.69,0.57,12.85,9.86,19.43,-111.87,-56.64,46
8.04,-9.49,17.78,-23.93,41.02,-96.0,6.72,-20.48,14.07,-35.16,73.63,-48.68,-0.55,11.19,11.55,17.77,-83.2,-65.87,46
8.66,-7.89,19.04,-27.93,37.4,-69.92,3.91,-16.94,12.71,-39.84,48.88,-39.01,-2.01,15.83,9.52,2.2,-61.77,-58.59,46
8.98,-4.58,20.58,-26.56,15.33,-62.84,2.74,-17.63,13.2,-5.62,43.51,-42.38,-1.97,21.94,11.8,-19.92,-52.54,-39.36,46
3.46,-6.85,20.19,-8.74,12.16,-58.35,3.03,-14.38,14.74,-10.94,26.17,-34.81,-4.78,17.05,11.45,17.92,-48.88,-30.27,46
3.6,-2.33,20.52,0.29,0.98,-49.32,2.22,-16.98,14.64,-8.79,23.05,-22.75,-3.3,18.26,9.43,25.83,-39.36,-19.38,46
3.64,-4.81,21.37,-12.16,1.46,-31.64,1.82,-16.63,14.98,-7.08,0.29,-5.18,-3.67,17.1,10.35,4.0,-26.9,-16.11,46
2.0,-4.86,21.09,-2.0,-2.49,-7.81,2.22,-13.79,15.82,3.03,-2.49,-1.22,-4.63,18.2,10.5,-0.15,-5.71,-0.54,46
1.43,-2.17,20.54,8.3,2.88,0.63,3.21,-14.25,15.51,-3.71,1.56,-1.46,-5.5,16.57,8.41,3.17,2.59,1.22,46
2.75,-2.49,20.53,-4.49,-0.73,2.64,2.66,-13.83,15.33,1.22,3.52,-2.93,-5.16,16.92,8.12,-4.74,1.27,-0.88,46
3.14,-3.08,20.43,-2.93,2.59,-1.42,3.25,-14.43,15.55,-1.12,2.39,-2.69,-4.96,16.88,8.48,-0.49,-0.63,-4.2,46
3.47,-3.2,21.15,-2.3,-2.44,-2.1,2.7,-14.33,15.54,-2.73,3.32,-4.79,-4.63,17.58,8.88,1.37,-0.34,-1.95,46
2.91,-3.07,21.0,-1.27,-0.68,-4.74,3.2,-14.96,15.31,2.54,4.88,-5.03,-5.02,18.55,8.9,0.44,-3.42,-1.32,46
3.34,-3.48,21.28,2.69,-3.91,-5.42,3.45,-15.45,15.61,-4.88,-2.25,2.25,-4.76,17.68,9.31,4.3,-4.0,-0.98,46
3.93,-3.8,20.63,-2.98,-6.25,1.17,3.7,-16.0,14.82,-0.83,-6.05,0.0,-3.99,17.58,9.62,8.74,3.71,1.61,47
4.86,-5.73,20.75,7.47,-4.1,3.96,0.58,-18.83,12.49,2.25,-36.91,54.2,0.91,19.03,12.79,1.07,48.88,13.57,47
4.18,-7.59,21.04,8.89,-11.08,80.37,3.8,-21.32,7.35,25.88,-96.34,110.35,-2.78,17.17,14.12,-6.25,133.94,42.97,47
5.7,-11.46,18.41,28.66,-18.41,146.24,9.12,-21.27,10.58,49.22,-113.92,98.54,-1.81,13.12,10.29,-51.03,139.55,61.47,47
8.75,-10.41,16.59,49.61,-32.57,134.38,11.59,-18.01,9.73,76.46,-140.77,98.88,2.23,13.12,10.23,-44.97,125.83,97.56,47
12.08,-6.85,14.56,77.83,-51.9,136.91,14.65,-6.67,16.68,16.41,-87.01,99.27,1.54,19.51,3.35,-78.76,92.09,94.53,47
14.08,0.92,18.2,34.37,-24.27,131.3,23.26,-2.69,21.77,3.76,-43.46,2.39,-1.38,17.95,3.93,-35.3,10.25,53.37,47
17.39,9.21,19.18,5.18,-33.64,11.72,12.94,-4.91,15.07,-35.45,71.83,-58.89,1.06,19.83,5.26,-0.59,-38.18,-56.93,47
10.29,4.87,16.07,-34.08,32.47,-76.66,11.05,-12.62,11.53,-63.82,87.99,-83.5,0.03,17.02,8.6,20.21,-69.78,-83.74,47
11.49,-2.77,15.55,-74.22,25.2,-102.34,10.45,-21.25,11.23,-77.83,86.28,-71.29,2.44,14.85,13.52,9.62,-76.17,-83.84,47
12.48,-10.32,19.39,-84.57,19.87,-99.8,7.86,-18.97,12.37,-45.7,71.04,-68.31,2.58,16.44,12.69,14.4,-85.6,-66.8,47
11.24,-9.17,17.05,-45.51,16.85,-89.11,6.05,-20.31,10.58,2.1,67.92,-76.12,0.42,14.23,14.21,45.51,-72.31,-56.35,47
7.56,-9.25,18.29,-0.05,11.96,-100.63,3.81,-18.26,12.05,-5.71,41.06,-37.7,-1.52,19.94,14.36,29.44,-52.93,-39.94,47
5.02,-9.7,19.21,-13.23,29.44,-57.76,1.84,-18.49,12.81,-11.28,28.96,-17.48,-4.53,14.96,12.24,-1.95,-33.2,-33.01,47
3.36,-9.48,19.14,-26.86,20.8,-28.03,3.53,-15.78,14.85,-6.2,6.4,-0.1,-4.15,17.98,11.1,8.3,-8.54,-9.77,47
4.57,-5.64,20.86,-8.55,3.42,-4.59,3.98,-12.67,16.12,9.18,-0.63,-3.76,-5.4,17.66,9.81,19.29,-3.12,-1.56,47
4.97,-3.49,21.06,9.33,-8.2,-6.3,4.56,-13.07,15.64,-0.34,1.66,-5.03,-4.86,16.81,8.11,4.0,1.46,-1.51,47
4.7,-2.32,20.32,2.98,-3.27,-3.66,4.08,-13.8,15.33,-5.08,3.42,-5.03,-4.88,18.24,8.85,4.49,-5.71,-2.29,47
5.0,-4.04,20.4,-6.88,-2.59,-5.76,3.92,-14.86,15.03,-4.83,0.2,-7.03,-5.48,18.26,8.76,2.25,-0.34,0.44,47
4.71,-4.2,20.18,-2.88,-3.27,-1.56,4.38,-13.55,15.22,-1.22,1.07,-3.37,-4.46,18.0,8.83,7.28,-2.0,3.08,47
10.5,-13.4,17.36,27.98,-19.58,94.29,12.24,-12.91,9.95,81.05,-130.22,101.27,1.54,14.53,11.12,-45.9,155.03,41.94,48
9.0,-11.26,14.61,59.67,-10.6,154.1,11.66,-8.12,14.94,14.01,-85.35,91.7,1.51,17.1,8.78,-61.33,150.1,89.31,48
12.77,-6.83,14.56,70.51,-54.74,146.09,15.96,-4.86,21.82,-15.53,-4.98,37.6,0.14,23.37,5.47,-41.16,114.4,84.72,48
12.73,1.12,15.15,31.69,-14.84,123.73,10.8,-4.73,15.0,-21.29,52.2,-48.63,1.57,27.08,3.41,-19.82,25.78,73.1,48
19.77,11.06,20.1,-0.0,-34.62,54.54,9.28,-18.13,11.65,-66.8,88.92,-76.46,-2.61,13.91,4.43,-1.86,-24.61,-27.25,48
10.95,6.34,17.13,-15.77,5.27,-60.01,11.01,-22.18,11.89,-58.01,83.54,-82.81,-1.15,15.82,8.63,6.84,-60.64,-68.26,48
11.48,-1.83,16.46,-62.84,20.07,-99.51,10.52,-21.25,9.39,-18.12,71.48,-87.26,0.78,23.52,12.07,32.91,-98.24,-73.54,48
16.27,-2.04,16.93,-89.36,2.54,-120.95,8.23,-16.34,10.37,10.55,60.11,-51.51,2.58,17.27,14.14,14.06,-100.54,-82.28,48
11.94,-11.97,12.95,-58.64,31.45,-98.1,6.31,-17.33,12.9,-34.03,47.31,-79.1,3.41,18.63,14.57,57.67,-85.69,-54.0,48
9.84,-10.36,16.72,-23.93,33.69,-79.79,3.27,-17.76,11.33,-35.16,42.33,-40.43,-2.47,14.61,9.25,11.96,-80.62,-32.32,48
8.55,-5.59,18.01,-40.04,1.81,-87.06,4.88,-19.11,13.45,-4.1,34.13,-17.43,1.31,19.48,11.58,10.25,-66.46,-36.04,48
9.62,-6.14,17.45,-50.83,23.68,-61.96,4.64,-16.3,13.96,-5.37,10.55,-0.24,-2.16,15.48,11.65,-7.42,-39.36,-16.06,48
7.88,-9.31,19.72,-28.71,14.01,-35.11,3.73,-13.58,14.55,5.37,2.54,8.25,-3.11,19.67,10.9,-0.0,-10.84,-17.53,48
6.4,-7.57,19.52,-11.43,11.08,-7.67,4.79,-12.79,14.88,3.86,2.49,2.15,-3.38,16.5,10.13,2.39,4.44,-8.64,48
5.77,-6.39,19.47,5.27,7.13,-0.1,4.98,-14.26,14.93,-7.67,-0.39,3.96,-4.19,17.16,8.54,-8.55,11.47,-4.2,48
5.12,-4.57,19.15,3.52,3.22,2.15,4.4,-13.4,14.88,1.22,-1.42,5.37,-3.39,17.4,8.99,-6.45,3.08,-4.83,48
5.85,-5.0,19.1,-5.32,1.86,2.83,5.08,-14.84,15.62,-3.86,-2.49,6.01,-3.57,17.05,8.92,-5.03,3.47,-2.05,48
6.01,-6.24,19.17,-2.39,8.11,4.74,3.53,-13.86,15.41,0.49,-1.17,3.42,-4.33,15.87,9.26,-0.59,3.61,-6.88,48
3.89,-5.75,19.68,8.01,4.74,2.73,4.9,-14.46,14.99,-2.2,0.39,0.83,-4.21,17.13,9.31,2.93,7.42,-4.49,48
4.91,-3.98,20.33,6.05,0.34,3.27,3.98,-15.82,15.0,-1.22,5.27,1.27,-4.83,17.6,9.15,3.47,3.71,-7.96,48
6.27,-4.68,19.67,0.98,0.68,1.22,3.96,-14.49,14.66,-1.51,-0.15,0.24,-4.03,16.82,8.96,1.17,1.76,-0.68,49
5.46,-4.86,19.35,0.68,-0.68,1.07,4.23,-14.71,15.25,-1.51,-2.54,-0.44,-4.54,16.53,8.97,3.66,3.27,0.78,49
5.74,-5.65,19.9,0.15,-3.56,-0.54,4.16,-14.93,15.02,0.1,-1.07,-1.37,-3.91,17.49,9.04,1.07,1.81,0.54,49
5.79,-5.21,19.97,2.29,-2.93,0.88,4.36,-14.72,15.61,-0.0,0.1,-1.37,-4.4,17.4,8.39,0.83,1.61,-0.44,49
5.99,-4.32,19.91,1.56,-1.61,-1.07,3.44,-14.26,15.06,2.1,0.98,-1.07,-3.97,17.23,8.53,2.59,0.59,-0.39,49
5.48,-4.42,19.5,2.15,-1.22,0.05,4.82,-21.57,12.36,-4.69,-15.72,17.19,0.73,16.97,13.36,14.94,13.43,2.73,49
10.32,-13.62,19.57,-9.77,-16.85,21.68,4.64,-28.75,0.37,13.62,-123.97,192.19,6.39,30.36,20.78,-19.53,185.6,51.56,49
12.83,-20.21,14.61,34.62,-17.33,231.98,12.82,-15.45,4.4,0.83,-251.22,132.13,-5.43,10.69,7.09,-159.91,162.5,154.74,49
10.15,-3.93,10.36,5.96,-122.71,225.78,21.96,-12.18,16.59,-36.43,-153.91,90.28,4.89,26.33,6.99,-75.29,91.7,152.2,49
18.89,2.63,20.36,-14.45,-94.34,143.7,17.1,-10.23,18.39,-1.51,15.82,1.03,0.45,19.46,9.53,-3.32,12.84,16.8,49
14.7,2.8,20.32,1.66,13.77,0.54,13.05,-13.6,9.94,-34.81,119.87,-91.46,-1.18,12.26,11.51,37.35,-86.82,-100.0,49
12.02,-6.02,15.73,-28.17,44.34,-135.01,15.56,-20.01,6.25,-42.38,162.11,-126.27,1.46,12.88,10.26,53.76,-119.34,-158.15,49
14.03,-10.95,12.39,-57.08,76.32,-193.12,8.23,-21.59,0.17,-31.69,126.95,-133.84,3.35,17.12,13.22,76.51,-137.99,-125.88,49
11.41,-14.18,11.0,-37.4,59.33,-170.8,6.27,-23.93,5.58,-14.94,68.99,-45.85,3.11,18.5,20.95,26.66,-74.46,-53.96,49
12.51,-17.55,16.13,-18.26,33.35,-77.88,5.97,-17.58,12.63,-11.43,32.76,0.39,-2.26,15.86,14.1,-2.64,-17.09,-30.13,49
7.32,-9.27,19.21,-0.24,32.81,-14.5,4.48,-16.09,13.94,-3.42,17.97,2.0,-3.45,16.63,11.42,0.49,-5.91,-20.7,49
6.8,-7.53,19.36,-0.29,17.72,-6.01,3.3,-14.27,14.4,16.16,7.32,1.37,-4.31,15.55,9.99,10.25,2.98,-4.93,49
5.42,-6.2,19.39,16.31,3.66,-2.78,4.86,-14.27,14.68,14.55,3.03,-4.2,-4.69,15.22,9.89,11.38,3.91,-4.59,49
5.51,-6.5,19.16,2.34,-4.25,-2.83,4.14,-14.51,14.36,7.28,4.83,1.81,-4.19,15.86,9.76,0.44,3.37,-7.67,49
5.02,-6.62,19.05,-0.49,6.1,-0.24,4.1,-14.64,15.03,7.32,4.54,-1.86,-5.13,15.99,8.93,0.24,4.69,-2.64,49
13.8,-29.31,16.86,-29.83,-91.11,215.33,5.83,-22.61,15.43,58.59,-178.52,184.33,-11.08,15.97,6.9,5.81,5.13,-7.37,50
3.31,-4.25,16.8,74.76,-14.79,214.11,12.53,-11.48,13.53,49.32,-134.37,113.67,-12.25,14.89,7.67,0.63,-2.1,-2.88,50
15.32,1.49,21.72,51.42,-56.2,171.24,14.77,-10.09,20.67,-12.65,-67.87,81.01,-11.16,13.87,8.9,-0.49,-0.63,-3.96,50
7.12,4.83,20.45,-16.02,-11.72,79.49,7.68,-9.52,17.2,-16.75,33.94,-13.72,-12.77,15.65,9.17,-4.93,8.01,-6.05,50
3.96,1.29,19.36,-15.58,16.11,-32.52,9.66,-12.74,13.86,-28.66,51.27,-45.46,-11.74,16.33,8.78,3.47,17.09,4.3,50
10.66,-1.75,17.27,-68.9,16.75,-69.04,4.64,-24.28,9.82,-38.97,90.58,-92.68,-12.57,16.75,7.85,3.08,24.27,10.45,50
4.95,-12.62,17.25,-34.23,34.67,-121.34,1.74,-23.22,7.95,34.08,103.56,-176.32,-11.94,13.22,6.71,-5.13,20.21,4.93,50
0.66,-12.72,14.94,47.85,41.5,-208.35,5.75,-17.43,12.48,-49.71,68.12,-48.73,-12.47,15.36,7.85,3.52,18.07,-9.18,50
11.29,-10.47,19.02,-43.36,64.26,-60.21,8.48,-16.5,14.59,-15.92,67.43,-53.08,-11.22,12.51,7.61,-10.5,-1.07,-0.59,50
12.93,-9.83,20.57,0.34,7.71,-66.16,4.99,-13.78,13.49,-39.01,63.67,-22.22,-10.62,13.39,8.22,-21.34,-13.82,12.7,50
5.08,-6.88,18.51,-43.99,46.19,-42.97,1.75,-11.9,14.95,8.35,48.24,-22.02,-8.73,18.57,9.99,16.99,10.21,11.33,50
2.52,-5.1,20.6,-5.86,21.73,-41.36,-2.76,-17.51,15.56,-0.24,23.93,-12.11,-12.14,14.14,9.54,-6.1,-2.64,7.52,50
-2.09,-8.62,21.03,8.59,26.32,-21.34,1.34,-14.55,16.31,2.25,4.88,0.34,-12.59,15.77,9.28,-6.84,5.42,3.17,50
0.5,-5.45,21.01,1.86,7.42,-2.2,-0.19,-12.51,16.22,-1.76,2.15,9.57,-12.38,16.06,9.61,2.69,1.71,7.62,50
-0.03,-3.09,20.51,1.81,7.23,6.84,-1.07,-13.17,15.23,-7.96,1.51,7.08,-11.65,20.41,8.78,33.74,-2.34,18.7,50
-1.34,-4.52,19.68,-9.67,4.88,6.4,-0.78,-15.52,15.55,-12.74,-1.32,7.76,-11.36,15.76,8.12,0.15,2.69,9.08,50
-0.39,-6.8,20.42,-14.6,-2.69,5.86,0.3,-14.86,16.09,-4.05,-4.1,4.64,-9.79,14.81,9.06,1.46,10.06,7.91,50
-0.99,-6.25,21.22,-0.24,-1.12,4.15,-1.88,-16.73,16.05,-1.86,-0.05,7.32,-10.44,16.72,7.86,-8.01,11.28,-0.68,50
-1.74,-7.83,21.71,-2.0,9.38,7.96,-1.69,-15.81,16.04,11.33,-12.7,13.43,-9.75,18.08,8.48,0.83,2.59,-1.61,50
-1.88,-6.77,21.13,9.57,-1.81,19.09,-1.43,-13.14,15.37,8.79,-5.18,21.34,-10.22,16.59,8.18,3.42,2.34,-1.56,50
11.4,-0.08,13.55,48.93,-106.05,244.82,15.76,-11.51,11.35,30.47,-194.34,158.59,-6.73,9.33,3.75,-263.48,191.85,129.39,51
11.3,8.26,21.43,43.65,-77.98,76.32,16.09,-3.57,21.27,7.13,-99.46,41.6,-10.2,15.63,4.05,-80.66,97.75,137.5,51
7.89,1.66,21.09,-62.94,47.51,-41.31,7.24,-5.66,20.01,-19.82,77.83,-37.35,-11.47,25.7,-1.2,-0.44,2.44,36.72,51
7.27,-5.42,19.87,-60.79,13.23,-88.38,4.54,-14.3,16.97,-64.11,65.28,-83.64,-10.89,14.07,7.51,24.17,-60.55,-66.99,51
11.02,-6.75,20.15,-60.45,26.61,-96.78,9.66,-17.69,15.06,-50.1,87.16,-69.53,-6.11,13.72,9.9,32.47,-85.16,-69.19,51
7.25,-12.13,15.22,-79.49,72.36,-145.12,4.94,-16.32,12.05,-19.29,131.05,-110.94,-5.97,12.79,11.35,32.18,-77.1,-100.05,51
6.76,-9.27,20.11,3.86,39.26,-120.12,1.75,-16.24,10.99,-7.13,79.3,-65.33,-4.58,14.23,10.42,91.8,-106.45,-92.38,51
1.84,-11.54,20.46,15.97,29.49,-87.26,-0.81,-17.53,11.43,14.55,71.83,-45.02,-7.0,14.6,14.08,14.45,-55.86,-65.62,51
-1.3,-13.15,18.71,-6.79,29.49,-18.26,-2.2,-17.82,12.37,4.74,26.66,-8.59,-8.46,20.39,14.16,41.5,-36.72,-50.98,51
-2.01,-8.62,19.38,-6.49,11.23,-1.71,-1.73,-18.06,14.56,8.59,10.64,-6.54,-10.83,14.14,11.76,22.61,-3.52,-19.04,51
-1.72,-5.96,20.02,4.05,5.32,-2.49,-1.61,-14.81,14.73,-0.05,-2.54,2.2,-11.44,11.86,9.91,20.65,2.44,-5.96,51
0.53,-6.09,21.78,8.84,0.54,-2.73,-0.59,-14.57,15.46,6.79,3.22,-1.32,-11.32,16.41,9.04,1.81,7.42,5.52,51
-0.59,-6.52,20.66,3.76,2.2,-3.96,-2.46,-13.81,14.86,9.33,6.54,-1.03,-10.9,17.37,9.05,14.36,4.15,-2.59,51
-0.89,-7.37,20.12,-13.48,-6.49,29.64,0.77,-16.5,15.79,3.08,-21.92,11.62,-10.72,17.88,8.82,10.4,4.35,-0.1,51
-0.15,-4.7,21.71,-1.9,0.05,9.91,-0.72,-15.26,16.14,-2.78,5.86,-2.25,-11.96,14.43,8.86,20.8,19.48,8.3,51
-0.7,-4.88,21.16,4.3,-5.52,0.63,-0.2,-15.38,16.52,-3.96,-1.76,4.1,-12.07,12.39,8.09,14.16,0.73,-6.59,51
-1.74,-5.92,19.92,3.81,-2.05,1.51,-0.89,-14.37,16.19,1.66,-5.86,-0.49,-12.13,15.42,8.1,-6.79,5.76,-1.95,51
-1.79,-5.45,20.1,0.44,-1.95,9.86,0.1,-14.98,16.43,-5.42,-14.31,4.98,-12.18,15.37,7.53,3.22,3.47,4.54,51
-0.54,-6.04,20.37,8.5,-8.2,-2.98,-0.76,-15.33,16.16,-1.32,-14.79,-0.54,-13.15,12.81,7.76,-11.08,7.42,7.86,51
-0.24,-5.54,20.96,3.76,-3.08,10.94,0.27,-14.58,16.25,3.56,-8.64,3.32,-11.04,16.99,8.26,3.17,8.06,10.84,51
7.55,-15.96,21.8,-33.5,-29.93,119.68,6.86,-16.98,10.8,9.96,-157.23,118.46,-9.3,13.65,7.01,-117.19,115.97,108.94,52
0.96,-13.49,16.54,-43.51,-42.58,236.04,5.88,-12.96,14.72,8.25,-106.59,64.45,-8.18,17.28,9.48,-56.25,62.6,85.21,52
4.14,-8.53,17.94,2.69,-90.97,157.71,7.87,-7.21,19.58,-12.4,-70.07,3.86,-10.98,17.58,7.35,-22.75,1.81,49.95,52
5.87,-4.86,20.24,4.0,-72.07,97.02,5.16,-12.02,16.64,-5.62,70.46,-53.71,-9.65,16.73,9.02,33.06,-57.23,-37.21,52
4.57,3.67,23.54,-12.06,-57.96,23.19,6.38,-15.0,13.53,-22.51,98.78,-84.08,-8.5,13.36,9.84,53.52,-85.35,-81.15,52
3.11,-4.31,21.21,-7.13,31.25,-74.95,6.1,-19.94,11.22,-11.91,133.79,-103.37,-5.58,15.18,8.86,102.54,-105.71,-99.12,52
4.87,-7.73,18.82,-31.88,51.37,-119.92,4.38,-16.15,11.63,13.96,114.79,-104.3,-5.18,18.88,6.52,99.8,-108.94,-63.77,52
6.06,-12.03,18.54,-17.14,76.07,-149.17,3.53,-18.57,11.69,-2.59,69.48,-71.92,-5.53,15.61,8.85,52.39,-79.64,-36.82,52
5.38,-6.9,18.58,11.82,48.93,-138.43,3.57,-18.7,12.05,-17.38,20.21,-42.72,-4.85,18.47,11.2,8.54,-48.58,-4.35,52
4.91,-10.68,18.45,1.95,29.15,-93.6,2.47,-18.98,12.95,-9.72,13.72,-12.01,-6.79,16.05,10.67,-1.47,-17.43,-10.11,52
5.31,-11.6,19.41,-18.46,-4.2,-44.53,1.65,-16.73,13.63,-2.78,8.11,0.2,-8.5,17.1,9.0,2.78,-1.86,-8.84,52
3.03,-10.59,19.61,-10.25,9.33,-14.4,2.75,-15.01,14.77,4.93,-3.17,1.12,-8.41,16.16,7.68,3.81,6.54,1.61,52
2.06,-8.9,19.09,-1.61,7.67,-1.66,2.61,-15.07,14.6,4.39,-0.73,-3.12,-7.97,17.37,7.5,5.32,1.46,2.2,52
2.5,-6.81,20.23,5.08,-3.71,2.88,2.45,-14.84,14.5,2.29,1.71,-4.54,-8.12,17.49,7.49,6.49,-0.2,-0.54,52
2.49,-6.97,20.01,5.42,-1.32,-2.83,2.21,-14.94,14.13,0.93,-0.73,-1.9,-7.59,17.46,7.29,4.78,0.44,-1.61,52
2.78,-6.62,19.99,3.52,-1.66,-4.35,3.19,-15.5,14.58,0.68,0.78,-1.81,-7.87,17.35,7.57,11.03,0.73,-1.12,52
2.45,-6.88,19.75,1.51,-0.54,-1.27,2.43,-15.37,14.36,1.66,1.07,1.32,-7.88,17.43,7.23,1.66,2.73,-2.05,52
3.53,-7.12,20.48,2.54,-0.2,-1.95,3.21,-15.06,15.35,3.52,-2.2,1.22,-7.1,16.72,7.19,5.52,4.35,3.56,52
2.66,-7.02,19.77,1.76,2.0,2.29,3.11,-15.32,14.78,0.83,0.05,2.34,-8.03,17.69,6.77,3.52,5.13,-1.03,52
3.02,-6.99,20.17,5.86,-4.39,-0.1,2.19,-14.86,14.62,3.22,2.44,2.83,-8.24,17.6,6.54,3.17,3.81,-5.52,52
1.62,-7.52,20.04,10.94,17.38,-45.46,1.79,-16.21,14.53,0.44,24.22,-19.24,-8.77,17.0,4.43,16.75,-21.78,-8.74,53
0.8,-6.69,20.43,6.05,10.16,-28.56,2.17,-15.24,14.78,-6.79,8.15,-8.15,-8.82,18.17,4.71,-2.54,-10.55,-4.2,53
0.14,-6.48,20.45,6.15,8.74,-25.29,2.3,-14.75,15.15,-1.03,6.93,-7.67,-8.94,18.5,4.75,7.62,-8.54,-2.83,53
0.4,-5.99,20.51,-4.05,3.96,-9.81,0.42,-16.9,12.76,0.78,-4.49,9.23,-8.09,19.49,7.03,4.39,8.54,-1.71,53
0.8,-5.05,21.01,-1.12,-0.49,-9.67,-0.87,-20.09,9.25,-31.3,-63.72,84.18,-3.53,24.35,8.64,-45.8,62.55,11.18,53
-0.14,-8.05,20.21,-3.76,-0.34,13.28,11.7,-33.82,5.77,-71.78,-249.02,208.45,-5.6,15.03,0.65,-284.86,212.16,59.91,53
2.03,-10.48,20.8,-54.54,-39.45,98.54,9.21,-15.23,12.42,50.44,-70.26,115.23,-10.81,14.41,4.85,-70.46,145.75,41.06,53
6.74,-19.42,16.78,-118.95,-107.32,284.67,-4.42,-12.18,14.57,55.96,-18.99,79.44,-15.67,9.4,5.18,-7.08,104.64,4.79,53
3.9,-3.92,17.43,46.92,-3.52,152.1,-6.82,-4.83,28.14,71.63,-34.52,32.18,-25.99,17.72,-4.69,21.04,49.71,-8.06,53
-5.25,-5.73,18.53,64.31,31.54,97.46,-6.47,-0.8,19.43,-90.63,39.4,-78.81,-25.12,11.04,-2.07,-14.94,-75.88,-16.6,53
-16.18,14.61,19.31,75.73,43.55,42.82,8.72,-13.76,11.82,-100.83,19.53,-139.5,-16.8,6.34,3.44,3.47,-139.94,-1.95,53
-14.19,5.45,17.47,-45.65,-7.28,-73.05,15.21,-22.94,5.97,1.9,140.97,-244.92,0.72,14.98,-0.74,200.78,-231.45,-3.37,53
-2.35,-4.13,11.91,-76.07,-68.46,-139.01,17.73,-14.56,7.27,-10.74,101.12,-111.04,7.96,29.21,5.47,96.78,-136.38,-28.47,53
14.37,-3.57,14.62,21.83,-76.81,-304.25,7.42,-21.93,7.38,9.23,122.22,-58.11,-3.61,13.82,8.37,15.43,-91.31,-74.32,53
22.55,-6.49,17.56,-11.82,29.44,-158.69,3.15,-18.52,12.51,-8.01,45.17,-7.13,-6.92,17.69,6.78,-1.86,-37.06,-36.13,53
8.25,-16.47,15.89,-44.04,99.07,-103.12,2.99,-16.93,14.26,-1.22,8.2,-2.0,-9.03,16.44,5.89,-15.92,-3.76,-5.91,53
4.34,-10.65,19.51,-25.0,42.09,-28.03,2.47,-13.58,14.52,9.86,6.49,-8.54,-8.87,17.58,3.1,15.92,-2.69,-2.88,53
1.78,-8.42,20.25,-10.79,-2.34,-2.25,3.97,-15.11,15.39,-1.12,-6.74,-0.15,-7.76,19.38,4.5,2.59,4.05,9.18,53
1.28,-5.4,20.15,12.7,2.49,-11.91,4.06,-15.27,15.4,4.98,5.52,-6.3,-7.68,19.55,4.03,9.52,-2.0,4.2,53
2.05,-6.12,20.47,2.49,-6.01,1.86,2.68,-15.72,14.76,21.97,10.79,-5.27,-7.87,19.59,4.29,-1.95,-6.64,-7.52,53
0.55,-13.14,18.82,-123.14,-31.3,150.88,-5.74,-14.35,11.04,25.2,-53.66,94.14,-12.33,14.79,4.05,-66.16,95.31,10.45,54
3.02,-18.57,17.43,-39.36,-33.98,107.86,-3.92,-10.49,20.69,-14.5,-61.23,81.64,-20.02,8.32,-3.98,-120.12,81.05,14.26,54
-1.1,-15.12,16.11,14.5,2.88,70.75,-9.08,-5.77,18.9,-2.39,9.57,-0.59,-21.13,14.93,-1.7,-24.32,-6.3,6.64,54
-5.91,-10.1,16.12,17.24,-6.64,105.57,-9.68,-10.35,16.68,-46.29,-24.95,-32.71,-18.36,13.75,3.08,-8.84,-38.28,15.87,54
-8.68,-4.19,20.98,-24.17,-21.24,109.72,0.43,-12.66,13.03,-63.53,7.62,-77.2,-11.49,13.67,8.75,48.05,-82.42,19.92,54
-15.03,-0.58,18.91,-22.07,1.32,6.15,5.16,-17.25,15.46,-7.18,60.94,-84.62,-8.61,21.9,5.78,90.58,-78.76,-15.87,54
-11.65,-2.7,18.54,-36.47,-35.94,-27.0,6.31,-17.03,12.52,52.1,111.33,-129.49,-7.51,19.11,2.73,105.03,-111.87,-33.94,54
-5.95,-8.43,21.4,-8.45,-41.31,-86.91,3.26,-17.22,10.79,25.63,74.8,-84.86,-6.05,18.42,6.67,69.43,-81.05,-30.08,54
1.77,-8.22,20.49,12.16,-2.83,-101.9,4.1,-16.49,12.63,43.02,65.53,-52.15,-7.54,20.27,7.63,89.31,-45.9,-4.83,54
5.21,-10.37,18.61,45.51,13.77,-152.69,1.8,-16.7,16.05,3.37,18.36,-23.29,-9.2,21.63,5.71,19.48,-18.8,-0.59,54
3.14,-8.09,18.18,48.1,56.54,-111.57,0.95,-13.32,16.89,10.89,6.49,-7.28,-10.01,21.06,2.79,23.24,1.17,-5.62,54
3.43,-9.62,20.46,52.29,28.76,-76.42,-0.33,-9.32,17.41,23.1,6.25,-9.77,-9.64,19.16,-0.79,29.74,1.07,-0.2,54
1.61,-6.78,21.61,15.28,12.01,-30.62,2.38,-11.07,18.3,3.17,-3.17,-6.45,-8.79,18.17,-0.36,8.5,0.44,4.83,54
-0.42,-4.16,21.57,28.22,14.99,-9.37,1.82,-11.08,18.56,-6.74,-0.93,-3.66,-8.77,20.69,-0.76,7.03,-1.42,2.1,54
-1.2,-1.27,20.22,28.12,9.13,-9.72,1.65,-11.34,18.21,3.66,2.83,-0.2,-8.6,18.9,0.25,8.5,1.03,-2.25,54
1.54,-0.67,21.43,7.42,-11.08,-5.18,0.79,-11.1,18.38,-0.49,0.73,-1.07,-9.31,17.9,-0.99,7.91,-0.98,-5.52,54
0.95,-0.24,21.89,2.78,-1.66,-4.25,0.85,-10.05,18.32,-5.22,-4.35,-0.54,-9.28,19.2,-1.0,10.84,2.2,-0.2,54
1.01,-1.9,21.51,5.47,2.49,-2.29,1.36,-10.92,17.96,-2.39,-1.03,-2.54,-8.84,19.32,-0.55,11.23,-0.29,1.12,54
-0.72,-0.87,21.04,-2.0,3.27,-0.83,1.26,-10.95,17.82,-2.2,1.22,1.61,-8.86,18.55,-0.7,3.52,2.15,-1.56,54
-0.49,-0.4,21.31,3.66,0.29,-1.37,0.92,-10.81,17.68,-10.3,-2.98,3.22,-9.01,18.59,-1.0,-0.54,0.0,0.93,54
5.67,-7.92,17.85,58.25,-24.61,73.63,10.62,-14.49,10.48,51.86,-60.16,46.04,-5.56,26.05,9.23,-84.67,119.19,53.86,55
5.4,-5.43,19.51,28.42,-5.32,56.05,6.79,-12.81,14.5,19.63,-37.45,37.99,-5.87,11.95,9.07,-170.26,101.03,32.13,55
1.63,-0.28,18.37,44.48,21.34,21.14,6.29,-6.99,16.18,21.09,2.1,1.56,-5.51,13.48,9.46,-21.73,71.04,42.72,55
0.11,-15.6,17.1,-78.76,-27.34,-13.28,0.53,-22.32,7.14,-39.21,7.86,-3.71,-7.22,18.72,5.76,-16.8,56.45,22.46,55
1.39,-16.52,14.82,7.57,-30.32,58.54,2.37,-18.99,7.14,1.76,-37.35,37.89,-14.13,16.14,1.67,-12.5,26.95,1.03,55
7.28,-12.56,15.22,44.09,-46.0,86.38,6.02,-14.72,8.91,24.17,-57.42,39.94,-9.87,14.77,12.25,-30.37,-19.78,6.1,55
10.06,-16.42,18.38,5.37,-30.86,60.69,8.25,-23.79,10.33,39.99,-52.0,53.61,-8.31,15.3,14.29,-50.34,31.05,44.43,55
-2.04,-7.81,15.67,94.14,97.46,86.43,0.54,-21.61,9.89,63.62,-19.24,71.73,-5.67,13.3,11.62,-62.26,47.71,71.19,55
-1.54,-5.27,20.69,72.17,24.41,69.63,-0.3,-10.2,14.63,113.04,-42.97,65.87,-3.65,14.51,15.14,8.45,61.18,17.33,55
-7.89,14.0,19.67,41.21,31.64,45.17,1.2,0.17,23.46,31.64,-31.45,45.17,-8.49,13.9,12.78,12.6,105.37,-45.21,55
-8.91,3.22,18.7,-59.08,1.46,-42.58,-3.36,-2.25,16.66,-108.74,54.3,-34.42,-13.71,10.32,8.45,-8.06,106.64,-16.06,55
-3.75,-2.47,21.16,-47.66,-2.39,-166.8,2.93,-17.77,14.05,-76.03,123.97,-133.59,-19.09,13.21,-0.52,-35.45,60.4,0.54,55
4.24,-12.49,22.8,-18.85,-61.43,-271.0,8.92,-21.02,8.88,-18.65,131.35,-216.26,-22.49,11.69,2.2,-14.21,-46.09,-25.05,55
14.77,-9.87,16.18,-18.12,1.71,-181.74,10.13,-16.65,9.14,-8.3,85.11,-106.49,-20.81,5.24,6.4,47.8,-127.29,-64.7,55
11.59,-8.03,17.65,-27.64,32.81,-100.2,12.63,-19.2,10.97,-6.69,90.04,-73.05,-10.22,13.08,3.4,180.08,-186.47,-76.95,55
9.72,-12.14,16.54,-7.62,50.98,-96.87,4.45,-19.5,9.32,-4.0,71.29,-48.05,1.93,23.64,7.88,163.57,-124.37,-36.62,55
6.84,-11.61,18.44,-4.39,36.57,-44.78,3.87,-18.13,10.94,3.95,45.21,-15.77,-0.45,20.84,8.12,47.41,-89.45,-41.16,55
3.17,-7.56,18.46,0.49,7.32,-26.71,4.44,-18.59,12.15,-13.62,9.62,-12.45,-1.58,19.19,10.67,75.39,-74.22,-55.81,55
0.99,-5.69,19.86,5.66,6.49,-6.69,3.11,-15.95,13.96,3.22,0.88,-9.42,-6.01,16.91,10.43,32.76,-33.5,-39.36,55
3.76,-5.99,20.93,36.38,-1.95,-0.93,6.0,-12.68,16.39,26.37,-0.83,-2.78,-7.93,16.6,8.21,20.36,-18.55,-16.31,55
4.95,-7.33,19.93,-22.95,13.23,143.51,8.93,-15.28,15.2,1.9,-74.41,129.25,-10.27,13.95,4.97,-98.73,96.78,9.77,56
