ACC-X-Ring1,ACC-Y-Ring1,ACC-Z-Ring1,GYRO-X-Ring1,GYRO-Y-Ring1,GYRO-Z-Ring1,ACC-X-Ring2,ACC-Y-Ring2,ACC-Z-Ring2,GYRO-X-Ring2,GYRO-Y-Ring2,GYRO-Z-Ring2,ACC-X-Ring3,ACC-Y-Ring3,ACC-Z-Ring3,GYRO-X-Ring3,GYRO-Y-Ring3,GYRO-Z-Ring3,TEST
-17.3,-2.36,13.77,-3.91,0.24,-0.83,-7.81,-11.81,16.6,-4.93,-0.68,0.78,-1.34,19.3,-3.47,4.3,-2.05,-5.52,1
-18.03,-2.12,14.72,3.12,-5.96,-1.17,-7.38,-12.41,17.13,1.37,-2.64,-1.76,-2.23,18.02,-5.51,27.69,-28.71,-4.39,1
-17.58,-2.81,13.54,16.55,-111.23,23.63,-7.27,-13.04,15.98,27.93,-56.1,4.44,-0.64,16.27,-8.1,142.19,-88.57,-7.28,1
-6.86,2.64,19.69,12.11,-96.53,13.53,-1.11,-9.81,19.72,-2.49,-79.64,-18.6,-2.03,16.2,-8.98,10.79,-15.23,-19.09,1
-9.48,-1.37,19.17,1.07,-32.52,1.51,-2.39,-9.89,17.76,-7.08,-22.71,-15.48,-5.1,14.81,-11.09,-36.72,1.12,-41.31,1
-6.0,-0.78,21.44,11.47,0.29,-4.39,2.29,-10.42,18.66,1.37,-4.39,-11.96,-6.67,16.37,-12.17,13.18,0.29,-6.98,1
-6.35,-1.99,20.44,-0.59,-37.55,4.93,1.82,-12.4,17.39,9.67,-28.91,-11.08,-6.02,14.82,-11.03,-3.52,23.05,2.25,1
-3.61,2.6,20.09,10.35,-20.17,-1.86,-2.52,-9.93,16.8,17.24,24.9,5.76,-3.44,16.03,-9.58,-16.8,11.43,19.34,1
-3.15,-2.86,21.46,1.86,-42.29,16.5,4.96,-11.1,19.74,18.41,-22.22,13.43,-4.87,15.48,-10.5,-0.34,7.23,14.55,1
-1.33,-0.93,21.3,-7.91,16.6,-6.88,3.44,-10.43,18.05,-6.01,5.08,0.59,-2.57,17.19,-10.44,3.12,2.83,3.71,1
-1.77,0.71,21.67,9.47,3.32,12.79,4.34,-10.14,18.72,6.98,-2.0,10.21,-3.61,15.74,-10.12,5.32,5.91,-2.34,1
-3.0,0.25,21.61,-5.22,3.71,3.47,4.04,-10.31,18.7,-6.79,-3.22,1.27,-3.79,15.7,-11.49,-3.03,10.21,-5.18,1
-4.06,0.24,20.99,7.52,5.37,2.83,2.03,-9.69,18.03,7.13,4.25,2.73,-4.03,15.9,-10.71,5.96,3.66,-3.17,1
-3.47,0.33,21.11,2.2,2.05,-1.07,2.67,-9.82,18.13,-1.81,1.22,-1.61,-3.25,15.37,-10.32,6.01,0.68,2.39,1
-1.9,0.91,22.36,9.81,-8.4,8.98,5.45,-8.77,21.17,15.58,-7.52,2.69,1.56,10.23,-11.79,-39.7,-233.11,43.02,1
-5.45,-2.57,20.82,-54.39,13.09,-0.2,1.4,-13.1,17.87,-31.69,-13.57,6.98,-17.3,14.57,-13.81,-58.94,69.48,-8.98,1
-4.72,0.78,21.06,21.53,1.95,3.27,1.89,-9.98,17.76,11.47,3.03,0.44,-1.14,20.09,-9.92,8.64,14.89,37.06,1
-3.12,-0.61,21.43,2.05,-8.15,3.56,3.5,-11.25,19.04,3.17,-4.35,-0.98,-0.39,11.16,-10.15,-5.42,-6.74,20.31,1
-3.42,1.33,21.34,1.46,-5.42,4.88,3.12,-9.06,19.15,1.46,-6.69,0.44,-1.08,14.01,-12.83,-27.88,11.18,-13.48,1
-3.99,0.69,21.18,1.22,2.39,-1.03,2.36,-9.93,18.71,2.1,2.98,0.15,-0.41,15.93,-11.4,0.98,2.39,7.08,1
-7.17,6.42,14.31,26.86,190.38,-58.2,-2.23,-15.38,16.87,-49.85,15.19,-30.22,-5.01,13.42,-12.96,-0.83,1.9,-1.37,2
-20.25,-4.87,17.61,-24.27,47.61,-32.23,-1.53,-14.27,16.28,-9.33,4.88,-4.79,-4.69,14.01,-12.94,0.83,2.25,-0.29,2
-15.0,-2.81,17.29,-7.62,11.57,-9.86,-0.91,-14.49,16.24,-1.03,8.45,0.93,-4.79,13.8,-12.92,-1.86,1.37,-5.13,2
-15.86,-0.9,16.19,-0.15,9.96,1.61,-1.82,-14.74,15.89,-5.08,7.28,-4.54,-5.06,14.03,-12.93,3.08,1.46,0.68,2
-15.01,-0.35,15.33,1.46,1.12,2.78,-1.76,-15.19,15.96,-1.32,2.25,2.44,-4.77,14.06,-12.88,1.03,2.2,-0.29,2
-15.44,-1.28,15.54,1.12,-2.05,1.66,-0.5,-15.45,16.91,8.5,-0.68,6.93,-4.77,13.67,-12.9,0.29,2.44,-0.39,2
-17.23,-1.54,15.19,6.15,-25.98,5.52,-3.78,-12.17,15.97,41.8,-18.36,21.68,-4.82,13.86,-12.78,0.34,1.86,-1.9,2
-14.54,-3.25,17.4,-18.41,-69.63,39.55,-0.61,-10.27,18.75,56.49,-35.94,25.78,-4.65,13.94,-12.75,0.54,1.9,-0.44,2
-0.07,0.27,19.01,66.41,-183.2,62.21,-0.93,-7.25,19.19,-10.06,-30.08,8.64,-4.85,13.82,-12.96,1.32,2.44,-0.49,2
0.4,5.13,20.86,-23.73,9.72,13.28,0.79,-8.99,19.3,13.53,-2.64,-0.44,-4.88,13.8,-12.94,0.1,2.0,-0.88,2
-1.04,4.77,20.61,9.03,9.47,-1.61,0.94,-9.41,19.16,0.78,-0.54,-5.03,-4.83,14.04,-12.95,1.46,1.37,-0.68,2
-1.62,2.54,20.98,0.88,2.2,-5.91,0.79,-10.11,18.9,0.59,-1.22,0.0,-4.81,13.87,-12.82,1.9,1.9,-1.12,2
-2.59,2.25,20.74,-2.78,6.79,-0.98,0.67,-9.83,18.89,4.88,-0.1,1.51,-4.82,13.72,-12.81,0.54,1.76,-1.03,2
-2.02,2.71,20.94,2.69,-3.08,2.0,0.28,-9.79,18.83,-2.25,0.54,-2.54,-4.79,13.99,-12.86,-0.49,2.25,0.73,2
-1.74,2.33,21.12,-2.0,0.39,-0.63,0.94,-9.7,19.1,-0.05,-0.15,-1.07,-4.82,14.13,-13.06,0.73,2.59,-1.51,2
-2.17,2.65,21.06,1.07,0.63,-0.24,0.28,-10.03,18.83,3.22,1.27,3.17,-4.89,13.93,-12.96,2.2,1.76,-1.03,2
-2.72,2.8,20.8,0.73,-0.59,1.07,0.47,-10.2,18.96,-0.83,-1.03,-1.61,-4.76,13.94,-12.83,1.42,1.95,0.49,2
-1.77,2.27,21.22,-1.12,-1.03,1.27,0.74,-9.32,18.96,3.22,-0.83,0.2,-4.77,13.81,-12.93,3.03,2.15,-0.29,2
-2.27,2.68,21.02,0.1,-2.54,1.32,0.85,-9.76,19.16,-0.83,-0.68,-0.05,-4.7,13.76,-13.02,1.42,1.46,-0.54,2
-2.27,2.78,21.05,0.93,-0.49,0.24,0.49,-9.93,18.97,-1.27,-1.07,-0.1,-4.91,13.83,-12.75,0.98,0.98,-0.98,2
-9.03,5.79,13.1,3.08,211.28,-46.19,2.72,-10.75,19.01,-23.88,-4.39,-3.81,-0.93,15.24,-5.7,-23.97,5.91,2.93,3
-16.19,-1.0,15.66,4.69,35.4,-6.59,2.63,-9.49,18.95,-7.67,3.66,-0.24,-0.37,19.39,-4.26,-3.03,-5.18,-4.1,3
-15.8,-1.77,15.55,-2.39,1.22,-8.45,2.3,-11.07,18.65,-3.08,3.13,2.54,-1.24,17.79,-5.48,6.4,-12.16,2.25,3
-16.24,-1.83,15.05,-1.71,-4.44,-4.79,1.61,-9.46,18.59,6.25,-2.44,0.88,-2.65,17.05,-6.29,0.63,-15.14,0.24,3
-16.41,-1.55,14.52,4.15,-2.34,-1.61,1.98,-10.22,18.8,-0.83,0.24,-1.03,-3.39,15.29,-9.88,64.89,-62.6,17.38,3
-15.43,-1.71,15.13,-1.56,-21.73,-0.73,2.09,-9.93,18.97,-1.61,1.42,0.49,3.19,18.78,-9.64,81.45,-51.32,21.53,3
-15.5,-2.21,16.98,6.25,-113.62,23.44,1.89,-9.58,18.82,2.15,-0.05,0.54,-2.75,13.93,-12.42,-17.14,8.01,-12.21,3
-2.5,-0.99,18.99,-0.68,-222.02,43.75,2.03,-9.51,18.88,0.05,-0.78,0.05,-2.78,15.15,-12.86,6.59,4.35,2.29,3
9.84,3.21,22.14,7.57,-35.16,-9.33,2.17,-9.46,19.02,-0.54,-0.59,0.15,-2.37,14.77,-12.04,-1.32,1.9,-3.86,3
4.31,0.76,20.95,-1.42,4.98,0.73,2.05,-9.99,18.92,-2.78,-0.15,0.24,-2.64,14.49,-12.0,3.17,1.22,-0.88,3
3.45,0.61,19.68,9.62,34.13,1.03,1.94,-9.9,18.79,0.24,-0.44,0.0,-2.54,14.78,-12.29,3.03,0.93,-0.39,3
0.72,0.41,20.64,-1.27,8.25,0.0,1.93,-9.75,18.87,0.24,-2.15,-1.17,-2.87,14.4,-12.46,-0.34,2.2,-1.46,3
-0.13,1.11,21.19,1.9,12.65,-1.17,2.11,-9.44,18.99,-1.95,-1.37,0.0,-2.76,14.67,-12.21,1.27,1.42,-1.66,3
1.38,1.26,21.41,2.73,-3.56,2.29,1.74,-9.46,18.76,-1.56,-1.56,-1.22,-2.8,14.73,-12.38,0.44,0.88,-1.12,3
0.46,0.79,21.12,0.93,0.59,0.78,2.18,-9.76,18.92,-0.83,-1.81,-1.03,-2.62,14.59,-12.27,-0.49,1.86,-1.42,3
0.32,0.72,21.19,0.98,1.61,0.59,2.01,-9.9,18.85,-0.83,-1.51,-1.17,-2.76,14.56,-12.2,-0.2,1.71,-1.66,3
0.45,0.85,21.23,-0.1,-1.71,0.98,2.92,-9.37,19.1,0.93,-4.35,-0.93,-2.77,14.77,-12.32,2.2,1.37,-0.24,3
0.5,0.75,21.13,0.2,-0.63,1.37,2.06,-9.58,18.92,-2.39,-0.78,-0.63,-2.71,14.75,-12.27,2.05,1.86,0.0,3
0.82,0.94,21.28,1.61,0.24,0.24,2.18,-9.66,18.88,-0.1,-0.44,0.05,-2.59,14.7,-12.38,2.59,1.71,0.1,3
0.43,0.71,21.23,1.03,-1.56,0.98,2.0,-9.49,18.8,0.73,-0.49,-0.24,-2.68,14.75,-12.28,3.42,0.83,-0.1,3
-5.28,4.56,15.11,23.19,270.12,-24.27,-1.49,-14.77,17.04,-6.74,0.05,-6.3,-0.83,16.55,-9.91,-8.45,36.91,-4.25,4
-15.8,-3.48,14.87,-8.89,48.68,8.11,-2.38,-13.53,16.64,3.86,-0.2,-0.68,-1.03,18.21,-8.26,2.29,-7.57,10.99,4
-15.54,-1.12,14.32,-0.54,5.22,-7.47,-2.33,-14.33,16.58,5.08,4.64,1.61,-0.22,18.12,-7.44,1.61,-6.88,-1.37,4
-15.17,-2.05,15.74,-0.1,-1.51,-5.37,-3.22,-14.61,16.03,23.24,-18.99,-12.01,-0.45,17.75,-8.01,3.81,-2.29,-3.37,4
-16.56,-1.21,14.75,3.52,-1.17,1.95,0.09,-11.27,17.23,54.1,-40.87,-8.01,0.66,17.96,-7.57,9.13,-6.98,-4.74,4
-15.55,-1.28,15.09,0.83,2.15,0.88,2.28,-7.84,19.76,38.09,-15.48,0.98,-3.79,13.21,-11.11,43.07,-59.08,6.35,4
-18.93,-2.52,13.86,0.2,-33.84,2.05,1.09,-10.78,19.6,-6.4,-2.2,-7.13,2.16,18.77,-11.4,77.88,-40.48,10.4,4
-13.46,0.39,11.5,25.1,-173.73,22.51,1.51,-10.45,19.16,-12.01,-2.1,-6.3,-2.83,11.95,-11.91,-19.09,4.98,-17.19,4
8.26,0.04,22.11,24.61,-189.06,43.6,1.26,-10.22,18.65,0.83,-1.66,0.05,-2.81,12.96,-13.52,-4.15,1.42,-2.49,4
-3.39,0.32,20.11,-8.45,30.96,-5.22,1.24,-9.9,19.15,3.86,-0.73,0.59,-3.26,14.21,-13.01,0.2,0.59,4.69,4
0.37,1.24,21.14,-11.04,3.86,-3.86,1.91,-9.57,19.22,1.12,2.05,-0.49,-3.13,13.8,-12.98,-6.3,3.37,-2.98,4
0.1,0.44,21.24,1.46,-0.44,1.37,1.41,-9.77,18.9,1.32,1.32,-0.24,-2.89,14.07,-13.31,2.05,3.08,0.59,4
0.59,1.1,21.34,3.08,1.71,0.44,1.51,-9.76,19.07,0.78,-0.49,0.78,-3.09,13.82,-13.08,2.1,-0.05,-1.22,4
0.51,1.36,21.25,1.51,-2.25,0.1,1.61,-9.37,19.07,-0.2,-0.83,-0.54,-2.98,13.79,-12.77,-1.27,1.37,-0.93,4
-0.33,0.84,21.14,-0.63,1.42,-1.07,1.6,-9.77,18.97,0.39,-0.1,-0.83,-3.34,13.86,-13.17,2.39,1.37,-1.76,4
-0.28,0.76,21.21,-0.0,1.61,1.17,1.66,-9.56,19.04,-0.2,-0.24,0.63,-3.14,13.88,-13.21,1.42,1.37,-1.07,4
-0.22,1.06,21.16,-0.15,-0.93,0.78,1.69,-9.48,19.14,0.44,-0.78,-0.39,-3.13,14.15,-13.12,2.29,2.15,0.49,4
0.2,0.85,21.33,0.15,-3.03,-0.44,1.55,-9.5,19.0,0.1,-0.73,-0.39,-3.09,13.98,-13.13,2.15,2.05,-0.93,4
0.19,0.97,21.35,0.29,-1.61,1.12,1.76,-9.57,19.01,-0.93,-0.98,-0.24,-3.09,13.92,-13.25,2.73,1.03,0.29,4
0.13,1.16,21.29,0.63,-3.17,1.42,1.72,-9.32,19.08,-0.29,-0.24,0.05,-3.1,14.14,-13.25,1.76,0.73,-0.44,4
0.7,7.69,15.97,25.15,266.11,-48.73,0.96,-20.31,14.91,-95.07,72.71,55.27,0.87,17.53,-6.37,3.27,-4.25,-3.47,5
-9.94,-2.0,15.06,34.23,7.32,15.09,-5.03,-10.68,14.71,31.1,13.96,8.3,-0.19,18.31,-7.2,8.64,-3.91,-4.05,5
-17.76,-3.39,15.46,-1.42,-13.62,-3.52,-2.43,-13.26,15.79,4.39,9.28,-7.47,1.23,17.59,-6.73,1.22,-7.86,5.32,5
-15.4,-2.13,15.67,-2.49,-3.27,-2.44,-2.0,-13.77,16.49,1.03,1.95,-2.54,0.71,16.95,-7.09,18.02,-16.16,4.39,5
-15.94,-1.64,14.97,2.73,-0.05,-0.88,-1.83,-14.09,16.35,-0.49,-1.37,-2.1,-0.45,14.62,-11.59,90.97,-78.22,12.16,5
-16.01,-1.51,14.97,2.44,-1.07,1.27,-1.51,-14.19,16.75,-4.0,-2.25,-2.0,-1.26,18.24,-12.66,29.15,-32.47,-8.45,5
-16.13,-1.46,15.01,2.83,-2.73,1.61,-2.23,-13.84,16.52,-1.07,-4.1,-1.81,-2.09,12.47,-12.54,1.76,11.62,0.68,5
-16.25,-1.56,14.86,4.59,-7.42,0.1,-1.83,-13.49,16.23,0.83,-3.71,-5.57,-1.87,13.47,-12.92,2.73,3.56,2.98,5
-15.25,-2.25,15.94,-1.56,-11.08,0.0,-1.1,-14.28,16.21,9.37,-2.39,-0.98,-1.72,13.94,-13.27,-1.76,5.91,0.54,5
-16.54,-1.91,16.0,6.1,-37.89,11.57,0.18,-13.62,17.73,33.74,-33.06,-16.11,-2.26,13.62,-13.68,2.69,4.69,-1.27,5
-10.09,0.62,15.98,11.77,-164.06,25.15,1.68,-9.09,18.28,41.55,-42.72,-5.81,-1.3,14.4,-13.28,0.59,2.64,1.9,5
5.47,-1.25,21.07,3.66,-180.76,20.21,2.58,-6.31,18.41,-2.25,-20.12,-1.81,-1.4,14.16,-13.28,3.61,0.54,-1.46,5
2.24,-0.01,20.08,-6.74,32.37,-6.4,3.87,-10.9,17.98,-1.07,-9.77,-8.84,-2.24,13.67,-13.11,-1.56,1.46,0.15,5
3.38,-0.25,21.06,-1.42,-2.54,-0.93,4.3,-11.28,17.89,-8.79,-4.0,-3.71,-1.77,14.08,-12.92,1.9,2.93,-0.78,5
2.72,-2.58,22.67,3.22,-0.05,3.71,4.17,-10.22,18.27,-2.05,-2.2,-0.59,-1.51,14.03,-13.38,2.44,3.42,-0.88,5
2.53,-0.34,20.87,-0.1,-0.83,0.39,4.39,-10.6,17.76,-2.15,-2.1,-2.73,-1.49,13.88,-13.33,0.54,2.78,-0.93,5
2.84,-0.79,21.21,-1.76,-0.83,0.63,4.87,-10.56,17.9,-2.44,0.78,-1.03,-1.56,13.97,-13.23,1.32,1.76,-1.03,5
2.56,-0.72,20.93,0.15,3.27,0.63,4.07,-10.9,17.59,-3.47,-0.2,-0.68,-1.47,13.99,-13.29,2.44,2.05,-1.12,5
1.78,-0.96,20.85,0.1,1.51,0.0,4.01,-11.02,17.45,-0.88,-1.37,-1.32,-1.81,13.79,-13.43,1.95,2.1,-1.37,5
2.36,-1.41,21.22,1.51,-1.81,1.51,5.16,-9.97,17.54,5.27,-2.83,1.27,-1.56,13.68,-13.01,-1.95,2.93,0.1,5
-15.02,-1.3,15.73,3.47,0.0,-1.17,-2.63,-19.97,13.96,-57.42,77.49,42.53,-0.31,12.99,-12.1,-93.02,90.97,-20.61,6
-16.19,-1.5,15.39,3.56,-3.56,-1.71,-4.27,-11.73,16.65,10.5,15.09,3.22,2.38,18.86,-5.75,-18.16,8.5,-8.59,6
-15.15,-1.16,15.53,4.35,-3.32,-0.05,-4.02,-12.11,16.5,-3.22,3.13,-3.86,0.82,18.83,-5.91,0.05,0.44,0.34,6
-15.41,-1.58,15.6,2.69,0.15,1.51,-3.29,-13.8,16.73,-1.47,1.66,-4.98,1.59,18.0,-5.56,-1.42,-6.15,0.98,6
-15.47,-1.62,15.78,-2.2,-7.42,2.29,-2.32,-13.55,16.76,-1.47,0.83,-4.88,2.19,18.31,-5.39,4.64,-7.91,-0.24,6
-15.42,-3.75,17.75,0.88,-60.11,25.78,-2.27,-13.83,16.99,-0.15,0.49,-0.44,1.04,17.77,-6.07,6.59,-6.88,-0.2,6
-9.89,3.39,14.81,38.33,-214.89,46.78,-2.5,-14.38,16.63,0.44,-3.61,-0.63,-0.91,16.79,-7.73,13.33,-12.06,1.95,6
7.89,0.94,22.81,-8.45,-64.01,10.3,-0.48,-16.42,17.57,43.99,-29.1,16.16,-0.48,15.42,-12.61,133.2,-103.08,9.52,6
2.33,-0.86,20.97,-6.45,-17.92,-1.03,-1.0,-9.79,18.04,28.61,-61.18,0.44,-0.16,17.44,-11.22,40.09,-39.5,-29.0,6
3.28,-0.88,21.24,-11.72,6.4,-5.27,2.32,-4.53,20.86,16.99,-43.6,-2.93,-4.57,10.31,-14.12,-2.25,7.86,6.4,6
3.01,0.02,21.13,1.03,-2.64,-0.29,3.54,-11.28,18.68,1.71,-11.77,-7.91,-3.19,11.96,-14.46,-4.39,7.32,5.66,6
1.97,0.08,20.97,-2.69,-1.22,-0.2,3.25,-11.5,18.04,-12.84,-3.27,-6.64,-2.65,13.05,-15.02,0.34,7.32,4.79,6
2.0,-0.01,20.95,-2.2,-0.93,-1.17,3.68,-10.21,18.39,-0.59,-2.0,-2.15,-2.41,13.0,-14.62,1.9,2.64,-3.61,6
1.73,0.26,21.29,1.51,-3.12,-0.24,3.49,-10.56,18.32,-3.66,-2.49,-2.39,-2.82,12.41,-14.75,1.61,2.44,0.2,6
2.81,-0.22,21.26,1.95,-1.37,1.76,3.31,-10.53,18.12,-3.47,-1.37,-2.54,-2.84,12.19,-14.43,-3.76,2.98,-1.07,6
0.33,1.04,21.16,4.59,7.81,1.32,5.0,-10.67,17.54,-1.61,-4.98,-2.69,-2.45,12.62,-14.24,0.34,2.59,-0.39,6
1.97,0.3,20.92,-1.66,-0.49,-0.98,4.13,-10.61,18.19,0.63,-1.56,0.49,-2.25,13.02,-14.75,2.88,3.13,-3.56,6
2.92,0.14,21.2,0.83,-1.61,1.46,4.76,-9.9,18.56,-0.49,-3.27,3.08,-2.73,12.77,-14.67,0.83,2.15,-0.63,6
2.4,0.56,20.9,0.59,-0.88,1.03,3.55,-10.41,18.02,-2.59,-0.68,-2.29,-2.52,12.31,-14.27,4.78,2.88,4.39,6
1.87,-0.8,20.81,-1.07,-0.83,-0.73,4.34,-10.34,18.16,0.24,-1.51,-0.1,-2.23,12.83,-14.75,-1.71,3.61,-3.56,6
-9.53,7.19,13.67,35.4,288.23,-28.66,3.65,-17.69,15.3,-175.29,71.09,38.09,-0.89,10.38,-14.19,-7.13,2.44,0.39,7
-12.29,2.84,17.3,-14.21,44.38,-18.26,-1.89,-17.24,16.82,-19.92,19.19,1.66,-1.3,12.35,-14.78,-6.2,3.52,0.1,7
-14.67,-0.17,15.77,10.06,-4.64,-1.27,-1.76,-14.31,15.6,10.69,8.06,0.73,-1.17,12.32,-14.76,-1.47,0.93,-2.98,7
-14.15,-0.81,16.76,3.66,-3.08,-5.57,-0.26,-13.56,16.48,-0.59,2.29,-6.98,-1.41,12.09,-14.45,1.86,0.39,-2.1,7
-15.05,-1.26,16.36,-0.49,7.47,-1.22,-0.9,-15.31,16.5,-5.71,2.83,1.51,-1.35,13.25,-14.33,7.81,-0.1,0.78,7
-14.7,-0.64,16.17,2.2,0.63,-0.05,-0.38,-14.46,16.35,-0.29,0.44,-0.2,-1.69,12.44,-14.88,-0.39,2.0,-3.47,7
-15.02,-0.59,16.77,-0.78,-4.44,-1.71,-0.48,-15.07,16.32,-1.32,-2.34,-0.98,-2.06,12.26,-14.53,0.49,1.56,0.2,7
-16.54,-2.69,15.08,-2.25,-128.86,28.22,-0.02,-14.69,15.12,46.34,-66.02,-12.45,-1.44,12.83,-14.62,-0.34,4.25,3.13,7
4.83,3.08,18.66,1.03,-278.76,42.04,4.61,-8.0,19.62,54.83,-45.95,-4.64,-1.24,12.17,-14.81,-3.56,2.34,-2.44,7
-0.5,1.52,18.09,-19.04,51.17,-9.81,3.65,-9.8,19.13,-37.94,2.1,-2.78,-1.57,12.23,-14.63,1.07,1.07,-1.95,7
3.87,0.99,21.3,2.69,2.49,-2.83,5.45,-9.94,18.09,-4.54,2.29,-2.0,-1.66,12.86,-14.4,2.64,1.76,1.46,7
1.67,-0.55,21.29,4.0,13.18,-2.44,6.01,-11.67,17.87,-3.76,1.07,-0.98,-1.43,12.55,-14.3,0.63,2.64,0.54,7
1.97,0.51,21.04,2.69,4.25,-1.27,4.49,-10.29,17.7,-1.47,4.44,-0.39,-1.53,12.58,-14.94,-0.2,3.76,-3.32,7
2.03,-0.2,21.03,-3.61,-0.44,-1.46,4.72,-10.82,17.62,-4.39,-0.15,-2.73,-0.71,12.93,-14.78,1.46,1.56,2.25,7
1.17,-0.19,21.2,-0.63,3.37,0.83,5.25,-10.97,17.69,-3.96,-1.86,1.03,-1.5,12.2,-14.24,-1.81,0.15,-0.68,7
0.91,0.68,20.93,3.08,2.59,1.22,4.5,-10.09,17.79,2.05,0.83,1.42,-1.65,12.49,-14.6,-0.29,1.42,-2.0,7
1.01,0.18,20.87,-0.83,-3.96,0.39,4.3,-10.45,17.46,-0.05,-2.2,-1.76,-1.2,13.06,-14.79,3.03,3.27,1.22,7
1.99,0.02,21.39,1.76,-1.51,1.76,5.46,-10.57,17.76,1.27,-0.83,0.78,-1.3,12.97,-14.3,3.12,1.27,-1.12,7
1.7,0.5,21.16,1.37,-0.44,1.32,4.79,-10.09,17.91,0.24,0.98,0.93,-1.28,12.29,-14.31,4.54,2.59,1.17,7
1.56,0.41,20.95,-1.56,-2.05,0.2,4.52,-10.17,17.56,-1.95,-0.83,-0.98,-1.03,12.47,-14.46,1.76,3.76,0.88,7
-17.1,0.96,14.34,-10.16,45.7,-3.27,-1.9,-14.09,16.52,-3.17,-0.05,0.15,-3.18,12.2,-14.55,2.2,2.0,1.12,8
-17.65,0.14,14.46,5.96,0.15,-6.25,-1.57,-14.31,16.4,-1.61,0.29,-1.07,-2.43,12.8,-14.79,1.56,2.25,-0.98,8
-15.93,-0.71,14.95,5.22,-4.1,-2.49,-2.16,-14.48,16.32,-1.86,1.95,-0.49,-2.77,12.29,-14.77,1.27,-0.93,-2.39,8
-16.41,-0.69,14.32,1.86,-2.2,-1.07,-1.96,-13.95,16.33,-3.66,-6.45,-4.74,-3.43,12.31,-14.24,1.12,0.05,-0.39,8
-16.58,-0.71,14.69,3.66,-0.54,0.44,-2.27,-13.88,15.93,11.13,-6.93,-8.89,-3.5,12.25,-14.48,0.78,3.03,-1.37,8
-16.75,-1.28,13.67,4.39,0.2,-0.98,-0.7,-13.79,17.46,61.28,-3.61,24.02,-2.87,12.12,-14.79,0.49,2.54,-0.05,8
-16.8,-1.52,14.77,-0.63,-5.57,-2.64,-3.42,-11.25,17.35,2.88,-31.59,-4.59,-3.08,11.86,-14.74,-1.07,0.78,0.44,8
-17.62,-1.24,15.79,0.93,-55.42,-3.96,0.76,-11.16,18.65,-33.4,-1.22,-2.39,-3.15,12.41,-14.06,-0.39,1.61,1.56,8
-11.68,-0.95,15.68,6.98,-159.47,26.86,1.42,-11.23,18.15,-3.56,-2.64,-3.42,-2.72,12.4,-14.82,0.29,4.05,-0.78,8
4.69,0.48,22.07,-0.15,-135.74,11.67,1.55,-10.63,18.41,4.64,-6.3,-2.15,-2.86,11.99,-14.92,2.05,1.42,-0.15,8
0.84,-0.97,21.0,-6.4,31.1,-11.13,1.94,-10.98,18.42,2.54,-1.17,-1.37,-2.73,12.77,-14.59,1.46,0.05,-1.61,8
-0.26,-0.94,21.41,-3.22,-10.21,0.63,1.97,-11.49,18.28,-2.88,0.49,1.03,-3.25,12.36,-14.59,-0.05,0.29,-2.39,8
-2.97,0.91,21.1,6.84,10.69,2.44,1.64,-11.43,18.05,-1.47,-0.29,0.88,-3.11,12.47,-14.88,2.64,0.93,0.24,8
-1.3,0.24,21.52,2.73,-2.39,-1.51,1.84,-11.27,18.2,3.81,-2.0,-2.78,-3.68,12.2,-14.13,1.12,-1.07,-0.44,8
-2.08,-0.22,21.28,2.1,-1.32,0.39,1.54,-11.05,18.01,-0.39,-1.56,-0.54,-3.03,13.01,-14.38,2.39,4.79,1.17,8
-1.94,-0.52,21.26,0.49,-2.83,0.78,1.65,-11.28,18.11,-0.88,-1.9,-1.51,-2.8,12.04,-14.97,1.03,2.54,-3.27,8
-1.42,0.03,21.42,3.08,-2.39,1.81,1.69,-10.72,18.27,2.2,-0.44,0.2,-3.13,12.24,-14.66,2.29,2.69,-0.63,8
-1.55,-0.27,21.27,0.54,-3.66,-0.2,1.96,-10.92,18.18,0.1,-4.25,-1.12,-2.97,12.83,-14.64,1.03,1.32,-0.1,8
-1.25,-0.41,21.59,0.83,-3.66,1.71,2.76,-10.85,18.56,1.46,-1.46,-0.1,-2.9,13.18,-14.61,1.71,1.81,-0.05,8
-1.32,0.07,21.29,1.66,-2.15,1.81,1.96,-10.66,18.16,-2.2,2.54,1.95,-3.18,12.16,-14.79,0.88,0.88,-0.15,8
-1.18,-0.47,21.49,1.03,0.0,0.88,2.31,-11.65,17.48,-1.42,1.42,0.15,-3.58,12.61,-14.65,-0.73,3.37,-0.34,9
-1.69,-0.99,21.19,1.03,-0.78,0.49,2.54,-11.84,17.46,1.81,-1.81,-0.39,-3.33,12.45,-14.88,0.49,2.44,-1.07,9
-1.04,-0.42,21.47,1.07,-1.81,1.51,3.13,-11.39,17.77,0.88,-0.78,0.44,-3.78,12.38,-14.55,1.42,0.88,-0.34,9
-1.06,-0.2,21.53,0.39,1.17,1.22,2.9,-11.16,17.74,-0.88,1.81,0.54,-3.72,12.61,-14.2,0.05,2.78,-0.73,9
-1.86,-0.83,21.24,-0.44,-0.78,-0.1,2.37,-11.92,17.43,-0.34,-0.59,-0.39,-3.25,12.18,-14.73,0.29,3.56,-0.54,9
-1.38,-0.78,21.42,2.15,-3.12,2.2,2.96,-11.39,17.76,0.83,-1.61,0.44,-3.44,12.24,-14.77,-0.83,0.49,-1.07,9
-0.57,0.1,21.68,1.56,-3.61,1.61,3.01,-11.25,17.98,-1.66,1.17,0.39,-3.57,12.71,-14.61,0.1,2.29,0.0,9
-1.45,-0.43,21.29,-0.44,0.24,-0.24,2.7,-11.72,17.45,-0.15,-0.63,-0.68,-3.46,12.4,-14.66,-0.05,0.88,-2.44,9
-0.79,-0.69,21.6,0.05,-0.59,0.73,3.24,-11.59,17.78,-0.59,0.2,0.63,-3.61,12.06,-14.43,0.63,0.2,-0.63,9
-1.31,-0.2,21.38,0.49,0.83,1.17,2.65,-11.49,17.79,-0.93,1.07,0.93,-3.73,12.68,-14.44,-0.1,2.44,-1.56,9
-1.55,-0.48,21.29,-1.61,-0.29,-0.34,2.64,-12.06,17.49,0.15,-0.24,-0.1,-3.54,12.11,-14.51,2.25,3.03,-0.24,9
-1.47,-0.73,21.33,0.49,-0.63,1.56,2.43,-11.53,17.56,1.03,-0.88,-0.05,-3.24,12.53,-14.79,0.39,1.86,-0.93,9
-1.1,-0.31,21.49,1.42,-3.12,1.32,3.34,-11.48,17.96,0.63,-0.88,-0.2,-3.57,12.68,-14.61,0.34,0.83,0.2,9
-0.77,-0.02,21.5,0.15,-0.98,1.12,3.0,-11.5,17.77,-0.68,1.27,0.1,-3.75,12.83,-14.42,0.1,1.56,0.0,9
-1.21,-0.42,21.45,-1.27,-0.1,-0.1,2.65,-11.81,17.48,-0.49,1.17,0.24,-3.85,12.06,-14.61,-0.29,2.44,-1.66,9
-1.35,-0.87,21.4,0.24,-0.05,1.66,2.4,-11.73,17.58,-0.39,-0.1,0.68,-3.68,11.89,-14.53,0.93,1.81,0.68,9
-1.31,-0.18,21.39,1.22,-0.39,1.9,2.47,-11.33,17.67,-0.49,-0.34,-0.05,-3.71,12.32,-14.46,0.59,1.66,-1.03,9
-1.24,-0.5,21.41,-0.0,-1.81,-0.05,2.74,-11.85,17.63,-0.68,-0.05,-0.15,-3.62,11.98,-14.51,1.12,2.0,-0.44,9
-1.27,-0.69,21.47,0.93,-0.34,0.98,2.5,-11.61,17.55,-0.59,-0.73,0.39,-3.52,12.3,-14.75,1.56,1.22,-1.22,9
-1.22,-0.46,21.41,0.78,-1.37,0.78,3.01,-11.53,17.74,-0.88,-0.83,-0.39,-3.7,12.03,-14.13,-0.98,-0.05,-0.73,9
-16.93,-1.71,12.93,7.62,1.07,-2.39,-2.75,-30.35,14.92,-55.27,68.26,39.99,-4.3,10.29,-16.22,-103.81,81.05,-28.71,10
-17.12,-2.64,14.14,7.81,-3.08,5.13,-3.55,-12.43,15.14,-2.2,-1.32,1.81,-1.35,17.49,-7.22,-19.73,8.89,-14.11,10
-17.16,-2.65,13.93,-1.95,1.76,1.86,-3.67,-14.48,14.5,0.68,7.62,-4.83,0.23,17.52,-6.41,2.15,-14.55,6.15,10
-17.33,-2.13,13.92,2.0,1.76,1.76,-1.95,-16.04,14.86,2.39,1.07,-0.68,-2.33,17.59,-7.23,10.45,-3.52,3.13,10
-16.96,-2.37,13.61,1.51,-2.49,-0.54,-1.7,-15.8,15.07,-0.73,-0.73,2.64,-1.62,17.9,-7.99,7.86,-2.73,-0.83,10
-18.07,-4.08,14.56,-8.11,-11.82,7.91,-1.94,-15.7,15.15,-0.44,1.03,1.42,-2.05,17.19,-8.46,4.0,-3.66,-2.0,10
-15.92,-3.53,14.78,6.1,-146.14,57.96,-2.25,-15.33,15.03,-0.2,-0.93,-2.59,-1.4,17.39,-8.27,8.25,-5.42,2.2,10
-0.73,6.48,19.38,-16.41,-226.76,42.09,-1.92,-17.07,13.87,1.46,-7.71,0.98,-4.69,14.2,-10.59,21.0,-26.61,24.66,10
-1.79,1.9,20.32,6.1,-1.61,-1.71,0.4,-16.09,15.56,69.78,-63.38,14.7,-0.71,16.5,-13.79,159.62,-84.57,32.91,10
-0.37,-0.29,21.54,-13.18,4.2,-7.76,-0.07,-9.05,17.96,14.21,-25.44,-7.08,-4.2,9.82,-14.29,-23.05,12.06,-21.53,10
-0.57,-0.26,21.45,-1.95,2.34,-0.68,0.88,-10.35,17.85,3.61,4.83,-3.47,-2.48,12.49,-15.04,5.62,1.66,10.01,10
-0.66,-0.64,21.35,1.07,-2.83,-0.1,2.83,-12.1,18.06,-12.45,-2.78,-5.91,-3.19,11.7,-15.32,3.91,1.9,8.35,10
-0.86,-0.54,21.37,-0.29,-0.68,0.73,2.69,-11.81,18.09,-4.0,-0.05,0.05,-3.54,12.21,-14.54,1.07,2.98,-0.63,10
-0.93,-0.16,21.36,0.59,0.49,-0.1,3.03,-11.26,17.98,2.69,1.22,0.63,-3.21,12.53,-15.17,0.68,1.9,-2.29,10
-1.3,-0.02,21.26,0.05,-1.22,0.0,2.87,-11.47,17.78,-0.0,-0.34,0.44,-3.22,12.59,-15.18,1.61,2.34,-2.25,10
-1.38,-0.27,20.99,1.61,-7.76,0.49,2.42,-11.31,17.81,-0.0,1.81,0.54,-3.35,11.56,-14.9,-1.95,0.68,-2.15,10
-0.6,-0.71,21.41,0.88,-5.08,1.9,2.33,-11.37,17.72,-0.39,0.29,-0.49,-3.66,11.98,-14.76,-1.03,0.68,-2.34,10
-0.06,-0.41,21.5,1.56,-3.91,3.22,2.39,-11.73,17.63,4.35,-1.12,-1.81,-3.75,11.95,-14.48,1.66,1.56,0.2,10
0.29,0.34,21.6,3.22,-4.88,3.08,2.67,-11.64,17.71,1.12,-1.95,-1.27,-3.53,12.08,-14.81,3.61,3.91,0.88,10
-0.39,0.08,21.19,-1.51,2.34,-0.73,3.23,-11.32,18.12,3.12,-3.32,1.51,-3.24,11.85,-15.04,-0.39,3.96,-1.71,10
-17.78,-3.74,14.35,-0.73,0.15,1.81,-1.22,-22.36,13.88,-43.36,97.9,13.48,-4.27,12.23,-13.51,-39.4,63.04,21.58,11
-16.73,-1.71,14.38,-0.1,-0.39,-0.34,-2.58,-10.64,15.76,29.69,0.39,-3.66,-0.96,18.03,-9.15,-3.47,6.3,3.13,11
-16.81,-2.61,14.32,-1.12,0.93,-0.98,-3.46,-17.32,15.0,-7.91,10.84,1.56,1.27,15.42,-7.17,-6.1,-3.32,-6.98,11
-16.98,-2.16,13.96,-0.63,1.71,-1.07,-2.4,-14.25,15.37,-1.07,2.44,1.27,-0.02,17.79,-7.85,3.32,-6.79,0.68,11
-17.26,-3.1,14.97,-8.64,-16.11,1.07,-2.13,-15.64,15.26,-3.52,-0.24,-1.17,-0.17,17.77,-7.54,5.76,-9.18,-0.59,11
-15.14,-4.79,15.56,-2.64,-125.2,37.74,-2.26,-15.23,15.02,-1.12,0.2,1.71,-0.59,17.8,-8.2,3.52,-3.37,-2.15,11
-2.34,2.49,17.53,4.98,-237.3,35.3,-1.95,-16.49,15.06,-0.68,-10.01,-2.69,-4.16,15.51,-10.71,12.89,-18.26,6.69,11
0.9,-3.64,23.2,-19.87,70.26,-10.94,1.06,-16.59,15.37,38.13,-58.45,-6.15,-0.61,13.68,-12.67,132.62,-100.73,38.57,11
0.07,-1.01,21.47,9.18,-7.37,2.78,2.5,-11.33,19.87,41.31,-41.26,-5.91,-1.92,14.18,-12.35,-7.81,-18.02,-15.09,11
-2.6,-1.87,21.42,4.59,0.1,2.0,3.04,-14.62,18.63,-35.64,-8.35,1.81,-3.8,13.74,-16.57,30.08,5.47,-1.61,11
-0.97,0.25,21.02,3.81,-13.92,3.56,3.06,-10.96,17.06,9.67,0.54,0.24,-3.72,12.16,-14.95,1.76,4.88,-1.66,11
-0.58,-0.48,21.24,-0.39,-1.9,0.54,3.58,-12.62,17.16,2.2,2.25,1.81,-3.22,13.09,-14.91,8.74,2.59,-4.15,11
0.48,-0.67,21.29,0.68,0.49,0.29,3.34,-10.49,17.69,10.3,-0.29,0.1,-3.53,11.5,-15.12,1.32,3.32,-6.98,11
-0.86,-0.83,21.28,-1.27,7.91,0.1,2.93,-11.52,17.54,-0.68,-1.37,-1.76,-3.49,11.44,-15.26,-1.51,2.1,-1.71,11
-1.02,-1.33,21.2,-1.22,-2.0,-0.24,2.77,-11.33,17.43,-0.68,-2.98,0.98,-3.11,11.56,-14.95,0.59,2.05,-1.71,11
-0.32,-1.02,21.48,0.54,-4.39,1.71,3.53,-11.6,17.91,-4.59,2.49,1.46,-3.39,12.26,-15.09,4.54,-0.63,-0.93,11
-0.45,-0.79,21.18,1.76,-4.79,1.56,2.79,-12.19,17.23,-0.15,-0.88,-1.07,-3.82,11.45,-14.58,-0.98,2.49,1.46,11
0.11,-0.65,21.51,1.17,0.0,1.12,3.34,-11.87,17.59,1.07,-2.39,-0.54,-3.82,11.37,-14.89,-1.22,2.54,-2.83,11
-0.34,-0.73,21.26,2.05,-0.34,1.12,2.93,-11.58,17.57,2.1,-2.39,-0.98,-3.56,11.75,-15.02,2.73,3.71,0.83,11
-0.25,-0.59,21.42,0.1,-0.73,1.17,3.57,-11.46,17.82,0.83,0.49,0.88,-3.35,12.16,-15.25,-1.76,1.9,-3.91,11
-15.71,-0.99,15.36,2.64,0.59,-5.47,-2.04,-14.98,15.89,2.78,-0.2,2.88,-0.07,13.0,-12.36,109.91,-63.62,8.98,12
-16.44,-0.41,14.22,7.62,-4.25,-3.37,-3.03,-14.06,15.56,-0.54,-1.61,1.07,-1.23,13.75,-13.84,12.21,-23.14,-19.19,12
-17.24,-1.3,13.73,4.64,-0.1,-0.93,-2.3,-14.5,15.72,2.73,-1.61,-3.22,-4.35,11.41,-17.07,13.28,9.47,7.96,12
-16.21,-0.89,14.65,-0.15,-1.76,1.32,-1.13,-15.34,16.34,-0.1,-3.91,-1.42,-3.16,12.06,-15.4,-7.37,8.59,7.67,12
-17.18,-0.63,13.44,-0.78,-2.78,1.03,-1.9,-14.06,15.98,1.51,-6.1,-3.56,-2.82,12.38,-15.25,0.93,1.42,0.2,12
-16.4,-1.07,14.04,4.25,-6.05,0.2,-1.35,-15.03,15.94,4.93,-1.32,0.24,-2.72,12.38,-15.2,4.3,1.86,-1.76,12
-16.7,-1.91,14.83,-0.2,-3.61,0.98,0.37,-15.13,16.2,54.39,-59.86,2.64,-3.55,11.1,-15.1,-0.49,-0.1,-2.29,12
-15.23,-1.16,14.94,-1.9,-10.45,1.07,0.46,-9.25,17.64,32.28,-20.31,7.62,-3.36,11.7,-14.95,-1.9,3.61,-0.68,12
-17.55,-1.44,15.05,1.03,-11.77,2.0,3.19,-12.61,18.53,-27.2,-11.18,-6.64,-2.94,11.83,-14.97,1.81,1.76,0.0,12
-13.84,-3.02,16.2,-7.32,-138.33,41.75,3.15,-11.46,18.25,-10.45,-13.43,-9.81,-3.08,11.77,-14.86,3.32,2.2,0.05,12
-0.21,0.63,19.89,-10.5,-198.93,39.7,3.31,-11.55,17.47,-5.62,-0.49,1.07,-3.12,12.27,-15.25,1.17,3.13,0.54,12
-3.34,-0.19,20.77,-23.05,1.76,-5.37,3.93,-11.58,17.84,0.05,-0.83,0.05,-2.85,12.06,-15.13,2.88,2.93,-1.17,12
-0.45,-0.27,21.64,-10.69,-12.35,-1.81,3.13,-11.51,17.6,-3.66,2.1,1.37,-2.82,12.0,-15.38,4.05,1.37,-0.93,12
-0.66,-0.5,21.33,-3.03,3.17,0.98,2.84,-11.61,17.42,-1.66,-2.88,-0.34,-3.04,11.77,-14.92,2.34,1.42,0.78,12
-0.35,-0.56,21.64,1.61,-1.61,0.88,3.58,-11.61,17.74,-1.27,-1.81,-0.59,-3.06,12.15,-14.83,0.54,3.37,-1.22,12
-0.86,-0.6,21.21,0.29,5.03,-0.05,2.77,-11.05,17.4,-0.98,0.54,0.49,-2.59,12.03,-15.29,2.54,2.44,-0.44,12
-0.94,-0.58,21.22,-0.73,-2.93,1.37,3.3,-11.46,17.49,-0.49,-2.0,-1.86,-2.94,11.98,-15.21,-0.24,2.15,-2.83,12
-0.26,-0.66,21.45,0.68,-0.54,1.27,3.76,-11.64,17.68,0.15,-3.08,-1.61,-2.75,12.11,-14.96,3.95,1.56,2.1,12
-0.86,-0.26,21.11,0.1,0.15,0.83,3.86,-11.1,17.84,2.05,-1.32,-0.24,-2.73,11.83,-15.21,2.59,1.22,-0.59,12
-0.24,-0.55,21.42,-0.39,-3.47,0.49,3.39,-11.54,17.54,-1.71,-0.78,-0.44,-2.97,11.89,-14.95,3.42,1.22,-1.61,12
-26.22,-9.67,14.84,-49.17,158.59,-67.97,-0.8,-16.91,17.85,0.73,7.13,3.91,-0.42,17.43,-8.78,-0.68,3.13,-3.22,13
-14.56,-2.26,16.07,-9.23,11.28,-7.67,0.6,-13.94,15.41,-1.42,-0.39,3.22,0.96,16.36,-8.04,3.42,-7.47,1.22,13
-14.06,-0.53,16.28,-0.05,-3.27,-0.29,0.17,-15.2,15.53,-1.95,0.93,-1.22,0.17,17.04,-8.41,5.37,-5.13,1.22,13
-15.18,-0.82,16.22,1.71,4.39,-0.34,-0.29,-15.56,15.24,-2.49,-0.63,-0.78,-0.07,17.72,-8.83,2.98,1.86,-1.86,13
-14.78,-1.29,16.1,2.83,-1.9,3.52,0.34,-14.82,15.53,-3.08,-3.91,-0.54,0.61,16.98,-8.3,6.4,-3.76,-1.56,13
-14.84,-1.27,16.14,-0.44,-0.83,0.39,-0.27,-14.84,15.3,1.86,1.95,1.12,-0.69,16.47,-9.16,6.69,-4.88,-0.15,13
-15.0,-0.89,16.05,-0.78,0.59,-1.22,0.28,-15.9,15.35,-3.56,-3.12,-2.93,-3.05,14.0,-12.37,25.98,-45.17,17.24,13
-14.87,-1.24,15.9,1.03,-4.25,-0.29,0.65,-16.27,14.18,8.06,-12.6,-12.99,0.37,19.69,-13.99,151.27,-36.67,2.15,13
-16.42,-4.34,15.64,-12.06,-70.61,-2.34,4.14,-11.11,17.01,115.72,-63.92,18.99,-1.95,9.71,-13.59,24.27,-1.61,-13.23,13
-7.73,0.81,16.94,43.95,-220.8,48.88,0.23,-11.86,18.61,40.62,-20.02,14.99,-1.19,9.99,-15.22,3.56,3.37,3.17,13
3.65,3.64,21.79,23.49,6.64,12.89,5.15,-12.61,18.19,-14.65,3.61,-1.56,-1.96,11.96,-14.94,0.39,0.1,7.76,13
0.6,-0.45,21.05,1.27,-7.67,1.95,5.35,-11.41,17.67,-8.59,-2.29,-6.74,-2.16,11.35,-15.51,0.24,1.07,-1.37,13
1.72,-1.35,21.41,-6.59,0.54,-2.44,4.67,-10.68,17.59,-0.73,2.73,2.49,-1.86,11.27,-15.41,6.05,1.9,1.81,13
0.81,-0.21,21.25,2.39,2.0,3.17,4.3,-10.31,17.99,6.88,0.73,2.34,-1.74,11.85,-15.3,0.24,-2.73,0.44,13
0.94,0.48,21.24,4.25,-6.35,3.52,3.9,-10.79,17.71,0.15,3.27,2.49,-2.05,11.26,-15.56,3.17,1.51,-0.1,13
1.02,-0.28,20.98,-0.49,1.76,0.78,4.53,-10.24,18.24,0.05,-2.93,0.15,-2.4,11.45,-15.02,1.46,0.29,-0.44,13
1.5,0.4,21.35,1.37,-3.52,1.46,3.95,-10.54,17.91,-4.35,1.07,1.03,-2.37,11.1,-15.19,-2.2,2.49,-3.27,13
0.64,-0.22,21.05,-1.47,2.64,-0.34,3.76,-10.85,17.99,-0.68,-2.25,-0.44,-2.17,11.89,-15.4,-0.78,3.22,-2.73,13
0.82,-0.35,21.46,0.34,-1.51,2.0,4.04,-10.58,18.01,0.54,-2.34,0.39,-2.04,11.25,-15.64,-1.12,3.56,-2.0,13
1.01,0.26,21.27,1.81,-2.29,2.54,4.52,-10.28,18.1,-0.59,-3.12,0.34,-2.06,11.64,-15.45,-1.81,1.86,-1.61,13
7.26,-5.6,21.51,-48.83,220.65,14.65,8.59,-19.62,17.32,-91.11,53.86,48.97,-0.42,25.18,-13.31,40.14,33.64,6.64,14
-20.2,2.81,14.01,-28.61,84.57,-9.47,-6.17,-10.87,15.76,-10.01,50.98,18.31,-2.01,15.75,-10.69,-14.21,3.22,-6.84,14
-19.3,-1.44,12.27,0.2,21.73,-5.62,-5.77,-13.34,15.39,-4.93,18.6,1.07,-0.68,18.13,-8.86,3.37,-1.86,-8.25,14
-19.21,-3.56,11.25,-0.63,2.73,-10.3,-6.64,-14.41,14.57,-0.88,6.4,-5.71,-2.02,17.36,-9.41,-0.1,0.98,-5.13,14
-18.01,-2.07,12.07,3.08,-0.44,-2.69,-5.27,-14.15,15.64,-0.73,5.47,-1.07,-1.36,16.32,-9.18,-2.39,-2.64,-1.95,14
-18.25,-2.03,12.72,3.42,0.29,0.54,-4.05,-14.12,15.73,2.59,-0.59,-1.17,-1.36,16.93,-9.2,1.46,-2.83,-2.88,14
-17.93,-2.29,12.55,0.44,-1.37,-1.86,-4.3,-14.93,15.64,-1.51,1.51,-2.0,-2.03,17.13,-9.71,6.74,-2.88,-0.2,14
-18.19,-1.98,12.46,1.51,-0.73,-1.03,-4.21,-14.89,15.28,-0.05,2.49,-1.27,-0.78,15.45,-8.52,1.95,-8.54,10.79,14
-16.16,-0.73,13.08,6.79,-20.17,2.1,-3.26,-13.86,15.82,0.63,-6.84,-6.69,-1.91,16.13,-9.14,4.93,-10.06,15.63,14
-17.62,-1.4,14.54,7.91,-23.83,3.13,-2.28,-13.95,16.66,6.93,-11.38,-9.18,-2.27,16.76,-10.06,9.13,-6.54,-1.27,14
-18.51,-2.16,13.59,2.44,-14.31,5.62,-3.63,-14.87,15.68,6.45,-11.62,-3.03,-2.59,11.65,-14.02,87.45,-77.25,16.94,14
-17.65,-3.2,14.98,12.4,-121.24,34.62,-2.86,-11.8,16.67,35.5,-59.33,-12.94,1.45,16.26,-10.94,31.35,-44.09,19.34,14
-3.68,0.32,19.53,-53.76,-178.32,28.42,1.44,-10.78,17.6,5.47,-50.44,-17.43,-3.59,11.41,-14.46,-15.14,5.57,-16.21,14
-4.97,-2.91,22.03,0.15,28.22,-4.44,6.09,-14.46,16.9,-4.49,-13.23,-1.42,-2.14,14.47,-14.09,-4.88,10.3,-13.28,14
-5.63,-0.51,21.13,-1.51,-3.61,15.14,4.42,-11.95,17.24,2.83,-11.57,7.37,-3.97,12.25,-13.09,-7.91,-0.68,-14.16,14
-4.48,-2.02,20.45,0.1,22.27,1.32,2.8,-11.64,16.29,-4.0,2.98,6.74,-4.75,13.42,-12.83,1.61,10.11,-2.69,14
-6.42,-3.7,20.5,-5.57,-7.52,2.39,3.1,-13.31,15.28,0.98,0.2,1.17,-5.36,7.73,-12.68,-35.06,7.42,17.33,14
-7.27,-0.65,20.12,4.98,1.12,-5.37,3.19,-14.23,15.79,-7.76,1.07,-7.67,-0.43,19.02,-12.63,-138.48,31.3,-49.9,14
-6.29,-3.84,20.93,-13.13,14.65,1.37,3.33,-15.3,14.9,-3.66,-0.15,12.5,-2.34,17.36,-4.38,-44.43,1.12,44.29,14
-8.77,0.5,18.87,43.95,50.15,3.91,0.66,-11.38,14.48,-6.15,24.56,23.68,-0.91,22.28,-4.14,-91.89,-14.01,28.71,14
-5.54,1.27,20.3,21.83,33.35,-8.79,3.12,-14.51,17.16,-18.65,3.71,5.42,-3.45,18.43,3.35,0.63,-0.59,0.15,15
-11.91,-2.41,18.79,-8.3,16.31,-5.62,1.15,-12.58,16.45,0.24,6.15,8.3,-2.34,19.6,3.13,-2.3,12.7,-3.22,15
-12.75,-2.02,18.27,-7.57,-1.51,0.34,1.62,-13.1,16.69,-1.51,-0.1,0.88,-1.93,19.65,3.62,-1.66,4.39,-1.22,15
-13.17,-1.42,17.86,1.46,1.46,0.2,1.05,-13.34,16.58,-2.34,1.32,1.46,-2.06,19.49,3.5,-0.1,1.86,-1.61,15
-12.99,-1.2,17.78,-2.98,-0.49,-0.88,0.77,-13.22,16.51,-0.54,4.93,1.81,-3.28,18.49,3.39,-0.68,0.78,0.63,15
-12.89,-1.52,17.47,0.15,-1.07,0.0,2.28,-15.37,17.04,1.81,0.05,-1.76,-2.57,19.31,3.48,0.54,4.83,-0.29,15
-14.51,-3.72,18.03,4.59,-20.21,0.15,2.11,-12.68,16.68,60.64,-50.54,31.3,-2.48,19.68,3.34,1.95,1.9,-1.22,15
-11.05,-0.84,17.59,2.69,-153.71,47.31,0.07,-10.24,16.87,-5.57,-30.08,-16.02,-3.07,19.12,3.23,1.22,1.27,-1.27,15
8.38,-0.98,20.61,8.89,-112.01,17.68,5.38,-10.55,17.93,-19.34,1.61,-3.81,-2.97,19.37,3.46,1.51,5.27,-3.08,15
2.02,-0.61,20.63,-6.64,12.5,-3.71,5.7,-9.88,17.79,-1.86,-2.2,-3.71,-2.87,19.18,3.43,-2.54,5.76,-2.1,15
3.49,-0.69,21.34,-2.69,3.76,-0.83,5.43,-9.65,16.16,13.43,-6.25,-1.66,-2.64,19.38,3.86,0.44,1.81,-2.44,15
-0.22,2.18,20.14,16.31,22.75,0.05,5.79,-10.76,17.46,2.1,0.0,2.34,-3.19,18.74,3.65,0.63,0.1,-1.46,15
2.19,-0.11,21.02,5.66,-0.88,3.27,6.04,-10.91,17.59,1.12,-1.95,2.2,-3.62,18.7,3.47,0.05,1.32,-0.88,15
2.82,-0.61,21.17,4.35,-2.29,2.73,5.87,-10.69,17.47,-2.2,-0.78,1.07,-3.49,18.93,3.52,-0.1,0.15,-0.34,15
2.08,-0.81,21.02,0.05,1.03,2.44,5.31,-10.78,17.15,2.93,-0.15,1.03,-3.4,18.85,3.44,-0.88,0.63,-0.98,15
2.21,-0.43,21.09,3.03,-5.62,1.46,6.01,-10.74,17.44,2.34,-1.12,1.03,-3.39,19.29,3.39,0.15,4.69,-1.22,15
2.51,-0.62,21.25,2.59,2.73,2.39,5.5,-10.81,17.3,0.24,-1.42,0.39,-2.9,19.41,3.51,-5.96,5.13,-3.12,15
2.16,-1.03,21.07,0.54,-1.66,2.2,5.48,-10.77,17.31,1.95,-1.37,-1.12,-3.33,19.2,4.13,0.88,-0.24,-1.86,15
2.51,-0.84,21.12,1.71,-4.54,1.32,5.67,-10.76,17.23,-2.98,-0.88,-0.68,-3.35,19.25,3.96,1.95,1.27,-1.95,15
2.22,-1.13,21.05,0.05,-1.46,0.78,5.77,-10.6,17.41,-2.54,-1.86,-1.12,-3.3,19.05,3.92,0.93,0.83,-2.39,15
-16.89,4.69,10.16,49.41,298.29,-74.51,2.7,-11.11,18.4,4.25,-2.05,1.81,-2.98,18.92,6.65,-58.64,42.77,27.44,16
-16.5,-1.0,14.15,-9.42,43.07,-8.2,2.45,-10.44,18.52,3.27,0.59,2.0,-0.64,16.97,9.18,-9.42,15.77,6.01,16
-18.95,-2.05,12.6,-3.86,4.79,-10.89,1.93,-11.0,18.35,0.78,-2.88,-0.78,0.62,17.54,10.99,1.42,-8.25,-4.93,16
-16.5,0.38,12.98,-2.39,-9.52,-8.89,1.94,-10.55,18.28,-2.78,-1.9,0.2,0.36,16.28,11.18,5.96,-0.59,-2.93,16
-18.19,-0.01,12.81,4.88,1.61,-2.93,1.78,-10.04,18.27,2.44,2.44,2.44,-0.8,16.53,10.4,5.96,-1.22,-7.23,16
-18.2,-0.48,12.31,1.95,-4.44,0.44,1.87,-10.45,18.62,2.44,-0.34,-0.05,-1.51,17.45,10.0,8.84,-9.86,-8.35,16
-18.98,-0.63,13.04,3.12,-17.68,-1.95,1.95,-11.05,18.61,-0.15,-0.68,-0.59,1.55,14.62,9.41,32.76,-49.12,-37.74,16
-14.77,-1.12,16.17,-9.33,-81.74,35.79,0.73,-11.08,18.55,-5.32,11.13,5.62,-4.97,25.41,2.57,93.95,-47.31,-64.75,16
-11.23,-0.17,16.33,-32.18,-172.85,17.87,1.78,-10.73,18.53,-2.34,-2.88,1.03,-5.77,19.19,1.97,20.95,31.3,-11.38,16
0.58,-3.15,24.39,-3.17,-67.24,17.38,2.38,-10.82,18.54,-1.61,-2.69,-0.05,-3.47,20.59,2.57,11.03,7.52,0.34,16
-3.71,-1.21,20.87,-7.72,-8.25,2.2,1.99,-10.55,18.47,-0.34,-2.0,-0.34,-4.45,19.87,2.02,8.5,-4.44,4.35,16
-3.51,-0.34,21.09,-2.05,-8.74,1.07,2.16,-10.7,18.5,-0.1,-0.98,-0.68,-4.67,19.5,1.83,2.25,11.08,2.1,16
-3.58,-0.75,21.29,1.17,6.15,1.12,2.07,-10.68,18.51,0.68,1.95,-0.24,-4.61,18.46,2.41,-6.4,8.45,2.44,16
-2.98,-0.69,21.17,-0.68,-1.81,0.15,1.85,-10.5,18.5,2.05,0.24,-0.68,-4.12,18.84,3.03,-4.0,2.88,-2.34,16
-3.16,-0.81,21.31,-0.39,-5.91,1.81,2.55,-10.36,18.78,3.17,-0.93,-0.29,-3.91,19.17,2.79,1.03,2.54,0.83,16
-2.19,-0.3,21.6,0.59,-4.05,1.76,1.96,-10.42,18.45,0.63,1.17,-0.2,-4.41,19.31,2.36,2.93,2.29,1.46,16
-2.74,-0.62,21.24,0.39,-9.18,1.51,2.03,-10.38,18.49,0.98,0.49,-0.2,-4.05,18.76,2.48,-0.1,-0.15,0.88,16
-2.49,-0.41,21.29,1.66,-2.93,1.46,1.78,-10.67,18.43,0.15,-0.39,-0.24,-4.95,18.7,2.69,1.22,-0.68,-0.59,16
-2.68,-0.35,21.3,-0.1,2.98,0.05,2.64,-7.57,19.08,-0.59,-0.59,-0.1,-5.14,19.15,2.27,1.32,4.35,0.54,16
-2.02,-0.08,21.45,2.34,-3.66,0.2,2.21,-10.25,18.44,-4.49,1.22,-0.1,-4.89,19.12,2.41,2.1,4.35,-1.17,16
-13.39,-3.58,14.29,-23.24,156.59,-18.65,-4.37,-14.83,15.46,-11.72,12.45,7.86,0.54,15.61,12.57,-23.1,0.34,13.67,17
-19.49,-0.45,15.21,4.35,38.57,4.93,-4.77,-13.53,15.49,4.39,8.79,-1.37,-1.59,16.41,11.51,3.27,5.71,-4.35,17
-20.14,-1.52,11.25,4.35,2.25,3.96,-3.28,-13.93,16.24,-1.32,-1.61,-4.83,-0.9,17.22,11.35,0.59,-1.81,-4.3,17
-18.12,-1.3,12.96,-1.71,5.76,-2.93,-4.27,-13.49,15.4,1.86,-1.32,-3.32,-1.25,17.02,11.55,2.44,-4.98,-7.81,17
-18.45,-2.44,13.3,-0.44,6.01,-5.57,-4.83,-14.24,15.13,3.91,-1.66,-3.96,-1.38,15.63,11.43,1.22,-6.15,-4.74,17
-18.71,-2.11,13.24,-0.83,0.73,1.37,-5.37,-14.99,14.45,20.8,-27.93,-19.58,-2.64,16.41,10.64,3.42,-8.25,-7.86,17
-18.21,-1.96,12.87,-1.61,-20.9,-2.39,3.16,-15.08,16.89,3.32,-71.24,-29.35,-0.14,14.63,10.82,54.39,-45.12,-34.33,17
-17.18,-1.38,13.83,-12.21,-156.15,20.61,4.71,-10.64,16.54,3.17,-31.74,-13.67,0.11,20.21,7.0,47.02,-69.78,-53.91,17
-6.18,-4.29,19.51,-28.32,-152.98,6.98,4.41,-10.83,17.75,3.03,1.9,3.61,-4.04,17.85,3.39,8.84,2.1,-5.03,17
4.04,-0.22,23.67,6.84,-60.94,11.18,5.36,-11.66,17.75,-4.0,4.25,2.69,-2.93,20.94,3.6,7.42,3.27,-2.15,17
0.14,-0.74,21.12,6.74,3.61,1.32,5.0,-13.31,17.24,-1.95,1.07,-0.1,-2.82,20.37,3.57,9.91,3.96,-2.83,17
-0.69,-3.06,23.81,8.94,27.25,0.29,4.5,-12.25,16.93,-11.72,4.54,3.42,-3.81,19.66,3.44,-0.1,5.76,-0.98,17
-0.21,-1.51,21.54,4.0,-12.26,0.93,3.92,-11.55,17.07,1.27,1.46,-1.17,-3.86,19.01,3.59,-1.32,2.39,-2.2,17
-1.51,-2.53,21.01,-0.39,-4.64,0.93,4.3,-11.81,17.07,-2.05,-1.51,-0.83,-3.77,19.25,3.89,1.37,0.29,0.05,17
-0.64,-2.57,21.29,-1.81,-5.18,0.78,4.18,-11.84,17.13,1.66,-3.17,-1.03,-3.96,19.12,3.46,1.81,1.81,-0.24,17
-0.61,-2.26,21.28,0.29,-0.88,1.27,3.86,-11.89,17.17,3.81,-1.86,-1.27,-4.49,19.24,3.1,0.54,3.91,-2.39,17
0.48,-1.75,21.57,2.2,2.59,1.22,4.29,-11.89,17.29,5.96,2.44,0.39,-4.58,19.72,3.59,0.24,8.06,-3.08,17
0.23,-1.68,21.59,0.93,1.37,1.76,4.06,-11.53,17.36,0.24,6.74,5.76,-3.45,19.51,3.86,0.39,1.86,-2.39,17
0.08,-1.49,21.41,3.56,-1.07,1.27,3.37,-11.67,17.18,-3.27,-3.17,-1.56,-4.14,19.12,3.52,0.49,2.73,-2.54,17
-0.72,-1.44,21.17,2.05,3.08,1.07,4.12,-11.95,17.13,-1.03,-0.73,-1.27,-4.34,18.96,3.23,3.08,0.68,-0.78,17
-10.79,5.89,9.24,37.74,367.53,-80.96,4.07,-17.84,16.05,-167.48,79.05,26.81,0.4,4.75,12.25,-78.27,57.03,77.39,18
-16.76,5.04,12.42,2.05,76.61,-15.43,-2.45,-15.19,14.99,-15.53,34.47,25.34,-1.81,21.81,9.71,-0.88,25.39,13.82,18
-20.32,-2.17,12.59,5.66,15.33,5.08,-3.61,-15.53,15.02,8.35,6.74,13.87,-1.4,16.1,11.74,-4.15,11.47,-2.0,18
-17.25,-0.39,12.64,4.05,-1.71,0.88,-3.86,-13.33,15.0,2.78,-0.88,-0.39,-0.88,16.51,11.88,-2.64,1.17,-2.98,18
-18.03,-2.69,12.87,2.05,-0.44,-2.25,-3.16,-16.02,14.88,0.78,1.81,-1.46,-2.56,16.57,11.61,6.01,0.68,-7.13,18
-17.71,-3.3,12.78,-1.42,-0.39,1.9,-3.76,-15.74,15.17,-1.56,-2.78,-0.05,-3.07,17.13,10.88,10.79,2.93,-5.96,18
-18.0,-1.75,11.85,4.54,-5.71,1.66,-3.82,-14.72,14.77,3.32,-2.69,-1.61,-3.34,17.08,10.6,4.98,5.96,-2.0,18
-17.45,-1.78,12.82,4.35,-6.98,1.22,-2.68,-14.83,15.19,4.49,-1.66,-4.3,-1.61,16.58,11.32,0.49,-10.25,-1.61,18
-18.36,-2.77,12.91,-1.22,-15.67,2.54,-2.69,-15.61,14.48,3.66,-9.86,-5.52,-4.46,15.31,8.8,25.49,-34.91,-17.53,18
-17.15,-0.68,15.05,19.73,-163.62,22.17,2.42,-12.53,16.39,43.51,-76.03,-44.92,-3.76,22.34,5.02,128.86,-77.39,-65.33,18
-3.4,-3.0,18.95,-44.09,-231.35,25.0,4.08,-8.58,17.44,88.67,-41.8,-9.52,-3.74,20.57,3.86,19.48,12.84,-20.36,18
5.0,-1.69,22.32,-19.04,21.14,2.83,7.25,-10.99,18.63,-19.34,-16.5,1.03,-5.47,20.98,1.46,16.16,1.17,0.24,18
1.25,-1.71,20.68,2.78,-13.18,2.54,4.37,-11.34,16.76,5.18,-7.47,-3.32,-5.57,19.71,1.81,7.76,5.76,0.34,18
-0.35,-2.39,20.72,-0.15,8.74,-0.39,4.38,-12.86,16.7,-3.61,1.37,1.76,-4.0,19.3,2.69,0.88,6.4,1.42,18
3.66,-1.6,21.64,-3.52,4.05,0.68,5.74,-11.27,17.3,-3.47,-0.44,0.39,-4.72,19.04,2.14,3.86,1.56,1.46,18
1.76,-1.49,21.3,1.03,3.37,0.93,4.74,-11.62,17.21,-4.39,1.12,1.17,-5.27,18.84,1.86,-1.07,3.47,-0.73,18
1.64,-1.94,21.21,2.83,3.13,1.61,4.76,-11.44,16.99,0.05,2.29,2.49,-5.43,19.08,2.08,-1.86,5.32,-2.39,18
1.0,-1.98,20.97,2.44,-0.78,2.0,4.49,-11.75,16.8,2.2,0.54,0.83,-4.87,19.28,2.29,3.42,2.88,0.39,18
2.36,-1.58,21.43,-0.88,-1.12,0.34,5.18,-11.3,17.23,-0.93,-0.78,-0.54,-4.74,19.02,2.29,-1.86,3.96,-2.15,18
1.58,-1.79,21.2,1.22,-4.0,1.76,5.33,-11.34,17.07,2.29,-2.25,0.0,-5.04,19.6,1.79,0.63,1.81,-2.34,18
0.97,4.28,10.62,37.84,303.22,-43.65,4.62,-18.85,9.91,-112.94,104.69,-1.46,-4.49,18.98,1.73,0.1,4.0,-2.39,19
-6.8,4.56,17.34,60.99,16.41,20.8,2.27,-16.74,16.23,5.66,17.29,19.63,-4.11,19.33,2.14,4.35,-1.22,1.42,19
-13.73,-2.57,16.48,-2.98,6.2,6.01,1.38,-17.0,16.2,-10.11,6.59,7.62,-3.99,19.18,1.94,3.76,4.05,1.03,19
-16.73,-2.1,13.5,-2.73,6.2,-0.49,-1.99,-13.51,15.16,-2.64,-0.15,-1.76,-4.1,19.45,1.22,2.29,4.69,-1.9,19
-16.49,-3.35,14.39,-1.51,0.44,-3.03,-1.72,-15.06,14.62,-0.49,4.15,0.93,-4.06,19.09,1.85,-0.39,1.07,-0.29,19
-16.37,-2.96,14.44,2.49,-2.25,0.78,-1.51,-15.68,14.71,-2.73,-1.61,2.25,-3.9,19.13,1.65,-0.0,3.71,-2.83,19
-16.55,-2.99,14.14,2.73,-2.93,2.88,-1.52,-15.3,14.9,-0.78,-2.78,1.56,-4.4,19.06,1.43,-0.2,1.32,-2.29,19
-16.6,-3.26,14.23,2.69,-2.34,2.93,-1.74,-15.16,14.79,1.56,-2.73,-0.39,-4.37,18.96,1.91,-0.29,1.37,0.63,19
-16.35,-2.56,14.43,2.59,-6.69,2.78,-1.51,-15.19,14.88,4.3,-3.08,-2.78,-4.02,19.34,1.78,1.81,3.61,1.56,19
-16.47,-3.7,15.62,-1.81,-5.52,2.98,-0.05,-16.93,14.42,4.74,-12.45,-4.05,-3.93,19.34,1.39,-0.15,3.03,-1.27,19
-15.33,-5.83,14.96,1.42,-125.83,57.23,4.36,-12.53,16.38,53.91,-96.48,-17.63,-4.02,19.67,1.53,1.07,0.49,0.34,19
-6.99,1.77,17.08,-56.35,-229.79,28.37,1.67,-8.36,16.35,52.29,-14.84,-0.73,-3.9,19.89,1.37,-0.54,2.34,-3.08,19
3.2,-1.32,22.2,0.05,-25.15,1.27,6.23,-12.16,17.35,7.08,-3.37,-6.69,-4.37,18.72,1.73,1.9,0.49,-0.93,19
2.86,-2.08,21.34,-5.52,-15.19,0.49,7.04,-12.07,16.92,-3.17,-10.89,-5.13,-4.01,19.7,1.78,4.2,2.69,-0.78,19
3.21,-2.13,21.25,5.76,-5.13,1.27,5.64,-11.13,16.28,0.24,-0.44,3.81,-4.55,18.62,1.16,0.24,2.73,-1.86,19
2.52,-2.48,20.96,5.03,-7.28,1.12,6.59,-10.72,16.81,6.59,-1.37,1.56,-4.25,19.01,1.68,-0.2,0.54,2.15,19
3.3,-2.57,20.88,-0.63,-1.56,3.71,6.62,-11.07,16.75,0.59,-1.81,2.44,-3.8,19.65,1.41,-1.07,3.66,-2.15,19
2.62,-1.77,20.76,2.0,0.1,3.03,5.98,-11.13,16.74,-1.71,-1.81,0.68,-4.39,19.14,1.24,0.98,0.83,-2.93,19
2.8,-2.86,20.78,-2.34,-4.39,-1.12,6.46,-11.59,16.6,3.03,-1.07,-1.81,-4.34,19.14,1.74,-0.49,1.95,0.15,19
3.28,-2.99,20.92,0.54,-4.3,1.51,6.75,-11.26,16.77,4.69,-1.86,0.59,-4.5,18.98,1.16,-0.29,3.86,-1.51,19
1.68,7.4,2.61,104.69,443.46,-34.03,3.99,-11.93,17.31,-1.17,-3.08,-0.93,-3.45,21.0,8.46,-4.1,32.32,-3.37,20
-18.57,2.66,8.95,63.04,92.97,7.13,3.48,-11.66,17.36,-0.59,-2.88,-0.15,-4.3,17.62,7.43,-1.12,16.26,-4.44,20
-18.78,-1.89,9.4,5.22,19.24,4.39,3.91,-11.72,17.18,-0.93,-2.69,-1.71,-3.41,18.07,8.86,-9.52,0.15,-2.98,20
-20.4,-0.16,8.32,4.2,-8.4,-8.89,3.83,-11.6,17.39,0.88,0.0,-1.07,-3.08,17.95,9.93,0.63,-9.81,-5.18,20
-19.33,-2.96,10.67,3.71,-2.83,-5.08,4.46,-11.39,17.56,-0.0,0.59,0.1,-3.01,17.89,9.7,2.69,-2.88,-2.88,20
-18.54,-2.22,10.7,-3.81,-9.81,-2.98,4.61,-11.92,17.39,1.03,-0.73,0.1,-3.19,17.35,9.01,-2.39,2.1,1.42,20
-17.94,-2.71,11.03,-4.35,-6.45,1.22,3.97,-11.42,17.25,0.54,0.88,0.98,-3.68,17.61,8.87,0.93,-2.1,-0.05,20
-18.57,-2.16,11.18,0.73,-7.23,3.03,3.95,-11.53,17.59,-1.56,0.1,0.15,-5.59,17.06,5.8,71.73,-57.52,-32.47,20
-21.24,-3.45,10.42,-3.81,-29.0,6.74,3.59,-11.62,17.11,0.59,-1.95,-0.68,-3.17,23.86,2.68,138.04,-70.41,-54.79,20
-18.5,-3.61,15.25,5.08,-102.0,25.98,4.47,-11.51,17.33,0.24,-0.93,-0.24,-5.5,16.2,0.27,4.25,13.62,2.1,20
-9.26,4.1,17.79,10.89,-159.52,16.75,4.06,-11.32,17.46,-0.24,-0.2,-0.34,-4.7,19.43,0.18,-2.39,-3.17,2.2,20
-3.94,-0.27,22.75,8.59,19.14,-0.73,4.31,-11.52,17.14,-1.27,0.63,0.1,-4.81,18.77,0.74,1.9,-8.69,-0.39,20
-4.4,-1.06,21.77,3.66,0.49,-4.74,4.05,-11.63,17.35,0.88,-0.59,1.03,-6.8,19.06,-0.75,3.03,2.93,-1.32,20
-5.19,-0.76,20.96,5.37,-4.79,3.27,4.36,-11.16,17.31,-0.1,-1.22,-0.54,-6.68,19.35,-0.82,-1.56,13.23,0.2,20
-5.09,-0.2,20.75,3.56,-2.64,-0.05,4.58,-11.67,17.43,-1.56,-2.44,-1.03,-5.52,19.36,0.36,-2.69,11.18,0.1,20
-5.04,0.01,21.18,0.98,3.22,-0.2,4.3,-11.67,17.32,-2.54,-1.51,-0.73,-4.66,18.8,0.94,1.12,-2.88,-0.49,20
-3.3,-0.12,20.99,-1.9,1.95,1.27,4.23,-11.68,17.29,-0.63,-1.12,-0.29,-6.16,18.91,-0.47,4.15,-1.51,0.44,20
-5.96,0.29,20.32,0.73,-6.25,0.63,4.75,-11.39,17.62,1.46,-1.27,-0.1,-5.7,18.93,0.05,-3.56,9.03,-0.05,20
-4.12,0.2,21.31,6.84,-1.07,-0.24,4.52,-11.18,17.5,-0.39,-0.44,0.0,-5.31,19.73,0.31,-1.17,7.18,-2.25,20
-3.56,-0.39,21.61,-1.51,-4.59,-0.15,4.45,-11.63,17.34,-0.29,-1.17,0.0,-5.16,19.21,0.47,-0.44,2.88,-2.64,20
-32.34,-1.96,-4.88,-101.71,417.09,-140.04,-1.14,-14.54,9.67,3.27,142.82,83.45,3.16,9.42,12.18,-111.08,76.95,96.83,21
-18.7,2.66,14.06,-21.58,-4.2,6.05,-6.27,-11.99,15.94,-5.32,9.52,1.07,-5.11,22.98,11.73,5.62,24.12,3.27,21
-16.94,-2.72,12.04,9.57,2.64,-2.64,-4.65,-16.48,14.84,-8.84,11.04,-0.34,-2.05,16.53,11.51,4.15,-7.67,-11.72,21
-18.04,-2.95,11.37,-1.07,-2.78,-4.05,-4.49,-16.28,14.85,-7.23,0.0,-6.54,-3.09,16.38,10.16,-0.88,-3.08,-5.57,21
-18.01,-3.03,11.94,-1.32,-5.27,-3.37,-4.01,-16.34,14.62,-4.74,-2.73,-5.47,-2.33,16.52,10.73,-1.42,-4.0,-4.39,21
-18.71,-2.19,11.59,0.73,-2.83,-1.07,-4.55,-15.36,14.67,-3.03,-2.25,-3.37,-2.2,16.97,10.62,-1.71,2.73,-2.29,21
-18.64,-2.0,11.94,5.03,-1.17,2.25,-4.36,-14.7,14.6,-0.24,-1.61,-2.29,-2.89,17.1,10.34,1.51,1.51,-2.49,21
-18.46,-2.83,11.87,3.71,-2.93,2.15,-4.06,-15.24,14.48,2.78,-2.2,-1.56,-2.87,16.58,10.66,3.17,-0.54,-0.63,21
-18.36,-3.04,11.89,2.2,-1.81,4.25,-3.71,-15.44,14.32,4.83,-1.07,-0.34,-3.05,16.46,9.6,7.86,-13.67,-2.15,21
-18.08,-5.08,13.36,-9.18,-6.79,23.54,-2.19,-18.68,14.99,10.3,-12.16,11.87,-3.45,15.96,7.01,106.93,-64.7,-37.55,21
-20.53,0.38,11.52,32.81,-105.76,52.39,-3.76,-11.15,14.77,50.05,-76.76,-29.39,0.26,26.12,2.11,108.35,-35.79,-54.93,21
-5.8,6.84,15.41,-45.75,-264.84,24.8,5.4,-13.17,19.26,25.59,-54.3,-15.92,-9.47,14.56,-1.18,0.88,10.6,-18.07,21
-3.68,3.26,20.09,25.44,17.97,-0.83,3.72,-11.73,18.19,-19.82,-11.08,-4.44,-5.82,19.79,-1.15,-3.08,-4.88,3.13,21
-2.74,0.97,20.95,-7.52,-33.06,-2.93,4.94,-10.53,18.12,-8.01,-9.91,-12.01,-5.8,19.79,-0.47,3.12,-4.98,7.23,21
1.98,-1.32,22.13,1.76,10.5,0.29,5.88,-11.75,17.32,-15.23,4.25,3.76,-5.63,19.9,-0.15,2.78,4.88,2.34,21
-2.3,-0.35,20.73,0.54,8.45,1.86,4.65,-12.25,17.35,-1.03,0.24,0.2,-5.76,19.09,-0.62,2.59,6.05,-1.61,21
-0.93,0.28,21.27,-0.15,-3.08,0.39,4.73,-10.93,17.43,-2.49,-1.42,-0.83,-6.13,18.63,-0.87,-0.59,1.86,1.66,21
-0.61,-0.5,21.62,-0.2,-2.39,-0.78,4.9,-11.22,17.45,0.34,1.42,-0.1,-6.0,18.9,-0.34,-1.56,2.05,-0.54,21
-0.98,-0.82,21.29,1.61,0.24,1.37,4.53,-11.47,17.1,-0.05,-0.39,1.03,-5.95,18.94,-0.22,3.81,2.69,0.68,21
-0.39,0.05,21.52,1.61,-4.15,2.15,5.24,-11.09,17.45,-0.93,-2.54,-0.2,-5.68,19.24,-0.81,3.27,3.22,-1.42,21
-31.56,-4.25,-1.07,-77.54,370.31,-140.38,-3.87,-15.48,15.08,0.1,-5.32,-1.17,-1.98,15.96,10.89,-9.38,4.0,-4.93,22
-20.14,-0.51,12.84,-17.24,3.08,7.08,-4.15,-15.48,15.0,-1.22,-4.35,-2.29,-2.57,16.68,9.33,0.68,-3.91,-7.81,22
-17.65,-0.83,12.23,1.46,-0.83,-3.96,-3.88,-15.41,15.1,-4.05,-2.2,-0.78,-2.43,16.45,9.98,4.64,-1.71,-5.13,22
-18.17,-2.13,11.71,3.71,1.9,-1.86,-4.05,-14.38,14.96,0.05,-2.2,-1.51,-2.15,17.09,10.29,1.27,-0.59,-2.88,22
-18.82,-2.34,11.29,-1.27,-2.59,-0.39,-4.47,-15.21,14.33,1.22,-4.88,-2.05,-2.28,17.67,10.05,3.95,-3.47,-2.0,22
-18.39,-2.18,11.95,-0.88,-2.49,0.34,-5.25,-16.5,13.11,5.37,-18.16,5.62,-3.1,17.43,9.51,8.45,-3.66,-4.35,22
-18.35,-1.44,12.11,3.22,-2.05,2.25,-2.65,-15.05,15.43,14.79,-75.93,-25.93,-3.89,16.97,8.65,1.81,-2.15,-2.0,22
-18.58,-2.02,11.7,5.71,-1.86,3.66,4.51,-12.43,19.03,37.79,-80.71,-53.12,-3.33,17.73,8.73,7.47,-10.89,8.79,22
-18.5,-2.41,11.55,-1.22,-3.08,1.27,4.42,-12.34,17.6,-7.08,-9.33,-5.03,-3.96,19.25,7.48,64.89,-23.83,-1.46,22
-18.67,-2.41,12.08,1.71,-2.93,9.91,3.63,-11.24,17.22,-17.48,2.2,-5.81,-4.29,22.55,-1.71,151.51,-63.96,-55.22,22
-19.13,-1.39,12.53,4.3,-52.15,32.13,4.42,-11.44,17.05,-2.1,1.95,-2.64,-1.7,22.17,0.84,5.13,6.1,-41.85,22
-14.1,-0.32,15.14,20.56,-164.21,32.57,4.64,-11.79,17.12,2.78,-3.08,1.46,-7.5,16.08,-1.33,-2.73,-3.22,-14.5,22
-4.99,7.49,19.86,15.09,-72.07,13.28,4.16,-11.28,17.01,-3.42,-1.9,-0.98,-7.33,17.87,-0.12,3.17,-0.73,-3.22,22
-3.73,-3.17,21.3,-73.63,-8.35,-7.71,4.99,-12.61,17.16,-2.83,-3.47,-1.86,-6.66,18.66,0.38,-0.05,8.06,-0.59,22
-3.42,1.33,21.13,-7.52,-1.42,-8.45,5.06,-11.28,17.29,3.37,-4.3,-0.15,-6.96,19.04,-0.7,1.9,5.52,1.46,22
-4.86,0.45,20.79,-2.15,0.93,0.54,4.52,-10.75,17.13,0.15,0.83,0.24,-6.99,18.45,-0.38,-0.98,1.71,4.79,22
-4.56,1.66,20.76,5.47,-0.29,1.81,4.95,-12.58,16.85,-6.74,-1.66,-3.27,-5.98,19.02,-0.19,1.32,4.59,1.86,22
-3.84,0.62,20.95,-1.17,-1.46,-0.34,5.77,-13.01,16.84,0.34,-1.42,-0.34,-6.28,19.17,-0.84,2.05,3.22,-0.39,22
-3.93,0.4,21.25,-0.54,-3.17,1.76,4.04,-11.22,16.94,3.71,-1.76,2.1,-6.62,18.26,-0.92,-5.57,0.29,2.34,22
-3.64,0.57,21.21,0.59,0.15,1.22,5.62,-11.71,17.21,0.88,-3.71,-2.54,-6.33,19.27,0.26,0.44,2.78,-0.44,22
-19.46,-1.93,10.08,4.59,-7.13,-5.76,-1.09,-12.95,13.7,36.47,21.0,24.02,-0.03,11.96,12.09,-10.79,18.41,-9.08,23
-19.18,-2.69,11.04,1.61,-3.42,-2.1,-7.68,-15.53,14.19,8.64,19.14,3.22,-3.53,18.53,8.33,12.79,5.42,-14.79,23
-18.66,-1.6,11.51,3.56,1.51,1.07,-5.63,-15.28,14.53,-6.1,-2.64,-6.4,-3.69,17.35,8.61,2.88,-2.54,-9.37,23
-19.08,-1.8,10.87,2.98,-1.9,1.9,-5.0,-15.95,14.61,-2.25,-1.07,-3.66,-3.55,16.73,10.01,2.73,-3.08,-4.98,23
-18.22,-1.9,10.87,1.32,-3.17,-0.05,-4.33,-15.54,15.18,-1.61,1.42,0.54,-2.92,17.65,9.94,2.93,2.78,-5.42,23
-18.97,-2.67,11.34,0.68,-3.12,1.37,-5.08,-15.49,14.78,-1.9,-0.15,-0.59,-2.65,17.05,9.7,1.61,1.81,-2.05,23
-18.89,-2.09,11.65,-0.68,-3.42,0.98,-5.38,-14.97,14.58,1.03,1.07,-0.49,-3.66,17.57,9.35,2.49,-0.05,-3.66,23
-19.05,-2.32,11.54,2.44,-1.61,1.37,-4.63,-15.73,14.73,-2.05,-2.69,-2.29,-3.4,17.45,9.62,1.86,2.59,-2.0,23
-18.08,-2.33,11.67,-0.49,-3.66,0.39,-4.48,-15.02,14.9,1.46,-1.76,-1.95,-2.93,17.69,9.65,-0.15,1.46,-0.98,23
-19.08,-3.64,12.48,11.13,-43.21,53.96,-4.15,-15.83,15.04,-2.25,-0.34,-0.05,-3.3,17.41,9.55,3.56,1.42,-2.39,23
-13.59,5.81,11.78,-24.51,-243.7,35.55,-4.84,-15.19,14.61,-1.32,-1.37,-2.25,-4.39,16.67,8.99,1.22,-0.29,-1.12,23
10.85,-0.13,21.31,-1.42,-90.62,10.69,-3.99,-19.7,14.89,9.03,-33.45,18.95,-6.38,16.52,6.57,113.92,-88.96,-41.65,23
-2.65,-1.11,21.39,-2.54,6.79,-6.93,-3.47,-11.13,15.09,44.87,-105.62,-29.15,-6.24,23.63,-0.32,98.19,-10.4,-28.61,23
-0.23,-1.16,21.57,-7.91,-2.39,-2.1,0.67,-10.31,19.54,53.86,-22.36,-24.12,-4.75,16.8,-0.39,21.24,13.28,18.7,23
-0.92,-0.85,21.15,-4.93,-1.71,0.39,4.14,-15.15,17.83,-25.0,-11.72,-8.15,-4.8,18.58,0.39,-7.81,8.89,-0.88,23
-0.93,-0.35,21.3,1.37,-2.54,1.03,3.94,-11.91,17.07,-8.45,-5.22,-5.52,-4.94,19.15,0.04,-2.93,0.0,0.88,23
-0.49,-0.53,21.39,3.66,-2.29,0.1,3.77,-11.65,17.04,-4.74,-3.96,0.83,-4.8,18.47,0.04,-1.51,6.2,5.57,23
-1.2,-0.01,20.95,3.56,1.76,1.37,4.9,-10.21,16.97,3.71,-4.1,-3.76,-3.44,19.85,0.66,1.9,8.06,-1.61,23
-0.98,-0.52,21.26,1.76,-2.64,1.86,4.81,-11.96,17.15,1.07,0.2,-2.93,-3.78,20.12,0.21,4.35,-0.15,-0.78,23
-0.8,-0.46,21.5,-1.22,-3.03,2.25,4.28,-12.23,17.04,-1.61,-0.2,-0.59,-4.14,19.23,-0.22,0.44,-1.07,2.2,23
-41.18,-3.82,-7.5,-68.95,510.99,-200.78,-6.56,-16.16,13.15,12.26,10.74,-1.27,-4.29,16.51,8.08,5.18,-4.83,-8.35,24
-22.32,1.2,9.58,-53.22,-26.51,-3.32,-5.37,-17.02,14.3,-2.05,-10.55,-6.69,-3.38,16.52,8.48,1.81,-9.08,-0.93,24
-20.37,-2.76,9.48,6.98,5.47,2.34,-3.53,-16.33,15.69,-1.51,-10.3,-2.88,-3.02,17.72,7.69,2.83,3.71,1.03,24
-19.26,-1.88,10.94,7.08,-3.91,4.93,-3.99,-15.2,15.25,-3.27,-5.86,-4.05,-2.3,18.06,7.74,0.29,-0.05,-3.52,24
-18.57,-1.91,12.22,6.84,-2.59,5.66,-4.22,-15.07,14.8,-3.56,-5.37,-3.52,-2.97,18.33,8.11,2.25,2.15,-3.03,24
-18.6,-1.67,11.9,1.37,-3.66,0.39,-3.99,-15.1,14.89,0.63,-3.56,-1.27,-3.0,18.46,8.12,4.83,1.32,-2.54,24
-18.33,-2.58,11.9,-3.03,-5.37,-1.03,-3.78,-15.36,15.04,0.63,-4.0,-2.34,-2.42,18.12,7.95,4.15,-1.03,0.1,24
-18.0,-2.01,12.15,-1.32,-3.37,0.83,-3.08,-15.53,15.11,-0.05,-4.98,-2.64,-2.75,18.54,7.93,4.25,1.07,-1.56,24
-18.02,-1.58,12.15,1.17,-7.86,1.95,-3.02,-15.11,15.34,1.71,-1.86,0.49,-2.09,18.69,8.09,4.74,-1.66,-0.88,24
-18.24,-1.96,12.42,-0.24,-5.57,0.68,-3.37,-15.13,15.12,1.81,-2.73,-1.56,-2.66,18.07,7.68,6.01,-4.44,0.0,24
-18.17,-1.3,12.5,0.78,-1.76,1.07,-4.43,-15.14,14.13,12.89,-19.24,-7.18,-2.44,17.47,6.71,17.09,-17.58,-0.88,24
-18.15,-1.7,12.4,2.2,-5.22,2.1,0.98,-16.26,14.67,43.6,-80.32,-22.41,-2.03,18.84,3.95,128.81,-50.63,-33.64,24
-17.77,-1.69,12.88,-4.15,-66.36,12.65,3.22,-11.41,18.0,38.77,-27.34,-20.75,-1.79,16.98,1.61,1.03,-12.99,-19.48,24
-13.32,-1.73,14.41,-1.22,-206.45,34.47,4.63,-12.09,17.73,-45.22,-1.27,-1.27,-3.9,19.49,-0.36,-3.17,2.25,1.61,24
6.78,-1.75,22.89,-17.68,-171.92,27.98,4.35,-10.86,17.22,-4.88,-1.76,-2.39,-4.5,19.62,-0.1,-2.0,5.62,0.34,24
-0.97,-2.43,19.98,-16.6,27.88,-10.6,3.97,-12.97,16.4,1.76,0.83,0.49,-4.66,19.01,-0.48,-0.83,8.79,1.56,24
1.64,-1.22,21.55,-7.28,7.32,-1.42,4.7,-11.24,17.13,-1.17,-2.93,-1.56,-4.38,19.17,-0.29,2.78,1.86,0.68,24
1.55,-0.79,19.2,14.79,7.62,3.52,5.67,-11.6,17.13,1.32,-5.13,-0.59,-4.16,19.27,-0.13,-1.66,5.27,0.2,24
0.25,-1.59,21.34,0.88,6.1,-0.39,4.72,-11.42,16.94,0.34,-2.54,-2.39,-4.24,19.01,-0.2,1.46,0.98,1.32,24
0.75,-1.69,21.22,-1.27,-7.67,0.78,5.14,-11.42,16.96,-1.47,-1.95,-0.29,-3.81,19.47,-0.28,-1.22,3.86,-0.63,24
7.61,5.08,3.13,60.55,439.79,-23.78,-7.05,-15.09,14.15,-3.47,33.01,8.3,-6.43,14.06,5.98,-90.67,41.65,-8.2,25
-17.19,4.97,10.33,70.12,79.15,-1.27,-6.64,-17.17,14.19,-20.61,16.55,2.59,-4.48,16.79,9.22,-0.1,8.89,-14.99,25
-19.03,-3.7,9.31,-1.07,18.26,-8.45,-5.5,-16.68,14.49,-16.02,-0.73,-1.17,-4.44,18.3,8.32,-0.73,6.88,-11.82,25
-19.58,-4.02,10.31,-7.32,0.78,-8.69,-6.13,-15.98,13.82,-14.16,-0.2,-1.22,-3.72,16.86,9.27,-0.93,-2.78,-12.84,25
-18.98,-3.32,9.93,-4.74,1.56,-4.35,-6.15,-15.88,13.86,-8.5,0.63,0.39,-4.98,17.41,9.3,1.42,3.03,-8.89,25
-19.47,-3.22,9.76,-3.47,1.22,-4.15,-6.4,-15.15,13.46,-0.73,2.05,0.29,-5.87,17.79,8.71,4.83,1.42,-7.47,25
-19.01,-3.24,9.9,-1.71,-0.1,-2.78,-5.64,-16.12,13.67,-2.0,-1.71,-0.05,-6.23,17.45,8.45,4.49,-2.25,-6.84,25
-19.54,-3.38,9.77,1.46,0.0,0.1,-6.46,-15.75,12.93,0.78,-3.66,-0.1,-6.74,16.87,7.64,12.99,-7.32,-8.54,25
-19.99,-3.76,9.34,-1.51,-6.25,2.29,-7.81,-16.94,11.28,32.76,-63.77,-16.75,-6.16,14.22,5.82,91.31,-52.2,-19.38,25
-19.24,-5.11,9.18,-11.77,-130.37,40.87,3.88,-12.04,17.69,41.06,-110.74,-64.5,-3.49,22.52,1.92,29.25,-43.36,-5.91,25
-5.67,2.54,15.52,-15.14,-258.01,17.77,3.36,-10.15,18.08,16.36,-27.49,-17.48,-5.75,19.57,-0.35,15.97,-9.81,12.6,25
2.33,0.38,22.63,29.2,-34.81,-2.15,5.23,-13.65,16.85,2.2,-5.27,-4.74,-6.31,19.09,-0.13,2.34,2.44,3.13,25
-0.58,-3.04,21.49,3.91,-14.11,1.32,5.1,-12.14,17.2,-0.59,-6.35,-1.42,-5.11,19.75,-0.26,1.32,5.47,-0.78,25
-0.88,-1.72,21.68,0.44,-5.13,0.93,3.91,-12.04,16.39,-2.49,-0.83,2.49,-5.81,19.11,0.23,-1.76,12.45,-1.9,25
-1.52,-2.08,20.97,-3.08,-2.15,3.03,4.49,-12.01,16.57,6.01,1.66,4.3,-5.02,19.35,0.24,1.76,4.98,-1.37,25
-0.62,-1.87,21.3,6.1,-0.05,4.79,4.47,-12.26,16.7,8.45,-1.03,1.17,-4.83,18.82,0.33,3.17,7.96,-1.81,25
-0.29,-2.23,21.2,6.74,-5.57,5.37,5.47,-12.14,16.83,6.59,-6.25,-4.64,-4.58,19.77,-0.07,7.91,3.42,-1.46,25
0.83,-2.13,21.28,3.17,-12.35,2.49,4.82,-10.73,17.15,0.54,-4.49,-1.81,-5.17,18.46,-0.73,0.83,-1.12,1.51,25
1.1,-1.19,20.92,-1.95,-9.47,0.78,5.6,-9.63,16.73,5.66,-3.22,4.49,-5.33,18.7,-0.8,3.12,3.66,1.03,25
0.46,-1.96,21.23,3.08,-3.27,3.13,5.74,-10.85,17.35,-2.0,-2.0,0.88,-5.12,19.45,-1.11,0.63,6.15,-1.86,25
-7.29,10.52,-0.52,70.51,442.48,-90.38,-3.42,-16.07,14.28,22.51,72.31,19.68,-1.77,14.52,7.18,-83.64,30.91,10.25,26
-22.9,4.25,12.6,25.83,65.04,-16.94,-1.8,-17.0,15.18,-20.65,8.15,1.9,-0.63,14.47,10.49,-16.89,12.16,-2.49,26
-16.63,-4.29,13.55,2.34,13.72,-0.59,-3.6,-14.88,14.82,-4.69,3.08,-2.54,-0.66,16.51,9.6,-6.69,-2.39,-9.91,26
-17.92,-2.4,12.67,-0.29,1.81,-5.96,-3.0,-14.75,14.88,-1.12,1.42,-4.35,-0.6,17.94,10.15,3.86,-6.49,-8.84,26
-16.89,-2.58,13.33,-4.79,-4.83,-3.17,-2.31,-16.1,15.07,-0.59,-3.76,-2.49,-1.78,17.71,9.63,10.11,1.17,-9.18,26
-17.33,-2.37,13.14,3.52,-2.44,1.81,-2.61,-15.56,15.0,-3.66,-5.76,-0.15,-2.18,17.75,8.69,6.93,1.76,-7.47,26
-17.74,-2.38,13.1,3.81,-0.88,1.81,-2.59,-15.46,15.08,-0.39,-2.64,-1.81,-2.03,17.88,9.08,6.54,1.71,-6.01,26
-17.46,-2.43,13.13,0.63,-2.0,0.78,-2.53,-15.31,14.81,0.93,-0.63,-2.34,-2.09,17.31,8.79,2.98,-1.37,-4.1,26
-17.59,-2.51,13.2,0.93,-2.44,1.37,-2.45,-15.23,15.04,-0.1,-0.88,-2.0,-2.4,17.83,8.07,3.52,-3.17,-4.98,26
-17.22,-2.57,13.48,-0.59,-6.2,0.1,-2.02,-15.82,14.88,2.59,1.22,-0.68,-2.58,17.54,7.99,26.76,-25.73,-17.77,26
-18.08,-2.62,13.54,3.12,-19.19,4.44,-2.42,-17.37,13.42,27.64,-53.56,-16.8,-3.17,18.04,3.4,135.79,-61.23,-44.09,26
-16.92,-3.69,14.21,1.56,-133.15,39.6,4.75,-12.17,18.68,39.99,-74.76,-35.25,-3.4,19.59,1.21,10.64,-20.9,-37.4,26
-1.67,3.04,18.88,-40.58,-247.02,38.33,3.42,-6.84,17.51,52.05,-22.95,-11.33,-6.71,19.12,-1.37,9.42,-1.12,5.57,26
1.9,1.25,22.66,10.25,8.84,-0.63,5.89,-11.19,17.35,-5.03,-4.49,-2.29,-5.1,18.6,-0.42,-3.27,2.93,2.49,26
1.06,-2.38,21.12,-0.73,1.42,1.17,5.17,-11.49,16.88,-2.54,-2.73,-1.42,-5.68,18.49,-0.61,1.81,-0.73,0.98,26
0.73,-2.1,21.12,-1.27,-3.66,-2.05,5.03,-11.78,16.99,-2.69,-3.47,-2.15,-5.52,18.85,-0.61,0.15,3.81,1.56,26
1.46,-2.23,21.21,-0.34,-7.67,-0.05,5.2,-11.66,16.98,0.1,-3.76,-1.22,-5.19,19.49,-0.49,0.15,5.57,1.37,26
1.93,-1.83,21.29,1.17,-9.42,0.88,6.12,-11.09,17.42,-0.15,-0.88,-0.73,-5.38,18.97,-1.04,-2.34,3.52,-1.51,26
1.74,-1.73,21.09,-0.59,5.13,1.9,5.34,-11.13,16.92,0.88,1.12,0.39,-5.33,18.9,-0.42,-0.49,2.69,-1.71,26
1.46,-1.92,21.09,-1.22,1.9,1.22,5.78,-11.56,17.02,-1.03,-0.44,-1.32,-5.19,19.11,-0.6,1.95,-0.78,-1.61,26
6.39,2.26,13.0,64.36,303.61,6.49,-5.79,-14.99,14.41,-4.54,-0.59,-6.79,-8.53,26.68,2.51,-48.1,66.21,8.94,27
-5.49,-7.8,10.97,57.23,2.44,31.84,-4.99,-16.46,13.97,-6.4,-8.5,-8.54,-4.2,16.87,9.4,-10.06,19.38,-7.52,27
-18.09,-4.88,11.41,0.93,3.76,-1.51,-4.29,-17.5,14.37,-1.12,-3.91,-0.05,-3.1,17.21,8.71,-0.54,6.59,-11.87,27
-18.93,-3.05,10.75,1.32,-2.2,-5.32,-4.48,-15.87,13.9,3.03,-0.05,1.03,-3.05,17.88,9.87,1.46,-5.66,-6.59,27
-18.63,-4.11,11.72,-2.88,-6.64,-4.64,-4.15,-15.47,14.43,-0.78,-6.01,-10.21,-2.69,16.95,10.28,4.93,-2.0,-6.25,27
-18.23,-4.03,12.34,-2.39,-1.56,0.24,-3.37,-17.6,13.8,6.1,-25.29,-15.48,-3.28,16.78,9.76,7.62,-0.83,-5.91,27
-18.41,-3.31,11.34,3.37,0.1,3.08,0.29,-16.25,14.65,51.66,-75.59,-20.7,-4.06,17.85,8.48,6.25,-5.03,-3.08,27
-18.36,-2.96,11.5,1.81,-10.21,-1.22,1.35,-10.84,17.27,22.95,-27.49,2.0,-3.07,16.41,9.35,11.62,-11.23,-2.54,27
-19.74,-4.82,12.79,-1.37,-23.63,4.2,3.91,-9.86,17.43,-1.42,4.15,-3.56,-2.79,18.79,7.58,104.1,-94.53,-76.12,27
-15.11,-4.67,14.04,4.44,-142.77,30.66,4.83,-12.07,17.47,4.2,2.15,-4.39,-4.84,20.38,1.67,49.17,1.61,-27.2,27
-0.71,0.61,19.86,-11.28,-163.33,32.03,3.3,-12.91,16.63,-7.81,-2.15,-1.42,-5.26,18.87,1.68,9.62,10.89,4.25,27
0.43,-0.2,22.56,8.74,-4.2,-5.52,4.35,-13.69,17.06,-6.25,-5.27,-5.62,-5.75,18.49,0.96,0.63,-6.93,-0.2,27
-0.37,-3.59,21.65,-2.1,-7.71,-4.0,3.58,-12.45,17.05,-6.05,7.71,2.0,-7.68,18.03,-0.3,-1.07,13.33,4.05,27
-3.0,-2.77,20.63,-7.47,7.91,-1.86,4.46,-13.38,16.68,-0.73,-0.54,-1.56,-5.2,20.24,0.64,2.59,3.22,6.49,27
-1.26,-3.07,21.91,-5.22,-3.17,-4.25,2.98,-12.33,16.27,0.73,0.0,0.49,-5.51,19.95,0.68,-1.66,3.03,-9.03,27
-1.17,-1.53,21.59,2.29,7.67,-1.86,4.79,-12.92,16.99,6.05,1.61,1.07,-5.62,19.04,0.45,8.2,-4.49,1.22,27
-2.46,-2.46,20.85,-3.76,0.83,-0.68,3.15,-12.82,16.38,0.15,3.66,3.91,-6.86,17.52,0.36,-4.1,3.27,-2.25,27
-2.47,-2.24,20.74,-0.98,0.05,2.73,2.86,-12.67,16.46,-0.34,-3.32,-2.25,-5.6,20.69,0.82,4.3,4.98,-4.64,27
-1.11,-3.5,22.06,1.9,-5.22,0.54,3.4,-12.99,16.5,2.05,-4.54,-2.93,-6.14,18.35,0.78,-2.49,3.42,-6.2,27
-1.97,-2.94,21.13,-0.0,2.88,1.22,3.27,-12.17,16.54,3.86,-0.83,3.32,-6.79,18.55,0.48,2.1,2.78,-0.2,27
-19.31,8.64,-7.04,11.28,454.88,-133.4,-0.56,-19.46,15.12,18.02,18.85,14.31,-2.91,17.81,9.42,4.25,-9.18,-12.06,28
-21.22,-2.32,12.43,-2.15,20.07,4.88,-3.85,-17.0,13.7,-5.81,2.73,-1.42,-2.41,17.22,10.23,0.63,-7.76,-7.08,28
-18.82,-4.76,11.71,3.42,0.83,0.49,-6.1,-16.55,13.63,-6.15,3.91,-1.66,-3.18,17.38,10.06,9.03,0.1,-5.37,28
-18.26,-2.62,10.87,1.22,-2.15,-1.12,-4.71,-16.05,13.62,-0.34,-0.54,-3.91,-3.38,17.3,9.21,7.13,2.98,-1.86,28
-18.11,-3.49,11.58,0.93,-3.81,-1.03,-3.98,-15.97,14.17,2.05,-0.2,0.15,-3.38,17.55,9.28,4.39,2.69,-3.03,28
-18.08,-2.96,11.6,3.03,-0.54,2.49,-3.76,-15.86,14.12,2.39,-5.37,-1.32,-4.35,16.26,8.63,26.37,-17.58,-12.89,28
-18.04,-3.2,11.82,2.39,-4.2,1.81,-3.93,-16.19,13.97,0.54,-4.88,-2.49,-4.02,19.57,4.01,164.01,-47.27,-41.36,28
-18.05,-3.72,11.99,-0.1,-7.42,1.71,-3.94,-19.07,12.98,4.69,-23.34,-5.52,-3.96,18.49,0.74,-1.56,-6.4,-27.78,28
-21.72,-6.7,12.59,-8.3,-46.97,20.95,0.13,-14.01,15.13,60.25,-90.87,-13.72,-4.98,19.49,-0.68,5.03,-0.93,1.56,28
-13.98,-1.82,14.41,10.94,-181.2,36.43,2.26,-11.12,17.87,34.33,-22.36,-9.33,-5.6,18.53,-0.04,3.42,-0.59,6.2,28
3.45,-2.47,21.61,-29.44,-159.42,35.06,2.54,-13.01,17.83,-35.84,2.34,1.22,-5.5,19.21,-0.05,0.78,2.83,1.81,28
-3.06,-1.36,20.79,-5.71,30.13,-7.71,3.66,-12.64,16.72,-3.71,-8.69,-8.06,-5.88,19.2,-0.33,3.32,2.78,0.93,28
-0.76,-2.39,21.28,-3.96,-14.94,0.24,4.0,-11.91,16.8,-1.81,-2.2,-1.95,-5.57,18.72,-0.39,0.05,3.47,3.22,28
-0.1,-2.2,21.34,-1.37,-1.37,-1.07,4.71,-12.45,16.93,-0.68,-3.17,-0.88,-5.05,19.11,-0.49,-0.34,3.22,-1.03,28
-0.31,-2.44,21.28,2.49,-1.66,1.03,4.56,-12.17,16.84,-1.9,-3.81,-1.76,-5.37,19.28,-0.4,0.63,4.0,-3.08,28
0.1,-2.6,21.28,0.05,-3.81,0.78,4.49,-11.83,16.93,0.59,-0.88,0.49,-5.93,18.68,-0.64,0.59,4.44,-1.27,28
0.4,-2.19,21.28,1.17,-1.22,1.9,4.8,-11.71,16.86,5.13,-2.49,0.63,-5.68,18.87,-0.57,1.27,-0.1,-0.93,28
0.95,-2.32,21.35,1.86,-6.88,2.2,4.73,-11.61,16.98,-1.03,-2.93,0.78,-5.75,19.53,-0.18,4.15,2.54,-3.27,28
0.93,-2.38,21.36,-0.24,-1.12,2.25,4.92,-12.01,17.03,0.73,-2.39,-1.22,-6.19,19.11,-0.51,4.15,1.12,-1.27,28
0.95,-2.38,21.28,0.39,-4.64,0.15,5.03,-11.75,17.17,4.78,0.34,2.64,-5.66,18.18,-0.39,0.49,1.12,1.07,28
-14.84,-3.28,5.7,22.22,357.62,-134.33,-4.51,-15.52,15.15,-8.5,-7.37,-5.13,-5.96,19.75,0.31,6.88,4.59,0.0,29
-21.9,-1.38,13.24,11.62,63.82,-5.42,-4.32,-14.79,14.66,-1.76,-0.24,1.51,-6.42,18.75,-0.7,-0.0,7.37,1.66,29
-16.8,-2.08,11.84,3.42,9.08,4.79,-4.1,-15.2,14.89,0.29,1.27,1.61,-5.58,19.19,0.24,-0.68,4.2,-0.39,29
-17.9,-2.95,12.77,-4.88,-7.42,-0.93,-3.71,-15.85,15.1,-0.78,0.29,-1.32,-5.81,19.1,-0.01,-0.24,5.37,-1.12,29
-18.33,-3.01,12.63,-3.66,-2.73,-0.49,-3.68,-15.93,14.61,5.32,-1.95,-2.44,-6.48,18.74,0.15,0.93,5.62,-2.73,29
-18.25,-1.9,12.5,0.1,-3.12,1.76,-2.59,-15.19,13.74,18.6,-58.35,-26.03,-6.59,18.53,-0.06,5.03,4.79,-0.49,29
-18.11,-2.04,12.91,3.08,-6.3,1.51,5.67,-11.37,18.15,54.15,-75.2,-34.47,-6.35,18.46,-0.54,-0.1,6.05,5.81,29
-17.97,-3.2,12.93,3.95,-10.11,2.05,4.53,-8.44,16.94,8.74,-11.77,2.34,-5.3,19.92,-1.01,3.37,4.98,5.22,29
-17.96,-2.89,14.29,-3.37,-110.3,19.63,3.67,-11.13,16.83,6.45,-5.57,-4.64,-4.53,19.95,0.12,-0.39,4.83,0.68,29
-3.73,-1.14,17.4,-19.68,-243.6,10.11,3.7,-12.36,16.66,2.49,-1.07,-0.93,-5.01,19.87,-0.73,-3.13,5.37,-0.78,29
0.36,0.95,22.17,6.05,11.91,2.54,4.36,-12.66,16.86,3.81,-2.83,-3.76,-5.21,19.73,-1.05,-3.27,1.22,-6.4,29
-0.76,-1.87,21.34,2.2,-11.18,-1.22,4.45,-12.29,17.03,2.25,-3.22,-1.17,-5.5,19.25,0.39,1.07,0.15,-5.91,29
-0.6,-2.88,21.41,1.32,-4.3,0.73,4.33,-12.13,16.78,2.49,-2.93,-2.34,-5.85,18.82,-0.01,6.59,-2.54,0.63,29
-0.37,-2.95,21.42,4.39,-7.57,0.54,4.69,-11.86,16.98,4.35,-0.98,-0.68,-6.1,18.61,-0.8,3.03,3.22,2.0,29
-0.38,-2.39,21.48,2.88,-5.47,1.56,4.53,-11.99,16.78,4.1,-0.59,-0.73,-5.63,19.55,-1.05,3.22,4.35,-3.56,29
-0.34,-2.53,21.35,0.29,-5.76,0.44,3.58,-11.88,16.72,4.74,-0.68,-1.71,-5.22,19.44,-0.77,1.12,0.49,-3.91,29
0.26,-2.33,21.49,3.81,-5.47,1.37,3.5,-11.19,16.79,5.81,-3.71,-1.12,-5.7,19.08,-0.49,0.2,0.54,-6.05,29
0.14,-2.42,21.35,3.08,-3.42,0.88,5.08,-10.64,17.46,7.86,-2.78,-6.98,-6.74,18.78,-0.79,-4.35,3.66,-7.57,29
-0.47,-2.38,21.01,4.35,-5.08,0.78,5.83,-11.16,17.07,0.78,-0.93,-2.98,-6.77,18.47,0.15,-1.03,1.71,-2.69,29
-0.45,-1.61,20.79,4.83,-7.37,3.91,6.73,-11.02,17.64,2.1,-5.37,0.93,-6.95,18.61,-0.39,-1.07,4.74,0.63,29
-20.47,1.73,11.41,-7.76,27.05,10.79,-6.47,-10.6,15.61,16.7,33.98,17.97,-3.01,18.19,9.23,5.22,-4.74,-5.86,30
-19.91,0.33,9.25,11.47,9.67,-0.44,-8.4,-12.59,14.28,0.98,16.55,3.86,-3.61,17.74,8.83,5.42,4.69,-3.81,30
-19.55,-2.58,10.73,0.44,-3.52,-4.49,-5.85,-15.43,14.53,-1.61,-1.56,-5.18,-3.54,17.54,7.91,4.93,-2.73,-4.59,30
-19.44,-2.91,10.89,0.2,0.34,0.05,-5.51,-15.39,14.34,-0.83,-0.39,-0.2,-3.95,17.61,8.0,4.25,-4.88,-4.74,30
-19.37,-2.65,11.17,1.03,-0.2,3.17,-5.28,-16.05,14.55,2.93,-0.29,2.69,-3.84,17.67,7.89,-0.39,1.17,-3.08,30
-19.04,-2.55,10.9,1.03,-1.17,1.22,-5.14,-15.48,14.8,1.07,-0.44,-0.15,-4.37,17.54,7.53,4.35,-10.94,-1.27,30
-19.22,-2.49,11.12,0.24,-2.05,0.63,-4.92,-15.55,14.66,-0.05,-2.05,-1.71,-4.13,16.07,4.44,116.31,-72.22,-21.34,30
-18.76,-2.22,11.13,-0.54,-3.91,-0.39,-5.04,-15.3,14.64,-1.86,-2.44,-2.05,-1.92,22.12,1.98,16.85,-52.49,-40.19,30
-18.63,-2.8,11.13,-4.44,-12.5,2.1,-4.68,-15.73,14.1,0.78,-10.25,-3.76,-6.65,19.76,-1.55,18.12,3.42,12.4,30
-20.64,-4.04,11.9,5.03,-129.0,36.08,-3.52,-15.08,13.62,46.34,-88.77,-36.67,-4.64,19.21,-1.23,1.37,6.35,-3.08,30
-4.12,2.54,14.02,-31.84,-308.4,18.6,5.14,-15.83,20.03,45.51,-68.8,-29.39,-4.93,19.3,-0.37,2.15,3.66,-1.76,30
10.65,1.14,22.2,15.97,52.59,-2.44,7.27,-9.53,17.68,-43.02,-5.27,3.03,-5.36,18.82,-0.61,0.05,0.78,-0.83,30
-1.01,-2.47,20.83,6.93,-33.01,5.76,4.25,-12.19,17.01,15.87,-1.61,-2.25,-5.7,18.58,-0.68,0.93,3.08,-1.22,30
2.93,-2.08,21.21,-6.01,-12.6,-0.1,5.3,-10.93,17.25,5.37,-2.39,-1.12,-5.78,18.3,-0.7,0.93,3.91,1.61,30
1.92,-1.99,20.94,-3.03,-5.03,0.63,5.16,-11.24,16.98,-0.93,-1.86,-1.66,-4.98,19.89,-0.98,-1.17,7.62,-2.93,30
2.11,-2.39,21.13,-0.34,-2.98,0.88,5.63,-11.36,17.01,-0.68,-3.12,-1.46,-6.01,18.77,-1.31,-2.0,2.54,-4.93,30
1.52,-1.91,20.7,0.34,-2.78,-0.2,4.68,-11.09,16.74,-1.95,-2.64,-2.44,-5.83,18.65,-0.53,2.93,-0.88,1.27,30
3.27,-2.01,21.35,3.86,-5.96,1.51,6.46,-10.93,17.22,2.0,-3.12,-1.37,-5.61,19.6,-0.65,2.1,2.93,0.1,30
2.69,-0.95,21.02,3.95,3.27,2.39,5.47,-10.22,17.26,-0.54,2.15,2.1,-5.71,18.9,-1.06,1.61,4.93,-2.93,30
2.42,-2.38,20.79,-3.76,-4.1,-0.49,5.45,-11.36,16.88,-2.1,-3.32,-2.78,-5.94,18.63,-1.11,-0.2,2.2,-0.78,30
-2.3,9.65,4.02,85.35,457.76,-30.37,-6.72,-14.46,14.97,-9.03,-2.34,-9.57,-6.45,16.94,2.54,-29.15,51.51,5.52,31
-13.15,-0.56,10.04,55.52,78.22,-5.52,-6.39,-14.32,15.0,-1.17,-4.69,-4.88,-5.22,17.32,5.2,-6.4,4.79,-5.52,31
-20.14,-2.35,9.15,-4.93,3.71,-4.93,-6.34,-14.48,14.95,1.32,-0.54,-1.32,-4.17,17.41,7.07,-3.22,-1.22,-5.13,31
-19.04,-1.66,10.76,0.05,-1.17,-6.64,-6.02,-14.25,15.17,0.68,-1.86,-0.78,-3.52,18.29,7.5,3.42,-4.59,-1.61,31
-19.63,-0.82,10.19,2.73,-4.74,-0.63,-5.98,-15.09,14.94,-2.54,-2.34,-3.27,-3.9,18.78,6.69,2.49,0.34,-3.37,31
-19.65,-0.84,10.16,3.17,-3.91,1.42,-6.1,-14.76,14.83,-0.29,0.98,0.83,-4.43,18.87,6.47,5.96,2.88,-3.52,31
-19.24,-1.14,10.41,1.03,-0.2,1.56,-6.3,-15.23,14.7,-3.47,-3.08,-1.03,-4.5,18.29,6.69,2.39,1.07,-3.27,31
-19.27,-1.65,10.6,-0.24,-2.34,-0.83,-6.63,-16.87,13.88,12.01,-8.98,10.6,-5.02,18.45,6.19,4.69,-0.24,-5.08,31
-19.27,-1.33,10.15,1.46,0.63,0.93,-3.0,-9.6,16.59,48.24,-101.22,-39.7,-4.98,17.59,6.18,5.32,-8.89,-3.08,31
-19.03,-2.19,9.93,-2.15,-0.83,0.83,0.68,-11.38,18.51,52.2,-43.85,-18.95,-3.81,16.12,4.51,72.46,-52.98,-29.0,31
-20.01,-3.26,11.09,-2.05,-6.79,18.12,4.6,-11.71,18.74,-28.42,-16.21,-14.7,-7.29,27.41,-3.5,124.41,-42.58,-42.24,31
-20.0,2.14,10.66,25.54,-172.51,48.73,4.07,-12.71,18.16,-8.74,-6.15,-6.05,-8.81,16.41,-2.47,6.59,30.96,0.39,31
-4.36,2.44,17.08,-83.35,-238.92,36.67,3.0,-11.22,17.92,-5.57,1.17,1.37,-5.65,20.56,-1.73,14.55,-2.73,9.57,31
-1.66,0.16,22.43,-1.37,15.14,-11.77,2.07,-11.12,17.58,-1.27,0.29,-1.66,-6.35,20.36,-2.37,3.71,4.0,0.15,31
-0.74,-1.12,21.73,-3.86,-6.35,1.32,3.18,-11.18,17.59,0.59,-2.25,-2.1,-6.37,18.93,-3.09,-1.86,5.91,-3.27,31
-1.07,0.17,21.66,1.76,5.27,0.39,3.39,-10.72,17.75,2.2,-2.93,-0.68,-7.53,18.04,-2.29,-2.3,2.1,2.25,31
-2.76,0.36,21.0,-3.71,-0.98,-0.88,3.57,-11.09,17.71,0.88,-2.78,-2.34,-6.57,18.19,-1.77,-2.3,2.29,-0.59,31
-1.54,-0.19,21.46,-1.47,-4.35,-0.44,3.9,-11.44,17.7,-0.29,-0.73,-0.24,-6.72,18.62,-2.48,-0.34,3.42,-2.88,31
-1.45,0.39,21.42,2.39,-5.76,2.29,3.91,-11.02,17.83,1.22,-1.51,0.59,-6.38,18.68,-2.02,2.05,0.29,0.49,31
-1.57,-0.22,21.3,-0.05,-4.59,-0.1,3.33,-11.08,17.63,-3.17,-0.44,-0.63,-6.64,18.74,-2.06,2.88,1.03,-0.05,31
-38.04,-21.24,15.78,-63.97,99.37,-47.71,-5.83,-15.49,14.88,-3.27,-2.0,-4.64,-3.9,18.57,7.34,6.1,-9.67,-6.2,32
-22.81,-2.62,10.44,4.05,21.48,-12.35,-5.45,-15.65,14.59,-1.76,-3.27,-3.37,-3.53,17.9,7.81,5.08,-3.76,-3.37,32
-19.41,-1.17,9.86,5.37,-0.73,-5.62,-4.93,-15.22,15.02,-1.95,-3.37,0.29,-3.84,18.25,7.1,2.83,0.68,-4.83,32
-19.14,-2.21,10.94,4.59,1.07,-1.81,-5.79,-14.79,14.59,-0.88,-3.08,-3.17,-4.05,18.3,7.04,1.37,4.69,-1.71,32
-19.47,-2.03,10.56,2.25,-2.73,1.66,-5.59,-15.12,14.41,-0.2,-3.66,-2.64,-4.16,18.52,7.19,3.71,0.05,-2.39,32
-19.35,-2.13,10.72,2.2,0.54,0.73,-5.42,-15.45,14.62,0.98,0.44,-0.44,-3.8,17.85,7.17,2.05,-2.73,-2.2,32
-19.2,-2.06,10.9,-2.83,-4.59,-0.78,-5.35,-15.02,14.5,0.44,-3.47,-2.1,-3.89,18.1,6.72,8.11,-2.0,-6.98,32
-19.1,-2.56,10.95,0.98,-3.12,0.63,-4.16,-17.31,14.21,25.54,-39.45,-19.73,-4.73,18.0,3.65,111.47,-62.45,-42.82,32
-18.86,-2.29,11.05,0.98,-3.12,1.95,0.52,-12.25,17.9,43.8,-77.44,-26.95,-5.56,23.01,-0.58,63.04,-36.52,-36.08,32
-19.46,-2.4,11.14,-1.12,-7.57,2.44,0.72,-10.7,18.69,36.47,-18.8,2.44,-7.99,19.01,-3.36,7.23,12.11,-18.85,32
-18.94,-3.07,12.14,15.82,-94.92,29.39,1.35,-12.88,17.95,-13.13,-8.84,-6.79,-8.19,17.74,-3.03,-10.84,7.71,2.34,32
-8.97,2.64,16.64,11.62,-173.78,27.05,2.77,-12.04,17.75,-9.33,-0.54,-4.39,-7.37,19.44,-1.42,0.1,4.54,0.24,32
1.5,-1.27,23.29,-16.6,-79.74,15.33,3.73,-12.83,17.66,-13.62,-0.44,3.42,-7.84,18.61,-2.37,2.49,0.88,-0.44,32
-3.52,-1.06,21.06,-1.17,-8.06,-12.16,1.68,-11.96,17.41,-3.47,-1.27,-0.29,-8.03,17.99,-1.94,0.39,5.32,-3.08,32
-2.17,-1.36,21.58,-7.28,3.08,-2.05,2.56,-12.18,17.48,3.32,-1.17,-2.69,-7.32,18.41,-1.38,1.37,-1.9,0.93,32
-2.8,-0.7,21.24,-0.2,3.37,1.17,2.98,-12.19,17.66,1.27,-3.96,-1.46,-7.72,18.55,-2.27,5.18,1.12,-1.37,32
-3.62,-0.69,20.97,-1.12,-2.25,-0.34,2.55,-11.75,17.77,-1.9,-1.22,-0.54,-8.38,18.16,-2.57,-0.93,2.88,-1.86,32
-2.42,-0.82,21.3,0.88,-6.1,0.44,2.6,-11.76,17.59,-0.39,-3.22,-4.49,-7.42,18.65,-1.94,0.63,1.56,-1.81,32
-1.86,-0.81,21.71,1.71,-3.08,2.0,2.55,-11.82,17.26,-2.3,0.15,-1.07,-8.4,17.79,-1.35,0.15,3.27,-4.3,32
-3.13,-0.23,21.26,0.1,-3.47,0.44,2.41,-12.14,17.41,4.3,-4.98,-3.52,-7.97,18.11,-1.8,3.32,3.91,2.2,32
-2.17,-0.82,21.44,3.32,-6.01,2.1,2.77,-12.39,17.03,-0.59,0.05,-0.59,-7.42,18.77,-1.98,0.34,4.15,-0.73,33
-1.58,-0.37,21.53,0.05,-2.93,3.22,3.05,-13.31,16.86,-3.86,0.54,-0.34,-8.45,17.56,-2.59,-2.44,1.12,-2.59,33
-2.71,0.02,21.08,-2.44,4.0,-0.63,3.46,-11.92,17.37,3.12,-3.76,-0.68,-7.75,18.9,-1.24,3.76,-0.15,-0.2,33
-1.39,-1.55,21.78,-1.37,-2.78,-0.2,3.8,-11.1,17.9,3.86,-1.61,1.32,-8.33,18.05,-2.27,-1.71,4.25,-4.54,33
-2.49,-0.22,21.33,0.59,0.59,1.71,3.55,-11.42,17.56,-1.22,0.44,-0.83,-8.35,17.6,-1.8,-0.39,-0.63,-0.39,33
-2.34,-0.65,21.24,-1.95,-1.07,-1.56,3.82,-11.92,17.43,-0.0,0.39,-0.15,-8.42,18.2,-1.44,-0.05,2.44,-1.51,33
-2.04,-1.33,21.56,-0.68,-1.66,0.44,2.84,-11.31,17.49,-0.34,0.98,1.12,-8.45,17.97,-1.76,-0.83,3.66,-2.15,33
-2.25,-0.63,21.28,1.22,-1.9,1.61,3.64,-11.75,17.49,-1.22,-0.88,-1.12,-8.39,18.44,-1.89,0.98,1.86,-1.22,33
-1.86,-0.43,21.34,0.05,-0.78,0.63,3.75,-12.13,17.35,0.15,-0.44,0.49,-8.46,18.33,-1.66,1.71,0.83,-0.88,33
-2.12,-0.72,21.44,0.49,-0.93,0.54,3.11,-11.45,17.63,-1.17,0.73,0.83,-8.41,18.4,-1.72,2.54,1.66,-1.22,33
-1.85,-0.66,21.58,1.03,-1.03,0.98,3.53,-12.18,17.3,-1.03,-2.1,-1.71,-8.76,18.03,-2.12,0.2,1.42,-2.83,33
-2.06,-0.33,21.35,-0.2,-0.05,0.88,3.88,-11.77,17.59,1.46,-1.03,0.83,-8.72,17.98,-1.45,-0.34,-0.15,-2.44,33
-2.28,-1.05,21.38,-2.1,2.29,-0.73,3.33,-11.38,17.57,-0.29,-0.39,-0.98,-8.76,17.94,-1.51,-0.54,1.51,-2.15,33
-2.44,-1.03,21.34,0.15,0.83,0.98,4.01,-12.15,17.26,-0.54,-1.56,-1.03,-9.09,17.73,-1.62,0.63,1.32,-1.42,33
-2.82,-0.93,21.19,-0.49,0.34,0.29,3.51,-11.59,17.55,0.63,0.24,1.07,-9.13,17.82,-1.36,1.95,2.49,0.83,33
-3.01,-1.33,21.21,1.07,-3.03,0.59,3.43,-11.54,17.49,-0.98,0.59,-0.39,-9.11,17.87,-1.53,0.83,4.1,1.32,33
-2.28,-1.49,21.44,1.51,-4.83,2.39,3.09,-11.98,17.2,-0.1,0.15,-0.59,-8.52,18.32,-1.68,1.27,5.47,1.17,33
-1.68,-1.0,21.58,2.49,-5.08,3.66,3.25,-11.99,17.32,1.95,-1.37,-0.59,-8.55,17.86,-2.36,-0.39,2.64,-0.68,33
-1.39,0.31,21.46,4.25,-3.66,3.47,3.67,-11.52,17.6,1.95,-2.39,-0.59,-8.48,18.04,-1.43,0.15,-0.68,0.39,33
-1.81,-0.73,21.35,-1.95,-0.93,-1.51,3.94,-11.17,17.7,-0.15,-0.59,-0.2,-8.45,18.15,-1.52,0.93,3.13,-2.2,33
-8.6,10.47,2.3,38.67,414.16,-71.53,-11.82,-16.0,12.77,-29.74,63.18,23.83,-5.88,18.29,5.63,1.32,2.15,-0.93,34
-27.12,4.29,6.38,52.78,71.04,-8.35,-7.87,-16.13,13.17,-23.44,2.93,-5.62,-6.08,18.03,5.65,1.51,-8.54,-1.71,34
-20.41,-2.54,8.79,0.15,6.69,-5.08,-8.76,-14.57,14.65,-5.18,0.88,-4.15,-7.84,16.61,3.21,44.87,-44.43,-15.09,34
-20.05,-1.27,8.13,4.3,-4.15,-7.62,-7.7,-15.02,14.3,-2.54,-0.73,-9.03,-5.7,21.14,0.04,162.45,-104.0,-16.6,34
-19.94,-2.08,9.14,0.88,-2.98,-1.07,-7.47,-14.86,14.33,1.32,-2.49,-0.39,-7.29,16.41,0.2,-7.08,0.83,-16.36,34
-20.32,-1.68,8.26,1.95,-1.42,1.76,-7.37,-14.59,14.5,0.34,-2.83,-2.1,-7.22,19.41,-1.9,1.37,11.52,0.15,34
-20.31,-1.33,8.67,3.61,-1.86,0.68,-7.3,-14.53,14.47,-1.32,-5.57,-3.86,-7.79,18.12,-1.81,0.98,4.93,6.49,34
-20.23,-1.6,8.78,2.29,-3.47,-0.39,-7.86,-15.01,13.85,-0.05,-3.76,-4.1,-7.55,18.59,-1.65,-3.96,8.74,-2.78,34
-20.05,-1.9,8.93,0.15,-7.42,1.81,-7.48,-16.39,13.88,20.26,-26.71,-11.47,-7.44,18.58,-2.06,-4.35,8.15,-6.05,34
-21.89,-1.39,8.62,25.24,-115.14,23.78,-2.15,-12.99,16.96,48.24,-107.47,-60.89,-8.07,18.06,-1.3,-1.66,2.83,-2.69,34
-8.63,5.37,12.93,-2.3,-267.92,12.11,1.95,-12.67,17.79,9.96,-20.07,-12.79,-7.8,18.69,-1.34,3.86,2.69,-0.44,34
3.02,-2.86,22.18,2.05,-57.28,0.05,2.5,-13.27,17.72,-13.04,-6.84,-3.08,-7.75,18.32,-1.64,2.44,1.17,0.15,34
-3.46,-2.6,21.25,-2.78,0.73,-1.42,2.76,-12.2,17.22,-1.32,-11.08,-8.25,-8.01,18.28,-1.69,-1.66,4.35,-0.73,34
-0.43,-2.41,21.9,-4.1,-4.15,-2.88,3.56,-12.69,17.07,-1.86,-3.08,0.59,-7.5,18.61,-1.16,1.9,2.49,-1.37,34
-1.78,-2.11,21.52,1.81,0.73,2.2,4.26,-11.54,17.59,-5.62,2.44,2.49,-8.13,18.17,-1.99,0.98,1.9,1.03,34
-1.93,-1.27,21.38,-2.69,4.93,0.2,2.49,-12.08,16.95,-5.47,-0.29,-1.46,-7.48,18.79,-1.51,1.03,2.2,-2.25,34
-3.06,-1.85,21.15,-3.76,1.61,-1.61,3.07,-12.72,17.09,-0.24,0.59,0.93,-7.68,19.0,-1.43,2.34,3.37,-1.17,34
-2.81,-1.43,21.36,0.39,0.63,1.17,2.92,-12.35,16.95,-0.24,1.03,0.29,-7.67,18.58,-1.6,1.27,2.34,-1.71,34
-2.3,-1.47,21.29,0.2,-0.68,0.88,3.09,-12.39,16.93,-1.9,-2.05,-1.32,-7.62,18.36,-1.29,3.52,0.78,-0.39,34
-2.23,-2.09,21.47,-1.81,-1.32,-0.34,2.87,-12.45,16.93,-0.98,0.44,1.71,-8.22,17.62,-1.98,-0.34,3.27,-1.9,34
-18.87,-2.88,8.61,-0.83,-9.08,-5.76,-20.12,-6.71,12.8,109.47,149.56,25.49,-6.8,18.46,-0.56,-4.39,4.74,2.69,35
-19.74,-2.44,9.16,-1.03,-4.59,-2.15,-6.9,-15.0,13.64,-18.85,-0.68,-13.82,-6.54,18.68,-0.2,0.83,8.79,1.32,35
-19.97,-2.14,8.8,1.12,-3.76,0.93,-8.65,-14.79,14.44,1.37,-4.79,-12.65,-6.13,18.68,-0.32,2.1,-1.22,0.88,35
-20.26,-1.84,9.19,2.15,-5.71,0.0,-7.61,-15.19,14.33,-3.91,-1.76,-4.98,-7.06,18.16,-0.29,1.71,3.08,1.66,35
-19.67,-2.19,9.51,1.22,-2.25,0.73,-7.71,-15.07,14.01,-1.12,-3.76,-2.83,-6.28,18.81,-0.45,4.15,2.98,1.76,35
-19.43,-1.64,9.94,3.08,-9.72,2.39,-7.47,-14.89,14.02,0.59,-3.76,-3.91,-6.6,18.82,-1.28,0.2,1.71,0.24,35
-22.04,-3.06,11.12,-3.96,-91.16,15.97,-7.18,-15.08,14.24,-0.1,-1.07,-2.34,-5.83,19.08,-1.02,0.73,2.83,0.05,35
-12.81,1.72,13.38,15.62,-218.95,27.29,-6.72,-15.02,14.39,1.95,-5.32,-4.59,-7.29,18.19,-1.14,-5.27,3.91,-6.59,35
2.15,-3.47,23.47,-8.94,-94.68,10.16,-6.1,-16.58,14.07,22.27,-45.17,-15.87,-6.12,19.31,-0.23,4.0,-2.59,2.98,35
-3.66,-2.57,21.59,-4.39,-2.15,0.88,-2.74,-9.82,16.85,49.37,-77.83,-28.37,-6.96,18.45,-1.26,0.54,4.93,-3.76,35
-3.45,-2.04,21.1,-1.56,-6.98,-1.27,0.33,-12.29,17.18,22.8,-34.33,-19.58,-6.65,18.27,-1.07,1.66,-0.44,1.32,35
-3.57,-1.96,21.35,1.61,0.88,0.39,1.8,-12.15,17.45,0.78,-5.96,0.34,-6.48,19.14,-0.7,0.05,3.08,-1.61,35
-2.9,-2.01,21.27,-0.73,-2.1,0.63,1.4,-12.53,17.17,-1.32,-5.37,-4.88,-6.71,18.15,-0.9,-2.34,1.9,-2.44,35
-3.39,-1.7,20.57,6.45,1.17,2.88,1.71,-12.68,17.37,-0.39,-0.34,-0.1,-6.63,18.63,-0.16,1.56,2.15,0.83,35
-2.66,-1.25,21.56,1.12,-2.93,2.49,1.93,-12.77,17.22,-2.3,-2.88,-1.66,-6.85,18.87,-0.92,2.05,6.1,-2.59,35
-2.35,-0.84,21.13,1.76,-3.08,1.17,1.2,-12.03,17.09,5.76,-3.22,-0.88,-6.31,19.02,-1.06,3.42,0.0,3.71,35
-1.9,-1.44,21.9,3.37,1.46,1.32,2.25,-12.02,17.64,-0.49,-2.98,-0.29,-6.49,19.01,-0.86,2.1,4.59,0.2,35
-4.32,-1.97,20.96,-4.15,-1.56,-2.93,2.31,-12.23,17.38,-2.25,-0.54,-1.32,-6.3,19.12,-0.96,1.17,1.81,1.66,35
-3.21,-2.23,21.51,1.12,3.81,1.42,2.92,-12.33,17.83,1.76,4.39,3.08,-6.27,18.58,-1.07,0.34,1.71,-1.03,35
-3.78,-1.25,21.15,2.78,1.12,2.88,1.59,-12.59,16.95,-3.37,-2.69,-4.05,-5.88,19.29,-0.66,0.24,0.63,-1.32,35
-8.26,7.29,-2.37,66.11,437.94,-89.36,5.21,-21.73,12.57,-67.48,139.7,85.01,-4.01,10.84,7.74,-112.3,20.95,5.52,36
-25.25,1.19,9.71,-7.47,54.69,-8.84,-7.82,-14.87,15.0,6.1,29.64,21.39,-3.56,18.99,8.16,2.29,7.76,-7.08,36
-20.11,-1.09,10.11,2.78,3.71,-2.93,-7.02,-13.85,15.17,-6.01,1.95,-0.68,-3.93,17.93,7.27,1.95,4.05,-7.57,36
-19.16,-0.91,9.77,0.05,-5.13,-6.45,-6.93,-14.54,14.55,-10.4,-3.81,-8.45,-3.67,17.78,8.72,2.15,-6.98,-6.15,36
-20.05,-2.7,10.28,-0.15,0.29,-2.78,-6.62,-15.39,14.41,-3.27,1.42,-1.46,-4.65,17.81,8.0,7.62,-0.24,-6.84,36
-19.43,-1.72,10.04,-0.29,-0.78,0.34,-6.74,-14.95,14.61,-3.03,-2.69,-0.93,-4.71,17.63,7.48,3.12,-1.95,-4.25,36
-18.91,-1.91,10.23,0.59,-5.86,-0.54,-6.3,-15.21,14.41,-2.2,-3.66,-3.08,-4.97,17.91,7.25,7.57,-9.86,-5.08,36
-19.05,-1.83,10.55,2.69,-9.62,1.32,-6.01,-14.96,14.6,1.03,-3.27,-5.71,-5.34,18.07,6.83,13.96,-23.24,-11.23,36
-20.27,-2.41,11.06,4.59,-14.45,3.27,-6.55,-15.54,13.94,6.49,-11.52,-5.96,-5.86,16.0,4.34,84.62,-49.51,-23.19,36
-18.88,-2.33,12.09,1.56,-124.9,39.55,-1.52,-18.91,15.04,33.89,-81.84,-18.16,-6.22,25.19,0.49,68.75,-13.09,-17.87,36
-5.6,0.54,15.53,-25.49,-268.21,51.51,0.28,-8.18,18.16,16.45,-65.38,-29.35,-7.35,17.36,-1.43,15.48,2.88,6.98,36
-0.95,0.94,22.27,3.17,34.57,-2.93,1.57,-10.18,17.84,-22.66,1.95,1.61,-7.14,18.48,-2.69,-3.22,14.16,2.15,36
1.04,-1.12,21.93,-2.44,-4.44,0.49,3.07,-11.34,18.27,-7.08,0.93,-1.76,-6.84,18.19,-1.72,-4.69,3.56,-0.34,36
-1.31,-1.2,21.49,-0.29,3.47,-2.98,1.92,-11.94,17.75,-6.88,1.76,-0.88,-6.23,18.49,-0.59,-0.78,0.98,2.44,36
-1.75,-2.25,21.09,-0.63,-6.54,1.12,2.7,-11.94,17.55,2.59,-5.47,-2.2,-6.13,18.77,-1.2,1.81,0.1,2.05,36
-1.58,-1.4,21.38,0.15,-1.51,0.98,2.48,-11.62,17.54,0.2,-1.27,0.05,-5.85,18.68,-1.53,1.81,2.34,0.29,36
-1.51,-1.26,21.37,0.93,0.34,0.73,2.47,-11.87,17.43,-1.12,-0.2,0.0,-6.03,19.16,-1.59,1.42,1.86,-0.15,36
-1.43,-1.41,21.37,0.15,-0.05,0.44,2.59,-12.07,17.63,-0.29,-0.44,-0.78,-5.56,19.15,-1.87,3.52,1.95,0.2,36
-0.53,-0.59,21.75,2.25,-2.49,1.95,3.65,-11.34,18.04,0.05,0.2,1.32,-5.96,18.76,-1.93,-1.17,0.98,-4.35,36
-1.77,-0.8,21.36,-1.61,3.52,0.73,2.58,-11.61,17.52,-3.13,1.66,1.12,-7.05,18.48,-1.32,-3.27,1.32,-3.42,36
-18.01,0.08,1.47,-41.94,359.62,-85.06,-6.64,-14.46,14.21,-2.73,-3.76,-7.37,-3.38,21.88,5.78,-8.69,10.06,-2.44,37
-22.84,-1.0,8.2,-21.14,32.32,-16.21,-6.93,-15.11,14.16,-4.44,-8.64,-6.74,-5.67,19.11,6.18,0.29,-2.49,-5.13,37
-20.45,-1.91,9.15,4.49,-0.78,-5.47,-7.18,-15.23,14.42,-0.83,-1.95,-3.17,-4.81,18.09,6.73,0.93,-4.3,-2.1,37
-19.82,-2.67,9.75,-0.63,-4.15,-2.54,-7.08,-15.02,14.13,1.61,-0.24,-1.76,-4.65,18.49,7.01,2.25,3.52,-3.61,37
-19.49,-1.92,9.67,-0.29,-1.86,-0.54,-6.29,-15.36,14.45,-0.78,0.15,-3.81,-4.85,17.95,7.01,1.9,-2.05,-2.49,37
-19.42,-1.8,9.78,1.61,-5.76,1.32,-6.32,-15.19,14.56,0.54,-3.03,-3.12,-4.65,18.02,6.97,3.71,-6.59,-2.34,37
-19.6,-2.23,10.25,3.47,-3.08,-0.44,-7.29,-17.49,13.39,20.95,-43.65,-15.38,-5.47,17.86,6.03,6.45,-8.5,-3.81,37
-19.48,-1.96,10.16,2.34,-4.25,0.78,-4.54,-13.4,15.7,33.35,-77.34,-24.41,-6.66,15.18,3.53,112.74,-75.24,-21.34,37
-21.1,-4.86,11.34,12.06,-83.59,33.84,0.5,-12.36,18.33,16.36,-12.6,-2.93,-2.28,22.44,2.4,41.94,-15.28,-9.47,37
-10.59,0.59,14.72,-14.99,-168.75,37.35,1.98,-11.89,18.29,-10.6,-4.0,-3.42,-7.45,16.82,-2.8,-2.64,9.67,-2.98,37
-4.63,-0.04,20.42,-28.47,-117.14,16.94,2.25,-12.97,17.62,-6.4,-5.71,-5.08,-6.01,19.45,-1.81,1.56,-2.05,1.9,37
-4.24,0.05,21.06,-11.77,9.86,-4.15,1.94,-12.18,17.35,-0.59,-1.32,-0.44,-6.63,18.67,-1.43,-2.15,0.68,0.05,37
-3.59,-1.69,21.47,-7.57,-1.46,-3.08,2.03,-11.58,17.62,0.44,-1.86,0.44,-6.86,18.97,-2.06,0.59,5.71,-3.76,37
-3.64,-0.92,21.19,-0.29,-3.52,1.66,1.81,-12.18,17.3,-2.2,-0.78,-1.81,-7.08,18.68,-2.13,1.07,3.22,-1.03,37
-3.81,-0.43,21.12,0.93,-1.81,1.12,2.32,-12.33,17.41,1.07,-0.88,-0.1,-6.89,18.88,-1.57,-0.68,5.62,-0.15,37
-3.65,-1.09,21.16,-1.47,-2.1,0.15,2.93,-11.82,17.76,1.61,-3.86,-1.76,-6.56,18.52,-1.75,0.34,4.2,-0.2,37
-3.43,-1.08,21.32,1.71,-3.37,1.32,2.32,-11.54,17.6,-2.49,1.46,2.1,-6.46,19.28,-1.85,4.44,1.61,-3.03,37
-2.47,-0.88,21.64,0.63,-4.05,0.34,2.1,-12.08,17.41,-1.37,0.05,-0.44,-7.13,18.4,-2.05,-1.61,3.52,-3.08,37
-3.12,-0.53,21.19,-1.22,2.49,1.03,2.01,-12.15,17.32,0.2,-0.05,0.73,-6.87,18.26,-1.51,-6.49,7.71,-3.81,37
-3.12,-0.98,21.23,-0.88,-0.59,0.49,2.48,-12.36,17.46,-0.78,-1.81,-1.46,-7.36,18.6,-1.39,2.69,4.83,-1.71,37
-29.17,4.07,-3.03,-74.51,351.86,-107.62,-4.92,-16.3,13.72,-19.24,28.47,10.21,-6.68,18.23,-2.65,-1.71,6.4,7.37,38
-20.94,-0.46,9.97,-13.72,25.88,1.71,-8.67,-16.12,13.33,-1.47,14.79,0.2,-6.73,19.07,-1.79,0.1,7.23,-3.32,38
-19.13,-1.96,8.41,7.47,0.0,-0.1,-8.98,-14.62,13.41,-7.96,0.24,-8.54,-7.23,18.63,-2.67,2.44,2.88,-0.44,38
-19.63,-1.95,8.7,1.9,-10.4,-5.86,-6.37,-15.83,14.38,-3.27,-5.66,-6.25,-6.72,18.83,-2.71,0.63,1.27,-0.24,38
-20.01,-2.97,9.05,8.64,-7.96,-3.27,-6.63,-15.4,14.19,-3.32,-2.93,-3.52,-6.7,19.16,-2.37,0.49,2.39,-1.51,38
-19.37,-3.26,10.31,0.59,-3.61,-0.39,-7.09,-15.33,13.9,-0.54,-6.54,-2.0,-6.88,18.58,-2.47,1.17,2.0,-1.81,38
-18.58,-2.31,10.02,1.12,-9.86,2.59,-6.19,-15.72,14.37,1.22,-6.15,-2.34,-7.19,17.97,-2.18,-0.1,0.15,1.76,38
-19.11,-2.31,10.59,1.66,-5.27,2.88,-6.4,-15.12,14.31,2.78,-2.39,-0.05,-6.75,18.45,-2.22,0.49,1.76,-0.68,38
-18.58,-1.85,10.59,1.76,-2.1,2.93,-6.31,-15.41,14.28,2.44,-2.2,-0.24,-6.89,18.88,-2.22,1.56,4.88,-0.24,38
-19.72,-2.72,10.43,2.49,-4.3,4.74,-7.34,-17.8,12.23,14.21,-26.46,-2.29,-7.41,18.92,-2.46,0.44,6.3,-2.0,38
-21.52,-5.23,10.48,-1.86,-84.28,52.0,-0.67,-14.16,17.11,53.81,-102.39,-20.7,-6.76,18.58,-2.58,1.07,1.9,0.83,38
-9.23,1.61,14.47,-32.37,-273.1,45.61,-0.92,-5.41,18.95,34.13,-21.83,-10.4,-6.65,18.29,-2.15,-1.37,0.68,-0.63,38
3.22,3.92,21.6,1.17,43.95,-3.66,2.43,-12.18,18.74,-7.67,-8.89,-5.47,-6.8,18.35,-2.18,2.78,1.46,-0.98,38
-0.58,-0.22,21.6,-4.44,-19.48,-0.15,1.9,-12.03,18.15,-9.18,4.15,0.49,-6.92,18.63,-2.22,1.32,2.39,-0.88,38
-2.89,-0.86,21.15,0.49,10.79,0.98,1.71,-10.86,17.84,-1.81,-1.42,-0.29,-6.48,19.07,-2.14,2.69,0.93,-0.49,38
-2.62,-0.02,21.18,-0.59,-5.27,-0.1,2.16,-11.3,17.92,-0.2,-3.47,-3.61,-6.61,18.56,-2.39,0.44,1.66,-2.44,38
-1.14,-0.29,21.79,-0.49,-2.05,-1.95,2.25,-11.37,17.95,-0.54,0.24,-0.59,-7.21,18.41,-2.14,-0.49,2.54,-2.83,38
-1.59,-0.3,21.57,1.71,1.81,0.88,2.77,-11.22,18.14,-0.54,-1.17,1.12,-7.35,18.03,-1.72,-1.32,4.2,-0.49,38
-1.79,0.06,21.31,1.95,2.39,0.78,1.67,-11.19,17.83,-3.32,0.1,-0.34,-6.59,19.06,-2.92,2.59,7.47,-1.56,38
-1.91,-0.51,21.24,-2.49,-0.05,-1.07,2.06,-11.53,17.7,0.63,-0.98,-0.29,-6.73,18.93,-2.65,0.05,2.25,0.24,38
-0.29,8.02,-2.88,79.1,438.33,-89.75,2.98,-25.48,10.34,-48.1,152.05,59.77,-0.75,24.74,3.57,91.65,37.5,83.98,39
-26.91,2.33,11.34,16.65,68.6,-25.63,-2.64,-11.16,9.01,-0.83,16.5,3.22,-4.77,16.74,10.42,-38.04,15.09,-1.07,39
-19.36,-2.47,10.9,1.42,5.42,-2.69,-6.41,-15.46,14.17,-0.93,-0.34,0.49,-3.76,16.95,8.43,0.73,6.64,-8.59,39
-17.66,-1.6,10.5,-0.05,-2.69,-2.25,-6.17,-16.28,14.35,-3.81,0.29,-1.32,-5.09,17.49,7.92,2.39,0.63,-5.37,39
-19.02,-2.88,10.08,-1.22,-3.03,-3.56,-6.79,-15.91,13.86,-0.98,-1.9,-3.81,-4.58,17.56,8.58,3.47,2.44,-2.25,39
-19.49,-2.39,10.51,4.35,0.29,-0.54,-6.63,-15.33,13.76,-0.39,-0.98,-2.49,-4.61,17.2,8.2,1.95,-0.49,-4.93,39
-19.82,-2.75,10.29,1.17,-1.07,-0.98,-6.42,-15.44,13.92,-0.44,-2.1,-3.52,-4.66,17.9,8.33,2.2,-0.59,-2.83,39
-18.47,-3.09,10.82,1.51,-5.32,0.93,-5.71,-15.35,14.11,0.29,-2.98,-1.76,-5.62,18.13,7.48,3.17,-2.25,-2.98,39
-18.48,-2.49,10.87,3.37,-3.03,0.49,-6.1,-15.8,14.14,-1.22,-2.0,-1.17,-5.75,17.57,7.13,9.67,-8.94,-6.2,39
-22.24,-4.56,10.54,-1.9,-40.19,5.37,-7.01,-18.09,12.68,20.36,-48.19,-19.82,-5.6,15.54,4.93,111.77,-87.4,-43.65,39
-14.63,-0.95,13.72,15.48,-195.41,20.61,-1.64,-13.1,17.4,43.41,-62.79,-24.46,-3.31,24.24,2.74,51.27,-48.0,-33.98,39
-0.02,-2.51,22.08,-18.16,-138.13,23.49,0.74,-10.63,18.92,10.94,-31.69,-12.35,-9.94,17.84,-2.57,10.2,5.57,-5.27,39
-3.48,-1.22,20.87,-0.34,9.52,-3.17,1.32,-12.71,17.22,-3.61,-7.37,-3.27,-7.09,17.85,-0.64,0.1,3.52,1.86,39
-2.21,-1.99,21.64,-0.44,-3.37,0.83,1.93,-12.96,17.25,-2.1,-1.95,-1.32,-6.51,18.94,-0.57,3.08,3.32,0.83,39
-1.58,-1.52,21.63,1.12,-6.49,2.59,3.04,-12.15,17.64,-2.49,-4.98,-1.9,-7.85,18.32,-1.17,-4.35,6.98,-6.64,39
-2.99,-1.76,21.22,1.07,2.83,0.68,2.44,-12.32,17.32,-1.42,-1.86,0.1,-9.3,17.93,-1.46,0.2,-9.28,-3.76,39
-3.26,-1.24,20.9,0.2,0.1,-0.29,1.49,-11.89,16.78,-3.42,-2.88,-2.05,-7.52,18.34,0.56,-16.6,28.27,0.24,39
-2.37,-5.13,23.19,-2.69,8.25,0.59,3.68,-13.09,16.3,5.03,-4.93,2.64,-7.84,18.97,-1.1,-0.34,16.89,-0.44,39
-3.1,-1.08,21.22,4.49,-4.2,4.74,2.12,-11.93,17.35,5.62,-3.08,0.93,-7.49,18.87,-1.48,-2.05,13.18,0.1,39
-3.3,-1.17,21.53,0.39,-2.34,-0.63,2.75,-12.53,17.16,-1.12,0.68,-1.22,-7.24,19.31,-0.73,2.29,4.0,0.63,39
-16.65,-2.65,13.28,-13.23,42.19,-3.27,-4.62,-14.14,15.39,0.63,-2.83,-0.68,-2.77,19.07,5.68,6.69,-2.05,-3.47,40
-17.15,-0.06,12.76,-3.37,5.57,-4.83,-4.7,-15.15,15.41,0.88,0.15,4.44,-2.34,18.41,5.36,7.08,1.07,-5.22,40
-18.84,-0.61,11.12,-4.39,-1.86,-2.93,-4.07,-15.01,15.93,4.49,0.15,4.59,-4.22,18.31,3.37,23.14,-7.23,-11.77,40
-18.59,-0.71,11.61,-4.2,-3.52,0.54,-3.83,-12.8,15.89,46.04,-74.37,-28.03,-4.2,17.27,0.55,147.8,-48.78,-37.06,40
-19.17,-0.99,11.47,-1.27,0.63,4.83,4.93,-9.84,20.41,102.69,-62.4,-13.13,-7.12,20.45,-4.97,54.15,-14.11,-28.27,40
-18.82,-0.2,12.05,0.44,-0.78,6.84,3.14,-7.47,19.82,-33.15,-17.04,-5.22,-6.38,20.49,-7.38,8.69,11.33,-0.49,40
-20.62,-1.18,11.51,11.08,-124.41,40.82,3.35,-7.67,19.41,-7.13,0.29,-5.32,-6.47,18.79,-5.99,-2.93,0.0,2.98,40
-5.14,3.46,16.61,-17.19,-276.22,63.38,3.28,-10.79,18.53,3.86,2.78,1.12,-6.64,19.07,-5.42,2.88,4.2,-5.71,40
-4.47,5.92,20.81,-8.11,25.93,-12.01,3.41,-9.43,18.86,-4.83,-0.29,1.51,-6.78,17.51,-5.44,5.03,2.93,-2.2,40
-0.23,3.86,21.66,-0.68,-5.71,-2.54,3.19,-9.51,18.57,0.83,-3.66,-3.47,-6.87,17.72,-5.34,-0.83,6.25,-1.76,40
-2.37,1.06,22.01,8.79,11.28,-1.27,3.29,-9.67,18.61,0.29,-0.93,-1.46,-7.22,17.71,-5.38,1.9,3.08,-1.86,40
-3.03,2.0,20.89,-1.17,6.3,1.07,3.05,-9.77,18.75,-2.15,-0.24,1.61,-7.16,17.34,-5.58,-0.05,2.73,-3.91,40
-1.73,2.36,21.24,-1.51,-6.98,0.0,2.92,-9.18,18.82,3.27,-2.98,-2.34,-6.89,17.83,-5.44,0.1,2.59,-0.54,40
-2.09,2.28,21.01,-1.17,-1.76,0.68,4.26,-9.52,18.93,-2.54,-1.76,-0.63,-6.6,18.42,-5.2,4.39,-0.73,0.39,40
-3.49,2.96,21.14,1.76,4.59,2.25,3.51,-9.21,18.81,-0.88,-0.83,1.81,-7.32,17.34,-5.84,2.73,2.59,-3.42,40
-3.16,3.3,20.73,1.12,-8.54,1.12,2.96,-9.04,18.75,-2.93,-2.88,-0.98,-7.62,16.96,-5.66,-0.0,-0.24,1.76,40
-1.8,2.43,21.3,-1.9,1.9,-0.63,3.55,-9.35,18.78,-2.15,-1.27,0.34,-7.47,17.38,-5.34,-2.59,3.32,-1.12,40
-2.14,2.84,20.93,-0.29,1.12,1.95,3.53,-8.71,18.96,-0.0,-1.17,0.34,-7.12,17.19,-5.68,0.2,1.76,-1.9,40
-2.75,3.11,20.66,-2.64,-1.17,0.2,3.4,-8.82,18.9,-1.42,-0.1,0.15,-7.42,17.43,-5.4,2.59,-0.63,-0.29,40
-2.25,2.86,21.08,-1.32,0.2,0.68,3.74,-9.27,18.91,0.39,-0.63,0.68,-7.25,17.87,-5.63,0.15,2.73,-1.27,40
-19.58,0.73,10.38,9.96,37.26,13.28,-6.34,-14.39,16.14,-3.81,-1.71,-7.37,-2.97,18.48,5.03,-4.05,-4.64,-2.88,41
-22.53,2.55,6.43,13.33,15.97,6.88,-7.33,-12.74,15.71,0.59,-4.39,-8.69,-4.03,19.64,3.7,3.03,-3.47,-7.37,41
-20.52,0.68,8.16,2.25,-5.57,-4.98,-6.72,-13.25,15.53,9.96,-17.82,-10.69,-4.87,20.03,3.39,24.51,-26.46,-10.64,41
-19.92,0.27,10.02,1.46,-4.3,-5.22,-3.48,-14.7,15.83,11.62,-62.26,-27.69,-2.81,19.36,4.46,64.84,-36.72,-33.01,41
-18.18,0.93,9.51,2.29,-16.75,-2.98,2.1,-11.49,19.29,43.7,-45.36,-13.43,-5.08,21.06,-3.06,97.22,-58.01,-42.14,41
-21.48,0.84,9.62,8.25,-34.37,3.37,2.69,-3.22,20.04,-16.31,-13.43,-3.37,-7.56,16.47,-4.04,1.37,-6.2,5.86,41
-17.43,0.52,12.93,-7.57,-116.94,18.7,2.59,-9.07,19.07,6.15,-6.54,-4.83,-6.99,17.63,-4.9,2.05,-0.2,5.27,41
-7.87,0.97,17.44,-4.39,-183.11,16.94,2.8,-10.56,18.87,-0.44,-1.71,1.42,-7.65,17.93,-4.78,-1.07,9.13,-0.34,41
2.68,8.17,21.81,17.19,0.59,-2.73,1.96,-10.2,18.43,-1.81,-4.74,-0.34,-6.87,17.63,-3.91,-0.44,7.08,-2.64,41
-1.91,2.27,21.48,9.86,-21.58,4.15,2.07,-10.27,18.35,1.03,-2.54,-1.42,-6.5,18.12,-4.1,-0.29,2.83,-0.59,41
-1.91,0.96,21.58,0.59,-2.59,2.15,2.64,-10.37,18.38,-0.29,-3.03,-2.0,-6.41,17.72,-4.21,-0.44,-2.0,-0.39,41
-2.52,0.83,21.01,-2.69,-2.44,2.2,2.8,-9.64,18.96,0.24,-4.39,-1.12,-6.79,17.87,-4.93,1.07,3.47,0.2,41
-2.27,1.34,21.08,1.27,-5.52,0.98,2.65,-9.99,18.76,-0.05,-1.17,-0.68,-6.36,18.64,-4.17,0.05,4.2,-0.93,41
-2.4,1.27,21.17,-0.73,-3.42,0.39,2.84,-9.64,18.79,1.81,0.2,-0.2,-6.11,18.44,-3.82,2.25,-0.78,-1.66,41
-1.65,1.81,21.33,-0.54,-5.42,2.49,2.73,-9.88,18.69,1.81,-0.88,-0.78,-6.73,17.76,-4.19,2.25,0.63,0.0,41
-1.37,1.43,21.37,-0.2,-2.64,0.24,2.69,-9.81,18.71,0.15,-2.73,-1.9,-7.15,17.85,-4.36,1.9,1.56,0.73,41
-1.53,1.55,21.36,0.83,-0.98,-0.05,3.25,-9.72,18.98,0.59,-3.32,-0.54,-6.6,18.4,-4.33,1.07,3.22,-0.54,41
-1.81,1.49,21.09,0.49,-3.47,0.83,3.13,-9.36,18.73,1.03,-0.88,-0.49,-7.11,17.77,-4.22,1.9,0.63,-0.88,41
-1.19,1.41,21.31,-0.29,-5.47,1.07,3.45,-9.88,18.6,0.1,-3.32,-0.68,-7.01,17.63,-4.36,0.59,2.15,-1.32,41
-0.77,1.36,21.36,-0.98,-3.42,1.22,2.92,-9.01,18.66,0.24,-3.03,-0.1,-6.85,17.62,-4.52,0.1,3.17,1.17,41
-18.9,1.26,9.12,7.76,-8.89,0.05,-7.32,-12.49,15.17,8.45,10.5,-0.73,-3.56,18.79,3.66,1.46,1.03,-6.49,42
-19.69,0.44,10.04,5.47,-2.69,-0.24,-5.64,-13.86,15.82,0.54,-1.32,-2.88,-3.1,19.5,4.44,8.11,-0.93,-3.08,42
-19.79,0.08,10.79,1.37,-1.46,0.39,-5.24,-14.35,15.89,2.34,0.98,0.34,-2.88,19.67,4.66,5.42,-1.32,-4.2,42
-19.44,0.14,10.31,2.05,-0.63,0.24,-5.5,-13.86,16.02,0.54,1.71,0.59,-3.59,18.8,3.44,3.47,-1.32,-5.47,42
-18.7,-0.27,10.38,-2.39,-7.76,-0.98,-5.8,-13.92,15.7,-3.52,-4.79,-4.54,-3.72,18.83,3.78,-0.88,0.78,-1.61,42
-19.24,0.04,11.07,-0.93,-3.76,0.49,-5.15,-13.87,15.99,-0.24,-2.1,-0.93,-3.12,18.93,3.87,1.56,-0.93,-2.44,42
-19.18,0.38,10.96,-0.1,-4.05,-0.78,-5.39,-13.58,16.08,-1.03,-2.0,-2.64,-3.73,19.1,3.45,2.49,-2.98,-4.64,42
-19.35,0.02,11.19,0.59,-8.89,1.81,-5.23,-14.06,15.86,1.22,-4.15,-2.25,-3.4,19.3,3.81,6.49,-1.86,-3.71,42
-19.87,-0.16,11.55,4.59,-22.66,5.86,-5.08,-13.91,15.98,8.79,-9.52,-6.1,-5.1,18.88,2.31,28.42,-15.92,-11.57,42
-17.73,0.3,14.28,-0.98,-64.7,14.26,-2.76,-13.68,17.08,11.43,-37.89,-17.97,-6.26,19.26,-0.97,80.62,-32.67,-25.1,42
-13.74,1.51,14.3,-17.24,-196.78,34.18,-1.83,-14.21,16.21,46.29,-73.05,-20.31,-5.44,20.71,-2.01,67.58,2.2,-20.9,42
11.76,1.98,22.67,25.15,-122.27,24.22,-0.03,-13.68,18.3,34.91,-13.82,-5.76,-8.29,15.6,-4.24,6.69,22.41,2.05,42
-5.42,-0.37,20.86,-1.47,14.94,-0.63,3.92,-12.14,18.74,-19.68,-8.25,1.51,-5.16,18.05,-4.13,-1.37,4.49,-1.27,42
-1.76,1.01,21.41,-5.03,6.05,0.24,3.47,-10.16,18.58,-8.5,-1.12,0.1,-6.19,18.09,-4.27,-3.03,1.81,-0.88,42
-1.86,0.92,21.1,5.76,7.71,1.95,2.76,-10.07,17.63,6.88,-4.1,-0.88,-6.63,17.78,-4.67,-3.61,3.22,-2.34,42
-1.72,1.87,21.18,1.32,-0.49,0.05,2.55,-9.77,18.41,-1.61,1.95,-0.49,-6.67,18.25,-4.58,-4.98,5.47,-1.71,42
-1.56,1.08,21.01,0.15,-8.25,-0.68,2.73,-10.27,18.08,3.03,-1.56,-3.17,-5.68,18.3,-3.95,1.32,3.27,0.73,42
0.71,1.59,21.64,-0.24,-6.49,1.03,3.55,-9.68,18.46,1.81,-2.15,-1.51,-6.18,17.81,-3.91,5.22,-2.29,-0.15,42
-0.33,1.61,21.33,-0.2,-4.59,2.29,3.51,-9.43,18.63,2.0,-3.71,-0.2,-6.16,18.31,-4.55,1.07,1.76,-1.37,42
-0.36,1.23,21.45,0.93,-4.35,-0.2,3.87,-9.9,18.67,1.22,-1.9,-2.0,-5.5,18.73,-3.97,1.12,0.93,-1.17,42
-20.5,0.46,7.91,-1.03,9.72,-6.59,4.23,-9.5,18.7,0.88,-1.12,-0.49,-6.63,16.33,-4.42,3.42,7.52,-0.24,43
-18.82,-1.81,9.96,-3.22,-8.89,2.05,4.24,-9.05,18.83,-0.29,-0.68,-1.42,-7.37,18.25,-5.75,-7.67,10.21,-1.22,43
-19.4,0.03,9.95,-2.3,-1.86,0.59,4.15,-9.3,18.72,0.73,0.54,-1.22,-6.47,17.86,-4.73,-2.44,1.71,1.9,43
-19.27,0.71,9.68,-1.22,-1.81,-0.15,4.01,-9.03,18.74,1.76,0.83,-1.17,-5.85,18.37,-4.74,-0.73,4.15,-1.51,43
-18.63,0.59,9.79,1.56,-6.05,1.03,4.14,-9.36,18.56,1.17,-1.76,-0.83,-6.24,18.52,-4.55,1.17,0.63,0.1,43
-19.52,0.73,10.02,1.95,-7.96,0.63,4.48,-9.04,18.81,0.2,-3.42,-0.83,-6.13,18.54,-4.71,3.47,2.0,-1.12,43
-19.89,0.32,10.25,0.63,-7.67,0.29,4.42,-8.9,18.85,-2.2,0.83,0.39,-6.34,18.18,-5.13,-0.2,2.73,-0.88,43
-19.61,0.24,11.37,-5.57,-87.21,8.89,3.82,-8.92,18.62,-1.03,2.0,-0.34,-6.31,18.26,-4.83,0.39,1.17,-0.88,43
-12.85,1.55,12.89,9.72,-231.93,33.06,3.75,-8.67,18.67,0.1,0.93,0.49,-6.49,17.71,-5.06,-0.98,3.96,-0.93,43
10.66,5.35,21.49,23.78,-100.59,11.33,3.94,-8.87,18.73,-0.29,-0.54,-1.32,-5.84,18.43,-4.71,1.12,2.25,-2.05,43
-2.94,0.7,20.73,-1.12,-8.15,5.57,4.1,-9.15,18.67,0.2,-0.2,-0.44,-6.21,18.5,-4.45,2.88,0.05,-1.32,43
-0.23,1.04,21.43,-4.15,-5.03,0.49,4.05,-8.67,18.77,-0.63,-1.27,0.39,-6.19,18.87,-4.6,1.61,2.29,-0.54,43
-1.9,1.17,21.01,-0.78,-2.78,1.07,4.46,-8.86,18.84,-0.98,0.05,-0.34,-5.96,18.78,-5.09,1.66,3.86,-1.42,43
-1.09,1.52,21.09,3.42,-4.93,0.93,4.11,-9.16,18.75,-1.17,1.71,1.76,-6.02,18.24,-5.01,-0.44,-0.15,-1.46,43
-0.89,1.25,21.19,1.71,-2.73,0.98,3.89,-9.12,18.72,-1.32,-1.56,-0.05,-6.82,17.81,-5.02,-1.9,4.3,-2.29,43
-0.53,1.69,21.1,2.49,-6.74,0.68,3.64,-8.83,18.57,-1.61,-0.39,0.54,-6.5,18.26,-4.77,-2.15,5.08,-2.78,43
0.79,1.47,21.26,-0.78,-4.49,1.07,3.92,-8.85,18.91,-0.1,-1.37,-0.1,-6.47,18.31,-4.92,4.83,0.88,0.34,43
0.3,1.5,21.19,0.63,-4.35,1.76,3.96,-8.77,18.78,0.88,-1.66,-0.93,-6.16,18.63,-5.17,1.81,1.71,-0.73,43
0.48,1.56,21.23,0.15,-5.18,-0.05,4.34,-8.82,18.74,-0.29,0.39,0.29,-6.75,17.88,-5.05,0.78,1.9,-1.81,43
0.01,1.53,21.12,1.03,-2.49,-0.34,4.02,-9.18,18.69,-2.3,0.34,0.39,-6.72,17.76,-4.79,1.37,0.29,-0.39,43
-16.37,-0.98,11.67,-6.4,-2.2,-6.15,-4.92,-14.31,15.56,1.51,2.39,-0.2,-2.61,19.05,5.16,3.91,-3.22,-5.81,44
-19.28,-0.19,10.99,-5.42,-3.37,-6.64,-4.46,-14.61,15.64,0.29,-0.29,-0.49,-3.32,19.34,4.99,9.18,-4.15,-4.49,44
-19.29,-1.0,11.09,-4.0,-6.3,-2.59,-4.5,-14.74,15.44,2.54,-6.3,-4.15,-2.72,18.1,4.42,4.98,-7.81,-4.39,44
-19.26,-0.8,11.05,1.61,-0.34,-0.44,-5.11,-14.77,14.12,8.54,-35.79,-14.55,-4.6,16.92,2.17,62.06,-26.9,-31.69,44
-19.45,-0.71,10.99,2.34,0.15,1.46,0.97,-13.7,18.24,47.12,-93.26,-35.74,-5.26,23.33,-2.87,126.12,-20.56,-35.55,44
-17.95,-1.25,11.78,0.54,-11.91,5.76,0.87,-12.44,17.55,102.2,12.7,13.82,-7.24,17.3,-6.27,17.68,6.1,0.83,44
-19.85,-2.5,13.32,-6.35,-90.97,24.37,5.04,-14.05,19.26,-42.04,-18.02,-9.96,-6.54,18.35,-5.42,-1.9,2.69,6.84,44
-11.13,2.22,14.53,66.21,-212.35,79.79,3.88,-11.61,18.33,-20.56,-0.29,-0.49,-6.13,18.77,-4.45,-2.3,5.96,-0.88,44
5.19,10.11,18.87,-74.41,-88.92,7.42,2.91,-10.05,18.28,-6.98,0.49,-0.05,-6.63,18.06,-4.85,1.42,4.0,-0.1,44
-0.65,4.01,20.98,3.03,-17.04,-5.32,3.79,-9.84,18.64,-1.51,-1.86,-0.29,-6.42,18.25,-4.97,-0.68,1.46,-0.2,44
-1.26,1.07,21.1,-5.71,1.71,4.15,4.02,-10.04,18.36,-1.37,-1.22,0.15,-6.0,18.35,-4.66,3.12,2.25,-1.66,44
-1.71,1.88,20.77,-0.83,1.22,0.39,3.69,-9.86,18.43,0.54,-1.12,-0.1,-6.47,17.99,-4.98,2.0,0.98,-0.73,44
-0.86,2.02,21.33,-0.93,-3.27,1.12,4.18,-9.91,18.54,-0.54,-1.27,0.93,-6.22,18.34,-4.89,1.95,0.98,0.49,44
-1.03,1.83,21.17,0.54,-2.0,0.54,4.14,-9.67,18.45,3.52,-1.95,-0.34,-6.06,18.21,-4.86,-1.12,2.69,-0.88,44
-0.86,2.16,21.14,0.83,-5.08,0.88,3.72,-9.52,18.54,-0.68,0.15,0.2,-5.67,18.04,-4.67,3.12,-1.95,-1.27,44
-1.66,2.02,21.17,2.2,1.32,0.15,3.98,-9.68,18.42,0.2,-2.39,-1.37,-6.23,18.22,-4.85,2.88,1.81,-1.42,44
-0.86,2.07,21.24,1.71,-4.69,0.93,4.09,-9.84,18.55,1.17,-1.71,0.05,-6.16,18.37,-4.86,1.86,2.73,-1.86,44
-0.31,2.26,21.07,0.54,-1.07,1.17,4.5,-9.56,18.82,-0.05,0.2,0.83,-5.96,18.52,-5.11,1.22,2.54,-1.51,44
-0.13,1.67,21.19,-1.07,-4.25,1.22,4.33,-8.78,18.73,-2.39,2.69,1.17,-6.41,17.72,-5.02,-0.78,-1.12,-2.88,44
-0.27,1.92,21.18,1.56,-2.64,1.32,4.7,-8.78,18.52,-3.96,1.51,-3.96,-6.17,18.76,-4.38,0.98,-0.1,-1.03,44
-23.18,6.71,9.55,8.11,29.83,-9.18,-5.21,-13.69,16.22,-1.71,-1.42,-2.15,-4.07,19.3,2.76,2.88,-0.15,-5.96,45
-20.27,1.59,9.57,8.59,-4.0,-9.28,-4.63,-14.63,16.27,-1.51,-1.56,-0.78,-4.13,18.51,1.91,0.98,-2.2,-4.25,45
-19.65,0.83,10.0,2.69,-3.12,-3.52,-6.3,-13.35,16.02,8.06,1.51,3.08,-4.78,19.21,2.1,3.95,2.2,-3.81,45
-19.2,0.23,10.94,2.1,-1.07,0.83,-6.01,-13.22,14.99,7.23,-64.7,-37.06,-4.45,18.97,1.87,6.01,1.22,-2.73,45
-19.16,0.75,10.68,0.83,-0.68,-1.22,4.3,-15.18,19.1,73.34,-58.01,-28.91,-5.39,18.19,0.99,28.66,-19.24,-10.3,45
-17.93,0.02,11.31,-0.24,-0.1,1.71,4.74,-5.63,18.98,4.49,-32.13,-17.48,-5.23,21.06,-3.13,101.51,-32.18,-16.26,45
-19.44,0.4,10.72,4.93,-3.71,5.52,3.58,-9.98,18.66,10.74,0.73,0.15,-5.6,17.85,-3.28,12.01,-7.47,5.03,45
-20.93,0.11,10.84,2.1,-103.22,18.46,3.54,-9.99,18.65,-1.51,2.39,-1.9,-5.01,18.6,-3.78,-0.2,-0.78,-3.12,45
-7.56,3.51,14.25,-31.15,-261.91,20.17,2.97,-10.29,18.23,-2.93,0.39,-1.95,-5.72,18.52,-3.67,3.61,-1.76,-1.71,45
10.93,2.62,21.42,-5.47,-32.13,-2.25,2.97,-10.3,18.42,1.07,-1.76,-0.68,-6.59,18.03,-3.62,-0.05,-0.24,-1.03,45
-0.48,0.72,21.14,4.83,-12.11,2.1,3.47,-9.64,18.61,1.46,-1.22,-1.66,-6.16,18.4,-3.65,2.39,3.32,0.78,45
0.19,0.66,21.3,0.78,-0.15,-2.0,3.95,-9.74,18.61,0.93,-1.03,-0.63,-5.92,18.8,-3.95,2.34,3.42,0.68,45
-0.24,0.2,21.15,-2.34,-1.37,-1.22,3.38,-9.99,18.54,-0.68,1.03,-0.54,-6.03,18.88,-3.85,-0.05,3.13,-1.9,45
0.11,0.11,21.26,1.37,-3.32,0.93,3.39,-9.81,18.6,1.32,0.15,0.98,-6.15,18.79,-3.67,1.17,2.88,-2.64,45
0.72,0.62,21.29,2.05,-4.35,0.39,3.46,-9.69,18.66,-0.0,-0.49,-0.59,-6.22,18.41,-4.0,-0.39,3.91,-2.0,45
1.28,0.5,21.49,0.2,-3.37,0.29,3.28,-10.07,18.41,0.78,0.34,-0.2,-6.51,18.58,-3.8,-0.15,2.49,-1.61,45
0.72,0.3,21.25,0.1,-0.24,-0.44,3.29,-9.64,18.33,0.24,0.2,0.15,-6.52,18.56,-3.61,0.44,2.2,-0.34,45
0.88,0.49,21.3,1.22,-1.07,1.27,3.51,-9.96,18.49,0.05,-2.88,-0.63,-6.65,17.95,-3.96,-0.1,1.07,0.0,45
0.72,0.56,21.28,-0.05,-1.81,0.39,3.67,-9.98,18.47,-2.1,-1.56,0.24,-6.22,18.45,-3.79,2.34,0.68,-0.1,45
0.6,0.06,21.38,1.32,-1.37,0.59,3.68,-9.97,18.49,0.1,-0.88,-0.05,-6.33,18.35,-3.74,2.25,2.73,-0.93,45
-3.23,11.77,5.65,37.11,374.71,-99.46,-2.36,-12.63,14.38,-4.44,84.62,23.0,-5.15,25.68,-2.38,-64.21,22.71,34.03,46
-20.78,1.24,12.75,35.64,56.3,-16.36,-4.32,-14.54,14.59,-16.89,18.12,-1.32,-2.35,18.04,7.75,-13.57,1.56,-5.32,46
-17.02,-1.6,12.12,4.54,-0.68,-5.42,-6.17,-14.39,14.92,-3.32,2.34,-0.39,-1.91,17.53,6.42,-2.59,-0.24,-6.69,46
-19.81,-1.36,9.88,1.27,-1.56,-3.42,-5.49,-15.18,14.75,-4.88,-1.46,-1.76,-3.32,18.76,5.32,2.1,-3.47,-5.18,46
-19.67,-1.25,10.26,3.71,-5.32,-0.15,-4.25,-15.75,15.26,-5.27,-7.23,-1.71,-2.83,19.08,6.02,3.47,6.4,-3.56,46
-18.36,-1.9,11.42,-0.2,-3.12,0.83,-5.39,-14.59,14.92,1.71,-2.34,2.15,-2.85,18.81,5.75,7.62,2.73,-4.74,46
-19.26,-1.2,10.92,1.86,2.05,2.98,-5.39,-15.48,14.92,0.83,-3.91,-0.1,-2.71,17.85,5.17,7.23,-5.03,-7.71,46
-19.45,-1.36,10.96,-0.54,-4.0,5.37,-5.58,-16.33,13.29,15.38,-25.34,-6.05,-2.59,17.03,3.18,60.55,-39.4,-29.69,46
-20.11,-4.44,12.43,-14.7,-114.4,41.6,0.93,-11.84,17.34,45.8,-91.89,-43.36,-6.74,27.11,-3.47,123.39,-47.85,-49.46,46
-9.94,4.71,14.65,3.81,-250.0,42.19,1.33,-6.01,17.91,41.7,-13.92,-5.91,-11.0,17.11,-6.08,23.05,24.07,-13.33,46
1.83,3.11,22.34,27.88,19.14,4.98,1.36,-9.89,18.5,4.59,-7.13,-3.81,-6.98,17.45,-4.69,-10.3,6.3,0.83,46
-2.12,0.86,21.25,1.12,-24.61,2.49,2.86,-9.55,18.3,-3.71,-4.05,-7.57,-6.81,18.2,-3.18,-2.1,0.88,2.2,46
-1.29,-0.51,21.25,-2.0,1.61,1.61,2.94,-10.55,18.09,1.46,-2.39,-3.61,-7.12,17.82,-3.93,-0.73,0.49,3.22,46
-1.19,0.23,21.15,-1.07,-3.47,1.12,3.17,-10.57,18.41,-1.76,-4.1,-2.88,-6.75,18.06,-4.29,0.78,-3.27,1.66,46
-0.37,0.64,21.48,0.49,-5.96,-1.37,3.31,-10.57,18.3,-1.86,-1.27,-0.83,-7.59,17.66,-3.46,-1.81,1.32,-2.25,46
-1.6,-0.39,21.21,-1.47,-0.29,0.24,2.48,-10.85,17.98,0.59,-2.78,-0.93,-7.43,17.7,-3.69,1.61,1.86,0.63,46
-1.29,-0.1,21.27,1.42,-5.96,1.86,3.27,-10.33,18.23,3.37,-4.88,-0.68,-7.6,17.73,-4.19,1.76,4.05,0.59,46
-0.43,0.31,21.76,3.66,-9.52,2.59,3.4,-9.49,18.42,2.05,-3.71,-1.03,-7.44,17.71,-4.89,-3.27,5.91,-0.88,46
-0.06,0.57,21.33,-1.03,-4.93,2.0,3.82,-9.89,18.47,1.22,-3.71,-0.2,-6.95,18.47,-4.21,-0.68,4.0,-0.83,46
0.41,0.55,21.48,0.34,-4.39,2.25,3.5,-9.3,18.56,0.44,0.78,1.66,-6.94,17.86,-4.28,-1.56,2.05,-2.88,46
2.5,2.39,19.6,30.22,173.78,1.71,-6.43,-15.5,14.59,-8.89,-3.86,-8.35,-2.94,18.18,5.53,-7.76,-5.22,-1.86,47
-30.46,-13.05,14.3,-44.73,105.27,-51.51,-5.45,-15.49,14.66,-1.61,-5.62,-5.81,-2.89,18.3,6.29,-4.35,-3.42,-1.37,47
-22.58,-2.0,10.88,10.94,32.71,-0.2,-6.23,-14.57,14.69,2.25,-2.83,1.07,-2.61,18.74,6.23,5.18,-3.03,-4.35,47
-19.52,-0.39,8.68,-0.15,1.71,-1.46,-6.33,-14.19,14.73,1.12,0.1,2.15,-3.43,19.4,5.16,5.71,3.27,-5.32,47
-19.77,-2.17,9.8,-4.69,-7.76,-6.79,-5.53,-15.83,13.9,5.71,-8.01,3.66,-4.72,18.13,4.58,24.41,-7.96,-11.13,47
-19.8,-2.29,10.76,-0.0,-4.93,-1.42,-5.81,-15.97,14.33,69.09,-45.26,18.16,-4.28,17.3,1.12,159.57,-49.85,-45.02,47
-19.63,-0.96,9.95,1.9,-3.22,3.61,-1.73,-4.13,18.52,29.64,-78.08,-31.59,-9.11,17.46,-6.62,6.84,7.37,-41.26,47
-19.78,-1.08,10.01,-1.95,-1.86,1.61,2.92,-8.12,20.09,18.51,-6.45,0.98,-8.57,18.42,-7.38,15.28,-0.15,-5.03,47
-19.45,-2.05,10.7,-3.08,-6.64,11.52,0.26,-9.52,18.42,-14.84,11.33,-2.44,-8.22,17.37,-5.67,-5.22,5.62,1.56,47
-19.98,-3.52,12.43,10.06,-99.51,65.87,0.65,-10.93,18.31,-6.93,-1.37,-1.22,-7.85,18.39,-4.76,-2.25,7.23,3.13,47
-5.47,8.85,15.5,26.32,-198.49,52.69,0.59,-10.47,18.44,3.76,2.1,0.44,-7.4,17.6,-4.95,-0.54,2.54,-0.98,47
-6.68,7.48,20.2,10.79,10.64,-2.88,1.47,-10.45,18.87,-1.07,3.76,0.49,-7.83,17.72,-5.01,3.22,-0.44,-2.88,47
-7.04,4.02,19.79,-5.32,-23.68,-0.59,0.77,-10.34,18.51,5.22,5.37,1.12,-7.98,17.32,-4.93,4.74,0.54,-2.05,47
-5.65,3.59,20.33,-4.64,1.95,-2.93,0.26,-10.96,18.57,0.2,-1.56,-1.32,-7.12,16.78,-4.62,1.07,-2.59,2.78,47
-5.66,4.7,20.08,4.54,-2.2,0.73,1.08,-10.43,18.38,0.34,0.93,-0.15,-8.31,17.29,-5.38,0.34,1.56,-1.12,47
-4.37,4.7,20.5,1.56,2.15,-1.12,0.56,-10.2,18.86,1.66,4.88,1.46,-8.12,17.5,-5.51,0.49,0.73,-1.17,47
-5.71,4.53,19.96,6.98,-2.2,1.9,0.45,-10.38,18.79,2.44,1.86,1.46,-8.37,17.39,-5.15,-1.17,3.37,-1.12,47
-5.99,4.0,19.84,-1.81,-1.86,-0.44,-0.34,-10.3,18.61,1.66,1.22,1.37,-8.29,17.13,-5.12,-0.78,5.91,-2.69,47
-5.24,4.98,20.39,1.37,-0.15,0.0,-0.08,-10.61,18.63,-2.59,1.22,-0.29,-8.07,17.48,-4.93,2.83,-0.59,-1.42,47
-5.15,4.48,20.43,1.71,1.03,0.15,-0.26,-10.74,18.52,-1.32,-2.49,-2.0,-8.72,17.32,-4.89,-1.12,0.59,0.39,47
2.97,3.37,7.63,-19.78,345.41,-51.22,-6.04,-14.71,14.98,-2.3,-0.15,-3.37,-4.56,18.83,4.14,5.18,-5.76,-6.93,48
-14.49,1.56,11.11,65.72,38.43,-2.29,-5.88,-15.42,14.71,-0.15,-2.44,-3.08,-4.08,18.98,4.84,0.68,0.63,-3.27,48
-19.39,-2.49,10.57,7.62,1.66,-5.13,-5.78,-15.07,14.9,-0.05,-1.71,1.66,-4.33,19.04,4.2,6.4,-0.29,-2.49,48
-19.34,-1.05,10.1,2.49,-1.22,-1.61,-6.07,-14.54,14.83,-0.44,-3.08,-3.27,-4.37,18.58,4.24,2.44,-2.2,-3.37,48
-19.35,-1.64,10.54,-1.03,-6.84,-0.2,-5.12,-15.24,14.89,0.49,-5.22,-2.29,-5.04,18.82,3.49,10.16,-6.4,-5.42,48
-20.07,-1.21,10.0,0.63,-3.56,3.22,-3.65,-16.99,14.22,21.39,-60.45,-26.22,-5.29,15.85,1.57,107.86,-51.17,-25.34,48
-19.11,-1.12,10.39,-0.05,-4.79,0.49,-0.8,-9.88,17.8,50.63,-64.89,-18.07,-6.04,22.17,-3.12,35.06,-10.5,-28.37,48
-19.5,-1.36,10.9,-1.56,-20.8,2.69,1.8,-3.14,19.73,53.71,-14.75,-1.76,-7.84,18.25,-5.09,15.09,2.34,5.91,48
-17.42,-3.18,13.04,-16.26,-120.56,27.15,3.01,-11.11,18.92,8.15,-9.91,-7.91,-6.91,17.98,-4.6,-0.34,3.91,-0.63,48
-7.98,3.51,12.35,43.8,-241.7,61.91,2.57,-11.73,18.24,-7.86,-1.17,-0.34,-7.13,18.31,-4.55,0.68,6.1,-3.66,48
4.47,3.63,22.09,-10.6,3.27,3.81,1.99,-10.81,18.25,-0.54,-5.47,-2.15,-6.98,17.74,-4.38,0.1,0.73,-1.17,48
-0.61,1.23,21.42,-6.3,-16.99,-6.64,2.95,-10.82,18.52,0.88,-3.12,-3.17,-6.52,18.71,-4.07,-0.0,5.27,-0.44,48
-1.07,-0.11,21.31,-4.25,3.03,0.68,2.89,-10.3,18.45,-1.22,-2.1,-1.76,-7.09,18.21,-4.55,0.2,2.2,-4.83,48
-1.91,1.03,20.85,-0.63,-8.45,0.2,2.83,-10.39,18.2,0.29,-1.9,-0.24,-7.16,18.06,-4.22,-0.2,1.76,-2.64,48
-0.5,0.76,21.45,1.66,-6.88,0.05,3.25,-10.69,18.4,-0.0,-1.22,-0.29,-6.75,18.5,-4.1,-1.12,1.81,-2.83,48
-0.27,0.91,21.33,-0.63,-3.91,-0.2,2.92,-10.72,18.23,-0.88,-1.07,0.88,-7.82,17.66,-4.24,1.27,2.25,-2.15,48
-0.5,0.67,21.23,0.39,-3.76,1.17,2.47,-10.41,18.16,-0.49,-1.56,-1.61,-7.83,17.55,-3.91,0.93,2.0,1.07,48
-0.12,0.51,21.33,0.2,-2.0,-0.2,2.72,-10.62,18.21,1.32,-3.27,-1.03,-6.83,18.23,-4.19,2.69,3.56,0.49,48
-0.34,0.3,21.36,0.15,-0.24,1.66,3.47,-10.15,18.46,0.98,-1.51,-0.49,-6.93,18.75,-4.48,2.05,2.69,-0.78,48
-0.57,0.5,21.16,-0.44,-2.69,0.1,3.54,-10.16,18.53,-0.63,1.46,-0.15,-7.19,18.36,-4.38,0.59,1.95,-1.51,48
-22.89,-0.62,10.1,8.3,12.3,-10.64,-5.39,-13.94,15.43,2.69,-1.81,-1.86,-3.05,19.38,4.8,4.39,-2.73,-4.93,49
-19.69,-0.28,10.22,-4.39,-8.3,-6.15,-5.27,-14.38,15.38,2.15,0.2,-2.05,-3.08,19.54,4.71,6.93,-5.03,-6.84,49
-19.1,-1.02,11.44,1.9,-5.42,-1.03,-5.25,-14.88,15.27,0.2,-5.47,-3.27,-4.01,18.68,3.72,9.47,-5.96,-4.15,49
-18.77,0.02,11.09,3.52,-5.57,1.56,-4.24,-15.24,15.38,4.64,-9.91,-5.32,-4.52,18.54,2.69,29.49,-14.99,-16.85,49
-19.11,-0.6,11.45,4.44,-4.49,1.32,-2.33,-15.52,15.33,38.38,-66.06,-13.72,-4.51,19.64,-0.78,126.46,-35.16,-28.37,49
-18.97,-1.43,11.22,0.59,-8.45,3.32,3.68,-10.0,19.11,71.63,-55.13,-15.09,-6.74,18.12,-4.18,12.84,-0.78,-30.62,49
-19.66,-1.85,11.73,0.88,-23.49,5.18,2.6,-5.38,19.0,0.93,-19.34,-4.3,-6.73,18.83,-5.43,3.66,1.17,9.81,49
-18.09,-2.11,13.85,-7.47,-125.73,34.42,4.09,-9.92,18.56,6.88,-7.42,-7.57,-5.77,19.05,-4.49,2.78,0.05,4.74,49
-5.11,3.42,16.4,12.11,-231.45,39.79,3.5,-10.77,18.42,-3.08,-1.81,-2.78,-6.66,18.45,-4.31,1.32,6.84,-3.56,49
0.58,3.02,21.69,-10.84,15.19,-7.28,2.97,-10.55,18.23,0.88,-2.59,-1.86,-6.57,18.16,-4.44,-0.54,5.18,-2.29,49
0.57,0.69,21.74,-4.54,-17.19,-3.81,3.43,-10.22,18.28,0.59,-0.54,-2.05,-6.03,18.65,-4.12,-2.2,5.76,-5.32,49
0.81,-0.14,21.43,-1.42,-0.93,-1.86,3.56,-10.3,18.36,0.98,-0.63,-0.73,-6.39,18.43,-4.4,0.93,2.88,-3.12,49
-0.28,0.17,21.17,0.29,-5.71,0.78,3.34,-9.94,18.35,-0.05,0.2,0.68,-6.76,17.95,-4.31,0.83,1.27,-1.76,49
0.66,0.34,21.21,0.83,-2.73,-1.27,3.57,-10.8,18.26,-2.3,-2.64,-1.86,-7.0,18.24,-3.8,-0.59,3.03,-2.2,49
0.53,0.17,21.26,0.78,-1.51,0.59,3.34,-10.68,18.21,-1.9,-0.54,0.24,-7.38,17.69,-3.91,-0.54,3.52,-1.61,49
0.32,0.34,21.16,0.2,0.54,0.83,3.4,-10.38,18.35,0.1,-1.76,-0.73,-6.84,18.39,-4.12,4.0,0.05,0.73,49
0.74,-0.57,21.25,-2.83,-2.1,-0.39,3.76,-10.09,18.43,1.22,-0.54,-0.63,-7.04,18.48,-4.51,-2.39,4.93,-2.1,49
0.48,-0.29,21.16,-0.05,0.0,1.61,3.49,-10.2,18.2,0.15,0.68,1.03,-6.74,18.1,-4.02,-1.07,1.66,-2.0,49
0.59,0.2,21.28,1.46,-2.1,0.98,3.33,-10.28,18.22,-0.05,0.68,0.05,-6.74,18.48,-3.65,2.93,1.76,0.24,49
1.02,0.38,21.34,1.86,-2.93,0.83,3.67,-10.62,18.19,1.51,-1.03,-0.2,-6.5,18.98,-3.74,4.05,1.27,-0.49,49
-18.85,-2.23,11.09,5.86,2.05,-2.0,1.87,-11.02,18.54,-4.83,-1.42,2.05,-3.44,18.84,6.56,5.27,4.1,-6.1,50
-18.8,-0.98,10.22,5.52,-7.52,-1.9,2.06,-10.9,18.25,2.34,-3.52,-4.3,-4.38,18.63,5.16,9.18,-6.84,-6.35,50
-19.0,-2.18,11.06,1.61,-6.45,-0.2,2.82,-11.18,18.28,1.86,-2.2,-0.73,-6.23,16.79,3.21,43.65,-40.09,-19.48,50
-18.8,-1.94,11.5,1.95,-0.1,3.32,2.31,-9.87,18.41,0.2,0.24,1.22,-4.43,26.15,0.45,189.75,-34.77,-50.54,50
-18.88,-1.88,11.12,-0.34,-4.44,0.83,2.54,-10.51,18.35,1.17,-1.03,-1.12,-6.65,15.25,-5.95,17.43,19.19,-14.06,50
-20.72,-5.97,12.46,-16.41,-68.8,15.53,2.17,-10.21,18.29,-1.9,0.54,-0.39,-6.33,17.94,-5.15,-6.49,3.47,1.76,50
-14.92,-2.92,14.34,41.89,-195.21,70.36,2.3,-10.5,18.33,1.81,-1.17,1.32,-7.27,18.48,-3.95,3.27,-1.07,1.76,50
4.16,5.46,21.63,-8.15,-60.79,16.94,2.2,-10.67,18.37,-1.42,-2.44,-1.51,-6.9,18.11,-4.65,-3.22,3.96,-3.66,50
-3.42,2.89,20.95,-0.93,3.27,-11.33,3.27,-10.57,18.56,2.64,-3.96,-0.98,-6.77,18.53,-4.17,3.42,1.86,1.51,50
-2.55,-0.29,21.33,-6.69,-16.6,2.2,2.4,-10.37,18.38,-0.83,0.98,-0.34,-6.82,18.0,-4.46,2.0,1.9,-1.81,50
-3.66,0.94,21.11,0.15,4.15,-0.1,2.61,-10.69,18.35,-1.22,-0.98,-0.15,-7.29,17.96,-4.7,2.44,1.9,-2.05,50
-2.31,1.12,21.42,2.98,-8.4,0.0,2.9,-10.35,18.43,0.24,-2.78,-0.49,-7.38,18.27,-4.72,1.12,-0.34,-1.03,50
-1.96,0.64,21.37,2.59,-5.27,2.98,3.07,-10.41,18.53,0.63,-2.49,-0.34,-8.23,17.12,-4.72,-3.37,3.17,-1.71,50
-2.84,1.14,21.25,-2.05,2.05,-0.44,3.01,-10.5,18.61,-1.03,-1.37,-0.29,-7.21,17.6,-4.6,-0.34,4.1,-2.2,50
-1.72,0.98,21.31,0.39,-3.76,2.34,2.3,-10.16,18.35,-1.51,1.66,0.0,-7.3,17.79,-4.38,2.29,1.86,1.81,50
-2.4,0.56,21.21,-3.37,-2.44,-1.66,2.51,-10.52,18.37,0.24,0.98,-0.73,-7.13,17.81,-4.56,-1.17,2.73,-1.17,50
-1.99,1.17,21.23,2.54,-3.08,2.25,2.31,-10.1,18.42,0.98,-0.24,-0.1,-7.05,17.96,-4.2,1.46,2.2,-2.73,50
-2.18,0.81,21.16,0.73,-4.49,-0.1,2.96,-9.98,18.59,0.15,-0.15,0.05,-7.15,17.99,-4.33,3.95,1.27,-0.15,50
-1.01,1.24,21.54,1.76,-4.44,1.66,2.58,-10.21,18.34,-1.32,0.93,0.15,-7.17,18.28,-4.29,2.1,1.81,0.54,50
-1.9,0.98,21.2,-0.63,-0.15,0.93,2.83,-10.66,18.4,0.44,-0.59,0.1,-6.96,18.35,-4.49,1.27,1.56,-1.22,50
1.04,10.53,3.1,98.53,439.45,-49.46,2.31,-5.34,18.58,-122.46,130.32,61.43,-4.28,18.92,3.28,3.17,13.43,-14.11,51
-11.39,4.37,10.18,70.07,67.58,2.54,-5.27,-17.2,15.01,1.03,30.57,13.87,-4.74,17.89,2.68,-7.13,-2.64,-8.01,51
-21.67,-2.04,8.29,4.1,19.24,1.81,-8.46,-16.21,15.15,-6.69,12.65,7.62,-3.22,18.57,5.01,-0.2,-10.89,-1.9,51
-19.75,-0.21,8.1,1.07,-8.4,-10.74,-8.12,-14.44,15.09,-12.3,-3.37,-13.72,-3.8,18.92,4.72,4.49,0.83,-2.69,51
-20.09,-1.44,9.43,-0.15,-7.57,-4.1,-7.96,-14.76,14.7,-7.76,-5.22,-8.98,-4.59,18.91,3.58,3.47,-3.47,-3.91,51
-19.65,-0.22,9.1,1.22,-2.88,2.49,-7.56,-13.95,15.04,1.32,-2.44,-0.24,-4.19,19.24,3.92,4.64,-1.95,-2.54,51
-19.87,-0.28,9.09,0.54,-0.54,0.93,-7.5,-13.71,15.08,-1.17,-0.83,-0.2,-5.22,18.25,2.81,15.67,-9.08,-4.49,51
-19.79,-0.44,8.97,0.29,-3.66,0.39,-7.78,-13.6,14.83,-0.15,-1.12,-2.0,-4.71,19.65,-2.42,156.3,-58.64,-31.15,51
-20.94,-1.29,9.44,-0.1,-10.79,4.93,-7.86,-14.72,14.45,2.78,-5.47,-2.59,-5.21,18.42,-4.34,13.33,-0.39,-18.21,51
-20.1,0.45,11.77,9.81,-154.79,48.97,-3.25,-13.26,15.6,43.36,-96.92,-31.59,-5.3,20.75,-5.64,9.91,-2.44,5.76,51
-5.61,5.94,14.92,-21.68,-288.43,54.05,3.28,-8.41,19.57,68.07,-79.49,-27.69,-5.87,19.09,-4.44,4.39,1.07,-1.17,51
-2.53,1.84,22.36,0.88,81.64,-17.63,3.58,-8.77,19.26,-41.89,5.22,2.15,-6.57,18.66,-5.12,4.93,2.34,-0.68,51
-1.11,1.06,21.49,0.59,-19.73,0.0,3.11,-10.03,18.66,6.49,-5.42,-8.3,-6.6,18.08,-4.65,-1.32,3.76,-4.69,51
0.04,1.04,21.6,3.22,-8.79,0.29,3.9,-9.87,18.79,3.03,-5.22,-2.88,-6.71,18.4,-4.59,0.1,4.59,-5.42,51
-1.11,0.33,21.39,0.93,-2.98,0.49,3.17,-10.59,18.18,-0.15,0.39,-0.29,-7.29,17.22,-5.52,-0.78,2.98,-5.57,51
-0.74,0.61,21.24,1.56,-0.88,0.24,3.25,-10.57,18.13,2.49,1.46,0.93,-6.81,18.11,-4.78,-0.15,-1.37,1.37,51
-1.25,1.07,20.9,1.17,-3.17,0.1,2.58,-10.06,18.22,0.78,-0.59,-1.07,-7.03,18.13,-5.1,-3.47,4.39,-2.78,51
-0.49,1.24,21.35,0.54,-6.98,-3.27,3.38,-9.98,18.37,-0.0,-1.32,-5.62,-7.25,17.57,-4.77,-1.42,3.08,-5.62,51
-0.24,0.54,21.59,-8.11,-3.47,-4.1,4.11,-10.11,18.1,-4.05,1.12,-2.44,-7.12,17.9,-4.1,3.17,0.59,0.54,51
-0.85,1.08,21.08,-0.59,4.88,0.39,2.31,-10.13,18.15,-1.07,3.37,2.34,-6.97,18.26,-4.94,0.93,2.69,-1.32,51
-14.17,-1.79,14.3,46.34,26.51,9.47,-5.15,-14.83,15.72,-2.98,-2.83,-4.0,-4.68,16.4,2.71,-53.27,21.88,14.31,52
-19.08,-1.15,11.3,4.78,12.16,2.49,-5.23,-14.29,15.55,0.63,-2.39,-1.71,-2.98,17.89,4.28,2.15,8.74,-0.59,52
-19.22,-0.45,10.63,4.35,-4.69,-2.59,-4.56,-14.55,15.89,-2.34,-1.71,1.22,-2.07,18.59,4.36,1.51,-7.47,-6.69,52
-19.0,-1.08,11.49,1.51,-1.12,-0.93,-5.56,-16.52,14.57,7.28,-16.31,4.25,-1.91,19.15,4.63,6.64,-6.2,-4.39,52
-18.71,-0.76,11.51,1.32,-2.69,1.95,-2.66,-13.0,16.31,68.46,-105.71,-32.96,-2.52,18.97,3.93,4.1,-3.66,-2.1,52
-18.72,-0.8,11.5,-1.32,1.76,1.37,3.23,-10.46,19.66,29.93,-23.54,-26.27,-2.58,19.24,3.54,4.39,0.1,-2.34,52
-20.2,-2.63,11.77,-6.45,-18.26,20.21,2.54,-13.41,18.64,-35.6,4.98,-4.74,-4.42,16.1,1.65,74.56,-42.43,-21.09,52
-16.94,-0.31,10.34,24.56,-215.38,57.67,3.94,-9.89,19.03,-9.86,-0.2,0.24,-1.03,25.93,-3.74,88.13,-26.95,-32.28,52
13.55,2.28,27.8,-33.55,-242.33,18.85,2.43,-9.89,18.33,-0.83,-1.51,-1.42,-6.19,14.87,-6.14,3.17,4.35,-0.68,52
-2.72,1.56,19.75,-2.69,21.14,-10.11,3.42,-10.04,18.6,-2.44,-1.9,1.12,-5.49,17.3,-5.33,-14.06,5.27,-3.81,52
0.36,1.76,21.6,-1.47,7.62,0.68,3.47,-9.82,18.53,2.59,-2.54,0.39,-5.66,18.29,-5.37,-3.66,3.22,-7.81,52
-1.91,1.84,20.71,0.24,-4.0,-0.05,2.87,-10.07,18.51,-1.76,-3.52,-0.73,-6.57,17.1,-5.54,-0.05,4.3,0.54,52
0.19,1.25,21.36,-0.54,-0.73,2.64,3.44,-10.06,18.51,2.2,-4.2,-0.68,-5.71,17.98,-5.39,-1.81,4.3,-1.07,52
-0.2,1.56,21.23,1.22,-5.76,2.59,3.51,-9.59,18.56,2.78,-2.98,-0.59,-6.37,17.84,-5.38,3.17,2.2,-3.52,52
-0.81,1.24,21.09,-2.83,-3.56,1.42,3.5,-9.47,18.56,0.73,-0.63,-0.63,-6.63,17.06,-5.22,-1.03,1.03,0.34,52
-0.4,1.17,21.3,1.66,-6.93,2.64,3.84,-9.66,18.63,-0.24,-2.1,-1.37,-6.09,18.16,-5.53,0.93,2.44,0.15,52
0.26,1.43,21.2,1.37,-6.05,2.29,3.63,-9.7,18.59,0.05,-1.46,0.05,-6.64,18.06,-5.74,0.24,5.76,-1.42,52
0.25,1.68,21.16,1.37,-2.88,0.88,4.29,-9.68,18.73,1.27,-3.37,-1.42,-5.56,17.95,-5.28,2.44,0.34,-0.44,52
0.49,1.43,21.24,0.05,-3.91,0.78,3.69,-9.09,18.6,0.1,2.1,1.03,-6.14,18.02,-5.54,-0.29,2.49,-2.64,52
0.43,1.38,21.17,0.63,-1.9,2.0,3.39,-9.53,18.45,-1.56,1.12,-0.83,-6.3,17.84,-5.71,2.83,1.12,-1.66,52
-2.56,-1.09,9.47,67.19,-12.55,37.65,-7.25,-15.39,14.43,-16.06,5.71,-2.2,-4.03,16.77,3.82,-15.04,12.06,-12.35,53
-19.71,-0.62,8.55,5.96,-0.63,-1.32,-7.96,-12.12,14.91,-0.1,-4.35,-7.03,-4.23,18.72,2.75,-3.08,1.27,-4.64,53
-19.09,0.53,8.69,0.68,-8.69,-4.93,-6.44,-14.54,15.58,-5.32,-4.35,-3.22,-4.17,18.99,4.18,4.0,-0.73,-2.2,53
-20.81,-0.79,9.82,2.44,4.1,-0.29,-7.13,-14.09,15.53,-3.13,-4.59,-0.98,-3.22,18.78,3.56,3.37,-1.12,-2.78,53
-19.78,0.05,9.14,2.2,-0.54,2.05,-7.43,-14.0,15.2,-3.42,-1.27,-1.37,-3.9,18.89,3.65,0.49,0.63,-2.64,53
-20.19,-0.78,9.37,-1.03,-2.69,0.1,-7.65,-14.31,15.09,-1.42,0.29,1.51,-4.01,18.67,3.48,3.08,-2.83,-3.42,53
-19.93,-0.89,9.5,-2.0,0.2,2.83,-7.89,-16.21,12.76,17.09,-38.82,-4.44,-3.57,16.23,1.5,88.67,-51.66,-22.41,53
-23.99,-2.65,10.65,-13.28,-64.31,27.64,-3.42,-10.67,18.41,84.37,-103.27,-28.22,-4.06,25.01,-4.73,110.25,-24.46,-33.11,53
-16.94,4.38,10.75,37.65,-244.14,64.4,1.79,-5.42,20.4,47.07,-21.68,-8.06,-7.77,13.0,-6.83,-3.86,10.45,-1.22,53
10.33,6.12,23.94,-28.13,-147.12,8.2,3.7,-11.11,19.91,-27.78,-9.08,-4.25,-6.35,18.2,-7.06,-9.91,7.23,1.86,53
-2.61,2.77,20.53,-4.64,-1.07,-5.42,3.02,-9.05,19.23,-6.79,-1.32,-0.15,-5.62,17.68,-6.29,-1.71,4.1,3.17,53
0.52,2.46,21.19,-4.54,3.61,2.49,2.02,-8.39,19.06,-4.98,2.78,1.42,-6.79,16.88,-7.2,0.1,1.81,-2.39,53
-1.56,3.19,20.68,-1.27,8.06,-1.42,2.52,-9.34,19.1,1.12,-1.32,-1.27,-6.65,17.95,-6.57,3.32,4.39,-1.07,53
-0.56,2.43,21.35,1.22,-3.42,1.95,2.45,-8.4,19.07,2.29,0.83,1.03,-6.61,17.05,-6.92,-0.29,2.83,1.03,53
-0.51,3.2,20.8,1.66,-4.0,1.71,2.58,-8.81,19.08,-2.64,-0.63,-0.63,-6.7,17.55,-6.7,0.15,1.03,0.29,53
-0.4,2.59,21.05,-2.0,-0.63,-0.15,2.42,-9.09,19.07,0.93,-0.44,1.46,-6.97,17.1,-6.82,1.17,1.81,-2.1,53
-0.68,2.53,20.95,1.61,-1.56,2.34,2.66,-8.78,19.08,-1.9,-1.37,-0.73,-6.83,17.02,-6.79,1.42,1.22,0.15,53
-0.54,2.63,20.9,-0.88,-1.42,-0.15,3.08,-9.35,19.18,-0.05,-1.71,-0.73,-6.64,17.41,-6.67,2.59,0.88,-2.0,53
-0.21,2.33,21.11,1.37,-1.51,1.17,2.71,-9.22,18.99,0.15,0.1,-1.12,-6.7,17.57,-6.63,4.05,1.61,-0.73,53
-0.43,2.37,20.95,1.37,-2.98,0.0,2.52,-9.03,19.1,0.29,-1.32,0.05,-6.92,16.94,-6.82,1.66,1.76,0.39,53
-18.86,0.45,9.59,9.47,0.2,6.25,-7.01,-13.47,15.72,-1.51,-0.63,-1.56,-3.03,19.58,2.94,7.42,-2.49,-3.96,54
-19.25,0.02,9.55,1.81,1.42,-2.25,-7.39,-12.56,15.6,4.49,4.2,4.54,-2.79,19.52,3.06,4.83,0.1,-4.49,54
-19.63,-0.17,10.57,5.08,1.22,-0.2,-6.68,-14.45,15.63,-4.15,-2.15,-1.66,-4.03,19.35,2.86,0.15,0.63,-1.42,54
-18.48,0.51,10.15,1.03,-2.49,0.88,-7.18,-13.86,15.11,-0.15,-2.73,-1.03,-4.64,18.54,2.66,0.93,5.08,-3.12,54
-19.48,1.38,9.65,5.22,-0.2,3.08,-6.65,-14.27,15.79,-1.12,-3.56,-1.61,-3.74,19.1,2.78,1.71,-1.42,-0.98,54
-19.65,-0.53,10.46,-1.12,-1.42,-0.24,-7.17,-13.8,15.42,9.67,-26.17,-6.49,-4.79,18.76,1.53,21.87,-12.6,-4.88,54
-19.37,-0.45,9.84,0.54,-2.39,1.12,-3.62,-15.14,16.09,41.45,-73.63,-38.57,-4.82,18.61,-1.24,134.37,-89.01,-43.7,54
-19.32,-0.49,10.74,-1.47,-4.0,1.27,6.11,-11.41,20.44,69.53,-54.15,-35.74,-10.71,21.07,-6.78,45.9,-1.76,-21.78,54
-21.0,-0.45,10.78,1.42,-33.11,12.35,1.97,-9.23,18.69,-46.63,4.2,13.18,-9.03,18.55,-7.54,11.77,14.45,-0.39,54
-18.4,-1.34,11.72,5.47,-162.94,24.41,1.46,-8.92,18.87,5.18,-2.25,-1.51,-7.96,16.99,-6.55,5.86,5.42,-0.83,54
-8.15,1.96,17.74,-21.88,-203.32,47.31,0.77,-9.88,18.75,-1.61,-1.56,-4.1,-7.3,16.61,-5.84,-1.76,1.76,-2.29,54
2.26,5.55,21.03,9.52,76.07,-1.71,1.91,-10.34,18.9,5.57,-6.35,-3.27,-7.46,17.51,-5.85,3.66,5.42,2.0,54
-2.64,2.36,21.11,10.06,-13.72,4.0,2.61,-9.42,19.34,2.39,-1.81,-0.68,-6.55,17.92,-6.5,4.83,1.56,-0.1,54
-3.56,1.46,20.65,-0.49,-2.0,-3.56,2.22,-9.29,19.08,-2.69,0.68,0.59,-7.52,17.01,-6.83,-0.29,-2.49,-2.83,54
-2.63,0.93,21.18,1.76,-10.89,2.59,1.87,-10.5,18.87,-2.69,2.64,0.2,-7.4,17.33,-6.15,0.68,-1.9,-3.86,54
-1.59,1.98,21.21,1.51,-4.3,1.56,1.09,-9.71,18.6,-0.39,1.51,-0.44,-7.95,16.84,-6.51,-1.17,2.05,-5.03,54
-1.86,2.4,21.11,-2.05,0.54,0.39,1.65,-10.15,18.71,0.49,-1.46,-1.07,-7.45,17.55,-5.84,2.0,-1.86,0.83,54
-2.26,1.08,21.15,-2.54,2.0,-0.73,1.82,-9.85,18.9,2.29,-1.03,-0.78,-7.42,17.46,-6.32,2.25,4.49,-1.86,54
-3.04,2.03,20.74,1.37,-2.39,0.24,1.87,-9.58,18.98,0.88,-0.68,-1.17,-7.71,17.35,-6.48,1.51,2.64,-1.86,54
-2.55,1.55,21.17,0.73,-4.3,0.63,1.74,-10.01,18.92,-1.22,-1.56,-0.68,-7.91,17.21,-6.21,0.44,0.73,-3.47,54
-1.28,2.06,21.27,2.34,-2.54,3.17,3.06,-8.74,19.03,-0.05,0.2,0.39,-8.29,16.59,-6.94,1.51,1.56,-0.29,55
-1.55,2.33,21.19,-0.29,-1.03,1.07,3.05,-9.1,18.97,-0.24,0.05,-1.42,-8.12,16.87,-6.45,-1.76,2.78,-3.17,55
-1.87,1.82,21.19,-0.98,0.39,0.49,3.44,-8.91,18.98,-0.34,0.2,0.63,-8.18,16.96,-6.34,2.0,1.56,-0.29,55
-2.2,2.05,21.07,1.9,-1.32,1.95,3.64,-8.72,18.94,0.44,0.98,0.68,-8.33,16.6,-6.76,-0.93,3.03,-1.32,55
-1.95,2.37,20.98,0.15,-0.83,1.37,2.74,-8.88,18.88,-0.88,1.86,-0.1,-8.22,16.85,-6.57,-1.56,2.54,-0.88,55
-1.58,2.16,21.27,-0.39,-2.49,0.54,3.69,-9.15,18.99,0.59,-1.17,-0.24,-7.97,17.01,-6.62,0.29,2.29,-0.34,55
-1.76,2.55,21.07,0.34,-0.93,1.32,3.34,-8.32,19.16,-0.15,-0.49,0.44,-7.85,17.24,-6.38,2.73,2.39,-0.39,55
-1.79,2.27,21.16,1.17,-2.64,0.73,3.71,-8.98,19.19,-2.1,-0.1,-0.68,-7.68,17.53,-6.48,2.0,1.81,-0.44,55
-1.36,2.61,21.16,1.86,-1.22,1.12,2.65,-8.68,18.84,-1.56,2.83,1.37,-8.02,17.16,-6.65,-1.71,1.61,-2.93,55
-1.19,2.55,21.16,-0.54,0.39,1.03,2.74,-9.1,19.04,0.49,0.39,0.0,-8.89,16.01,-6.3,-1.32,0.68,-0.59,55
-2.53,1.97,20.83,-2.44,0.0,-0.73,3.34,-8.52,19.26,0.34,-0.73,0.98,-8.08,17.16,-6.2,1.27,4.98,1.12,55
-1.85,1.69,21.25,1.37,-4.69,2.0,3.17,-8.85,19.15,-3.76,1.61,-0.49,-7.34,17.45,-7.03,1.71,4.2,-0.24,55
-1.04,2.74,21.18,2.78,-3.47,2.83,2.36,-9.47,18.81,-1.47,1.66,0.98,-7.76,17.53,-6.55,-1.95,1.17,-2.83,55
-1.12,3.06,21.17,0.15,1.32,0.34,2.37,-9.31,18.93,0.59,-2.44,-1.32,-8.15,17.1,-6.2,1.56,-0.29,-1.86,55
-1.86,2.07,21.11,-0.15,1.03,0.44,3.9,-9.28,19.21,2.69,-3.03,-0.78,-8.11,16.83,-6.52,2.93,1.27,-0.88,55
-1.97,2.45,20.97,1.22,-0.73,1.17,3.1,-8.05,19.21,-0.88,2.2,1.76,-7.83,17.33,-6.55,3.52,1.46,-0.24,55
-1.48,2.21,21.2,0.83,-2.34,1.12,2.94,-9.0,18.96,-4.93,1.66,0.49,-8.27,16.87,-6.71,1.61,2.0,-0.68,55
-1.53,2.58,21.1,1.27,-1.32,1.95,2.28,-9.1,18.83,-2.2,2.15,1.51,-8.02,17.03,-6.9,0.15,1.03,0.24,55
-1.42,2.28,21.22,-1.12,-2.44,1.12,2.52,-9.48,18.8,1.07,-0.05,0.34,-8.36,16.56,-6.95,-0.93,4.2,-0.83,55
-1.82,2.58,20.95,0.78,-0.93,1.03,2.63,-9.11,18.76,0.73,-2.54,-1.17,-7.82,17.1,-6.69,1.17,1.76,0.54,55
4.41,4.97,20.77,-4.74,200.93,-22.9,-8.18,-13.67,14.79,-0.83,-2.93,-2.98,-6.86,18.02,-5.95,-2.78,5.86,-5.91,56
-25.71,-11.42,12.84,8.35,16.46,-3.71,-7.53,-13.71,15.09,3.12,1.71,2.15,-6.8,17.8,-4.97,1.07,1.51,-2.05,56
-21.81,-1.87,9.56,3.27,19.19,-10.06,-7.74,-13.99,14.97,-0.68,-3.27,-4.74,-6.85,18.16,-6.15,0.05,8.89,-6.45,56
-19.99,0.07,8.18,-2.73,-8.94,-3.52,-6.84,-14.57,15.01,0.44,-2.1,-2.0,-6.74,17.8,-6.17,1.17,2.88,-0.44,56
-19.91,-0.27,9.02,0.2,-4.2,0.05,-6.98,-14.02,15.15,1.46,-2.49,-4.49,-7.45,18.0,-5.6,0.68,-2.29,-0.54,56
-19.98,0.22,9.49,3.71,2.78,3.17,-6.93,-15.89,14.19,3.95,-10.5,-3.42,-7.93,16.72,-5.88,8.5,0.59,-0.93,56
-19.53,-0.5,9.14,1.9,-5.96,0.49,-4.16,-14.52,16.59,31.45,-101.95,-32.96,-7.06,17.24,-5.52,0.44,0.1,-0.63,56
-19.96,-0.8,9.75,1.9,-3.76,0.73,0.9,-8.34,19.81,83.3,-50.78,-21.0,-6.74,18.38,-5.09,3.03,1.71,0.68,56
-19.16,-0.6,9.67,2.34,-7.67,0.49,2.11,-9.31,18.95,-26.61,-12.3,-5.27,-6.56,18.27,-5.48,3.61,0.49,0.29,56
-20.96,-2.43,9.63,0.63,-16.16,8.5,2.75,-9.74,18.74,0.98,-9.13,-9.08,-7.09,17.82,-5.61,2.49,1.22,-1.32,56
-18.17,-3.27,13.57,-6.05,-162.74,46.97,2.54,-9.92,18.61,1.03,2.69,-0.73,-7.36,17.97,-5.47,2.25,3.76,-1.37,56
-0.23,-0.97,22.19,-23.19,-233.45,64.31,2.81,-9.94,18.71,3.27,0.44,-1.22,-7.2,17.69,-5.92,-0.68,3.71,-2.59,56
-2.27,3.05,20.5,-18.6,15.92,-7.96,3.23,-9.73,18.6,1.17,-0.2,0.24,-7.06,17.97,-5.35,3.86,-0.05,0.39,56
-0.23,1.9,21.81,-6.64,-19.04,-0.2,2.65,-9.44,18.72,-0.34,0.34,-0.24,-7.38,17.48,-5.53,4.74,-0.63,1.03,56
-1.25,1.39,21.22,2.39,0.93,-1.03,2.46,-10.36,18.34,1.17,1.27,-3.52,-7.35,17.41,-5.82,0.98,1.56,0.98,56
-1.32,1.21,21.41,2.88,-1.86,0.2,3.42,-9.99,18.74,3.12,-2.1,0.44,-6.8,17.79,-5.75,3.52,0.39,0.44,56
-0.71,1.35,21.35,1.61,-1.56,1.42,3.01,-9.16,18.75,0.98,-0.54,0.29,-7.27,17.63,-6.02,0.73,2.59,-0.83,56
-1.46,1.88,21.16,1.46,-0.68,0.24,3.3,-9.89,18.65,-0.63,1.42,-0.83,-7.5,17.41,-5.59,1.12,-0.78,-0.29,56
-1.55,0.86,21.24,2.69,-3.61,-2.2,3.08,-9.93,18.57,-1.95,0.29,0.05,-7.18,17.79,-5.85,0.93,1.46,0.93,56
-0.75,1.49,21.52,5.22,-3.47,2.93,2.6,-9.56,18.53,-2.39,-0.54,0.54,-7.49,17.14,-6.28,-0.63,1.95,-1.71,56
-19.01,-2.61,10.32,1.95,-3.47,-6.2,-7.12,-14.72,14.73,-1.95,3.56,-5.27,-5.62,18.85,3.69,-6.45,-6.45,1.32,57
-19.36,-1.24,8.69,-0.54,-2.34,-3.96,-7.55,-14.86,14.74,-6.54,-5.91,-5.62,-5.57,17.69,2.71,-2.98,-0.05,-5.71,57
-20.22,-0.57,8.94,0.59,-2.54,-1.07,-7.57,-13.85,14.72,-4.1,-3.27,-5.86,-4.95,19.4,3.14,1.42,-7.76,-2.1,57
-19.79,-0.62,9.58,2.15,-4.3,0.98,-6.96,-14.33,14.87,-2.34,-4.44,-3.61,-4.91,19.06,3.47,2.34,-1.27,-0.29,57
-19.47,-0.78,9.66,1.07,-6.45,1.61,-6.72,-14.45,14.99,3.37,-2.69,-2.2,-5.14,18.81,3.06,4.49,-6.93,-0.29,57
-19.62,-1.0,9.88,0.88,-3.56,3.56,-7.09,-14.84,14.57,3.17,-3.27,0.88,-5.6,18.03,2.46,8.89,-6.54,-3.52,57
-22.58,-0.85,9.27,14.45,-73.58,11.33,-6.6,-13.86,13.91,19.48,-56.79,-39.01,-6.53,17.76,-1.8,78.32,-80.86,-22.41,57
-17.78,1.46,12.18,-9.03,-245.9,33.06,2.66,-12.37,19.4,48.39,-101.37,-46.58,-6.82,23.17,-3.7,95.21,-23.34,-16.46,57
