ACC-X-Ring1,ACC-Y-Ring1,ACC-Z-Ring1,GYRO-X-Ring1,GYRO-Y-Ring1,GYRO-Z-Ring1,ACC-X-Ring2,ACC-Y-Ring2,ACC-Z-Ring2,GYRO-X-Ring2,GYRO-Y-Ring2,GYRO-Z-Ring2,ACC-X-Ring3,ACC-Y-Ring3,ACC-Z-Ring3,GYRO-X-Ring3,GYRO-Y-Ring3,GYRO-Z-Ring3,TEST
-0.04,-5.04,15.12,-37.94,-246.92,134.33,5.75,-20.43,9.75,-4.79,-22.27,-3.66,5.1,14.34,-10.36,25.0,3.86,-19.43,1
14.08,-0.96,19.93,51.51,-74.95,35.06,3.9,-17.81,10.75,1.76,-5.27,-1.76,5.27,14.97,-13.77,92.24,121.29,-42.19,1
10.68,-4.79,17.83,-2.15,-27.0,11.38,4.52,-17.38,11.05,-9.28,0.05,6.2,7.05,11.79,-10.56,1.22,29.64,-18.9,1
10.51,-1.86,16.84,2.59,-5.62,-0.39,1.14,-20.53,9.04,-25.93,30.13,-8.25,7.5,14.77,-9.64,3.12,34.03,-15.48,1
12.15,-2.05,17.29,-6.64,3.37,7.76,2.79,-18.51,8.3,0.24,21.58,7.57,8.3,13.57,-8.5,-4.15,18.6,-2.34,1
13.47,-1.48,16.75,-49.71,90.28,-47.12,1.24,-18.38,9.21,28.17,23.63,7.81,8.78,14.29,-8.62,-3.03,4.59,-5.47,1
11.84,-7.35,20.01,-11.87,43.85,-14.26,1.28,-19.85,10.75,10.89,14.26,6.59,7.42,14.77,-8.9,3.08,5.42,-0.73,1
0.45,-0.37,18.04,1.37,70.36,-13.43,0.52,-18.85,10.55,1.22,-0.93,0.24,8.16,14.56,-8.7,0.29,5.03,-3.37,1
1.32,-3.96,20.52,44.78,102.69,-23.54,0.42,-18.91,10.24,-0.1,0.83,1.27,7.36,13.85,-8.15,-0.59,0.34,-0.93,1
-7.88,2.17,19.5,8.84,18.41,-15.38,0.64,-18.83,10.61,2.05,0.29,-0.34,8.09,14.41,-8.26,1.81,3.27,-3.56,1
-4.4,-2.06,21.16,7.08,10.69,-4.44,0.61,-18.65,10.26,-0.83,0.98,1.12,7.73,14.6,-8.05,2.83,0.73,-0.73,1
-3.96,-1.98,21.2,-4.69,-6.88,-0.73,0.61,-18.78,10.41,-1.27,-1.86,-0.63,7.39,14.3,-8.38,-1.42,2.78,-2.59,1
-4.54,-2.19,21.2,-7.13,-10.11,-0.78,0.68,-18.88,10.45,1.61,0.29,-0.29,7.87,14.55,-8.38,0.15,3.32,-1.76,1
-4.64,-1.9,21.13,5.96,2.54,1.61,0.66,-18.88,10.48,-1.42,-0.54,-0.34,7.86,14.54,-8.19,0.1,1.81,-1.51,1
-3.77,-2.89,21.28,-1.66,-0.98,-0.15,0.7,-18.75,10.49,0.1,-1.46,0.39,7.93,14.38,-7.9,2.49,0.59,0.1,1
-4.83,-2.18,20.97,-3.42,-1.76,0.15,0.63,-18.63,10.51,0.1,-0.78,-0.68,7.85,14.59,-8.18,-0.98,0.98,0.2,1
-4.5,-2.44,21.19,0.98,-2.2,2.15,0.51,-18.7,10.13,-0.49,0.34,0.39,7.44,14.76,-8.45,2.2,2.1,-0.15,1
-4.73,-2.49,21.0,1.07,-0.98,0.39,0.78,-18.71,10.48,0.34,-0.54,-0.63,7.34,13.96,-8.2,-1.17,1.51,0.0,1
-4.28,-2.24,21.08,-0.29,-3.76,0.34,0.8,-18.74,10.51,0.24,-0.68,-0.59,7.97,14.51,-8.12,0.2,2.49,-1.27,1
-4.33,-2.44,21.33,-0.93,-2.69,0.24,0.81,-18.77,10.44,0.24,-0.73,0.2,7.88,14.78,-8.13,1.9,1.66,-0.98,1
4.76,-7.72,17.15,-9.38,-194.87,86.96,-0.65,-20.78,9.0,11.77,-12.84,-4.3,5.83,13.85,-10.41,-51.56,-117.19,46.0,2
16.32,-0.18,23.44,61.72,-61.82,9.42,0.77,-19.08,9.16,11.87,3.42,5.18,6.53,16.8,-9.49,-13.97,-2.64,8.45,2
11.48,-5.33,17.18,5.91,-2.1,4.69,2.87,-18.66,10.31,-0.83,-4.2,-1.76,5.37,13.82,-9.09,7.76,4.05,0.49,2
11.85,-3.95,16.84,-4.3,-4.64,3.71,3.1,-16.31,10.26,-11.43,14.75,-1.46,7.23,14.66,-8.96,20.95,19.53,-26.07,2
15.91,0.76,17.11,-23.68,98.44,-43.02,3.35,-19.24,13.19,-7.32,28.56,7.37,7.48,15.15,-12.41,46.78,87.79,-24.41,2
7.11,-6.23,20.34,-66.16,90.77,-24.76,1.46,-20.13,10.68,4.3,12.4,7.08,8.5,13.81,-8.64,3.95,25.0,-18.6,2
-4.6,-3.46,17.25,58.35,127.05,-50.34,1.21,-19.13,9.47,14.99,12.89,3.47,6.83,15.05,-8.77,-1.17,31.54,-17.53,2
-6.96,-3.33,20.21,32.76,89.94,-15.53,-0.52,-18.91,9.06,1.32,0.05,1.22,8.0,15.11,-8.76,6.69,-2.34,-1.42,2
-5.15,-3.42,20.3,-20.56,-27.69,1.66,0.2,-19.43,9.25,-0.83,0.83,-2.98,6.64,13.8,-8.24,1.07,0.49,-2.0,2
-5.53,-2.63,20.65,5.32,0.88,1.12,0.31,-19.21,9.12,-1.27,-0.78,0.44,6.17,14.39,-8.64,-4.05,1.32,-0.59,2
-4.71,-3.78,20.97,-7.13,-5.71,-1.07,0.33,-19.36,9.54,2.39,-0.1,0.05,7.21,14.97,-8.31,0.73,2.93,-0.39,2
-4.8,-3.84,21.21,-4.74,-6.35,0.29,0.35,-19.37,9.56,0.24,-0.34,-2.1,7.26,15.01,-8.46,1.27,2.34,-1.07,2
-5.25,-2.44,20.85,0.49,-7.81,-0.83,0.41,-19.38,9.53,-0.0,-1.03,-0.49,7.6,14.76,-8.26,-1.61,1.51,-3.91,2
-4.7,-3.31,20.96,3.17,-3.03,2.2,0.38,-19.32,9.5,1.66,-0.78,-0.05,7.45,14.85,-8.18,-0.29,1.27,-0.24,2
-4.93,-3.68,21.03,-2.1,-7.52,1.51,0.63,-18.97,9.63,0.54,0.1,0.34,7.06,15.25,-8.31,2.2,0.59,-0.68,2
-5.12,-4.01,20.9,-2.15,-3.71,0.63,0.38,-19.26,9.5,0.2,-0.83,1.12,6.92,15.28,-8.45,2.29,2.15,-1.12,2
-5.17,-3.97,20.75,-1.51,-1.95,-1.22,0.43,-19.36,9.42,-0.73,-0.93,-0.15,7.36,15.02,-8.17,-0.39,0.73,-1.17,2
-5.06,-3.5,20.78,-1.81,-2.0,0.59,0.41,-19.29,9.45,0.73,-0.29,-0.2,6.73,14.36,-8.14,0.24,-0.2,0.29,2
-4.55,-4.07,21.0,1.51,1.37,-0.2,0.41,-19.31,9.52,-1.76,-1.22,-0.39,6.52,15.28,-8.65,-0.54,4.69,-2.98,2
-4.57,-3.93,20.96,-0.93,-2.2,0.44,0.42,-19.32,9.6,2.69,-0.15,-1.17,6.64,14.93,-8.44,0.15,3.66,0.49,2
-8.61,-8.77,15.61,-58.11,-195.12,91.5,-0.42,-22.28,10.07,20.02,-7.28,20.17,3.06,16.21,-12.75,32.23,71.14,-43.41,3
18.66,-2.82,19.35,94.97,-98.05,33.25,1.81,-18.88,8.86,-3.91,4.98,-15.82,6.77,15.53,-11.35,16.21,22.75,-18.51,3
13.3,-5.51,17.43,-20.26,-30.96,19.92,2.27,-20.37,10.48,-14.75,-2.64,-9.08,7.01,13.98,-8.87,1.95,19.14,-13.53,3
11.37,-5.49,17.04,-9.38,2.59,3.27,1.64,-16.18,10.46,-15.53,18.8,-7.13,6.65,14.99,-9.57,3.47,14.4,-7.42,3
3.76,-9.43,16.64,-60.6,86.82,-29.1,1.96,-19.78,9.32,-8.89,10.16,3.17,6.15,14.93,-9.66,2.98,12.16,-6.49,3
3.69,-4.87,19.92,-11.18,111.87,-48.14,0.81,-20.52,7.66,-15.09,-1.32,8.2,6.67,15.36,-9.4,4.83,5.37,-1.81,3
2.26,-8.47,20.78,25.59,74.61,-19.68,0.33,-20.32,7.6,1.32,4.35,-1.22,6.76,14.95,-8.92,-0.05,0.73,0.2,3
-2.5,-5.63,21.42,12.79,57.81,-10.89,0.1,-20.41,7.15,-6.4,2.2,4.59,6.8,15.65,-9.08,4.05,1.71,0.73,3
-6.32,-3.61,20.21,4.15,27.88,-7.81,-0.07,-20.06,7.21,1.03,1.71,2.98,6.4,14.5,-8.86,0.49,0.1,1.66,3
-3.78,-3.82,21.18,-2.69,-11.91,0.59,0.02,-20.41,7.47,3.03,0.78,3.27,6.02,14.72,-9.08,-1.22,3.22,-1.76,3
-5.45,-4.79,20.22,-15.28,-17.63,-4.79,-0.08,-20.26,7.37,-0.49,-2.1,2.1,6.28,15.33,-9.27,1.66,3.86,-2.34,3
-7.18,-4.82,20.18,4.44,3.66,0.93,-0.06,-20.18,7.6,-1.61,-1.12,-1.32,6.25,15.19,-9.22,2.39,2.05,0.1,3
-6.78,-5.06,20.02,-0.29,-3.08,-0.34,0.1,-20.14,7.47,1.86,-0.93,-1.95,6.27,14.68,-9.18,-0.54,2.54,-1.51,3
-6.33,-5.14,20.36,-1.9,-1.22,-0.15,0.04,-20.25,7.33,-0.0,-0.2,-0.49,6.15,15.09,-9.13,-2.34,3.17,-2.78,3
-4.84,-4.9,20.73,0.29,-3.76,1.51,-0.02,-20.26,7.27,0.24,-0.88,0.1,6.29,15.44,-9.0,2.39,3.17,-1.56,3
-5.55,-5.58,20.7,-1.9,-0.29,-0.88,0.13,-20.19,7.43,-1.07,-0.73,-0.98,6.27,15.26,-8.97,0.34,3.56,-1.95,3
-4.41,-5.63,20.86,-3.71,-3.96,0.63,0.06,-20.3,7.64,1.32,0.0,0.2,6.02,15.13,-9.06,0.83,4.15,-2.15,3
-5.32,-4.64,20.41,-2.05,-5.08,0.34,0.07,-20.23,7.67,0.68,0.0,0.24,6.39,15.3,-9.12,1.95,2.44,-1.95,3
-4.43,-5.52,20.66,-1.07,-2.59,1.17,0.03,-20.28,7.58,2.93,1.46,-0.83,6.65,14.84,-8.82,1.27,1.76,0.24,3
-5.1,-5.01,20.36,-2.25,-4.1,1.27,0.11,-20.17,7.66,0.88,0.05,0.05,6.36,14.55,-8.71,-0.49,1.37,-1.9,3
-4.31,-5.91,20.83,-6.54,1.76,-2.83,1.43,-19.31,9.47,18.9,11.91,10.89,3.31,15.46,-11.25,0.05,-3.66,-5.08,4
-10.02,-8.62,13.29,-26.03,-151.32,72.61,1.37,-20.05,9.07,-3.66,-4.93,-0.49,3.3,13.32,-9.36,23.1,18.9,-6.35,4
13.87,-10.95,17.73,68.41,-227.0,65.48,-0.83,-19.34,6.87,-37.79,21.92,-10.5,4.72,16.46,-13.97,58.79,102.93,-30.03,4
13.62,-4.13,19.31,-3.71,-31.45,15.04,-1.63,-13.69,4.66,3.52,0.59,12.06,4.82,13.54,-11.09,3.95,28.17,-26.46,4
8.65,-4.33,16.99,-8.11,-12.01,7.81,-0.16,-21.21,6.59,-6.74,3.27,0.29,4.99,13.97,-10.18,2.59,18.46,-13.38,4
15.02,-0.69,18.66,-4.93,124.07,-64.55,-0.77,-19.59,7.43,8.5,3.52,-1.07,6.0,13.8,-10.16,0.73,1.66,1.95,4
7.14,-15.41,23.58,-63.67,55.13,-21.0,-0.52,-20.25,7.2,-0.0,-3.42,-0.49,5.42,14.91,-10.62,-2.34,2.25,-1.12,4
-5.37,-7.63,18.39,51.03,134.96,-16.6,-0.45,-20.24,7.62,2.59,0.49,-2.78,6.16,13.78,-9.59,1.9,-0.49,1.17,4
-5.87,-4.01,19.48,-12.06,-15.04,-3.91,-0.34,-20.35,7.46,-1.32,-1.37,0.83,5.51,14.36,-9.94,2.15,-1.95,1.07,4
-5.21,-6.43,20.88,2.78,2.15,2.93,-0.28,-20.18,7.73,1.07,-1.71,0.78,5.46,14.71,-10.65,-0.44,10.25,-5.42,4
-5.09,-5.81,20.48,-4.35,-0.68,-4.15,-0.45,-20.25,7.2,0.29,-1.32,-1.76,6.93,14.31,-8.74,4.1,-5.47,5.08,4
-3.7,-5.66,20.71,1.12,0.0,1.12,-0.42,-20.25,7.8,-2.49,-3.96,0.1,5.6,14.18,-10.02,-0.63,1.46,-1.27,4
-4.4,-5.89,20.26,-3.56,-3.52,0.59,-0.28,-20.3,7.28,1.32,-1.17,-0.15,5.11,14.55,-10.01,-1.32,2.49,-0.73,4
-4.35,-7.05,20.57,-4.49,-4.74,-0.39,-0.78,-19.93,7.69,2.93,1.76,-0.24,4.74,13.19,-10.01,-2.1,2.39,-2.34,4
-5.13,-5.01,20.37,-0.59,4.98,-0.88,-0.11,-20.21,7.35,2.59,-0.54,0.0,5.96,15.47,-9.77,1.86,2.73,0.24,4
-5.07,-6.03,20.0,0.29,0.29,1.17,-0.2,-20.08,7.66,-2.1,-0.59,-0.68,5.92,15.31,-9.9,1.86,3.71,-1.86,4
-3.57,-6.3,20.1,0.83,-3.61,3.08,-0.3,-19.97,7.96,1.86,-0.88,-0.24,6.09,14.91,-9.67,2.98,0.24,-0.29,4
-3.73,-6.09,20.89,1.12,-5.57,0.78,-0.2,-20.23,7.77,-1.07,-3.12,0.05,5.61,14.55,-9.78,-0.15,1.95,-0.54,4
-3.59,-6.19,21.11,1.03,-5.71,0.1,-0.48,-20.02,7.69,1.37,0.98,-2.98,5.4,14.11,-9.83,-1.51,4.39,-0.88,4
-4.12,-5.81,20.53,2.73,-3.56,1.17,-0.24,-20.02,7.81,1.22,-2.0,0.34,5.39,14.84,-10.1,2.39,1.37,-0.15,4
2.14,-14.46,15.36,-18.02,-194.73,72.71,-1.41,-19.01,8.36,-3.61,-1.61,3.27,5.24,15.08,-6.99,10.01,4.69,-8.84,5
19.68,1.66,24.54,67.28,-67.38,18.07,-0.58,-21.91,6.59,-36.47,15.19,-11.77,4.13,18.12,-12.86,84.52,123.78,-27.59,5
10.44,-5.59,18.02,2.29,-0.24,4.98,-1.07,-21.06,6.74,-4.39,4.54,13.82,5.62,13.72,-8.99,0.34,8.59,-21.24,5
13.67,-0.78,17.81,-25.49,146.63,-54.15,-0.52,-20.2,6.42,1.61,6.79,0.44,5.09,15.27,-10.37,-2.59,11.57,-3.42,5
2.44,-11.91,20.67,-62.06,68.51,-43.8,-0.77,-19.85,6.31,3.08,-0.44,0.34,5.97,15.47,-9.44,2.88,5.86,-2.83,5
-3.96,-6.42,19.57,43.12,71.19,-8.89,-0.56,-20.59,6.37,-1.42,-0.83,-2.54,5.99,15.52,-9.22,2.34,-3.56,0.88,5
-9.13,-4.36,18.86,5.08,2.1,-6.74,-0.56,-20.52,6.51,1.61,-0.88,-0.05,5.29,14.66,-9.66,0.98,-1.12,-0.1,5
-4.97,-8.23,20.98,-6.69,4.98,-7.71,-0.57,-20.66,6.44,-1.81,-0.98,0.63,5.19,15.17,-9.69,-0.88,2.29,-3.27,5
-3.44,-6.8,20.46,-1.42,0.39,-0.98,-0.51,-20.46,6.49,1.07,-0.49,0.73,5.63,15.31,-9.64,2.78,2.69,-1.37,5
-2.7,-7.53,20.91,-5.27,-7.03,0.59,-0.6,-20.45,6.61,-0.2,-0.54,-0.44,5.54,15.3,-9.52,2.0,-0.39,-0.29,5
-4.0,-6.58,20.0,-0.15,-2.0,-0.44,-0.63,-20.53,6.51,0.2,-1.17,0.63,5.3,14.99,-9.3,0.44,-0.15,0.63,5
-4.04,-7.24,20.18,-1.61,-4.44,0.54,-0.58,-20.52,6.64,0.2,-1.81,-0.78,4.85,15.15,-9.58,-0.15,0.44,-1.03,5
-4.07,-7.33,20.03,-0.44,-2.83,0.54,-0.48,-20.55,6.53,1.56,-0.78,-0.44,5.17,15.11,-9.43,1.22,1.12,0.34,5
-4.02,-7.52,20.35,0.24,-1.71,0.93,-0.5,-20.58,6.5,-0.2,-0.49,-0.2,5.39,15.47,-9.48,1.66,2.15,-1.76,5
-4.13,-7.6,20.02,-0.54,1.17,0.2,-0.63,-20.54,6.49,1.27,-0.68,0.24,5.27,15.2,-9.42,0.83,2.83,-1.32,5
-2.93,-7.54,20.39,-0.59,1.32,0.29,-0.51,-20.52,6.63,-0.83,1.12,-0.29,5.56,15.08,-9.37,1.81,-0.39,0.2,5
-3.62,-7.29,20.04,-0.39,0.34,0.29,-0.64,-20.58,6.26,-1.22,0.88,0.44,4.82,14.82,-9.21,1.07,0.88,-0.98,5
-3.61,-7.52,20.23,1.81,-2.1,0.88,-0.4,-20.51,6.6,-0.1,-0.05,0.2,5.7,15.99,-9.54,3.03,1.51,-1.22,5
-3.26,-7.33,20.04,0.54,-3.12,1.12,-0.56,-20.48,6.57,1.17,0.98,-1.32,5.25,15.25,-9.19,2.64,0.63,0.59,5
-2.89,-7.19,20.54,3.76,-4.49,1.22,-0.46,-20.57,6.64,-1.03,0.49,0.1,5.05,15.14,-9.38,0.54,1.03,-0.93,5
2.22,-3.81,17.86,25.63,-125.05,52.98,2.13,-16.81,9.71,31.4,1.81,2.59,6.19,12.74,-12.07,-21.53,-69.87,31.88,6
12.64,-0.08,22.48,30.37,-58.11,20.31,2.85,-18.75,11.38,4.05,-5.32,7.18,1.97,14.54,-14.52,-2.1,8.01,3.03,6
10.12,-0.28,17.82,13.67,-3.66,4.1,3.08,-18.06,11.04,-1.56,-0.78,-0.39,3.9,11.92,-12.47,-3.47,4.88,-0.39,6
10.68,-0.65,18.11,-2.69,-8.69,5.22,4.28,-18.09,12.01,-8.79,3.56,3.71,6.47,10.23,-10.46,44.14,8.4,-22.41,6
9.63,2.29,17.57,-35.89,130.22,-52.49,2.94,-23.81,9.48,-30.47,-5.96,36.47,3.02,13.25,-16.75,30.57,102.98,-33.06,6
10.56,-16.12,23.49,-44.68,18.55,-0.78,2.78,-19.57,8.96,2.54,5.71,4.79,6.61,10.79,-13.06,14.55,26.9,-12.16,6
-5.21,0.91,20.52,63.67,106.1,-17.14,0.59,-17.73,9.18,2.59,11.62,8.94,4.61,10.83,-13.1,-6.98,25.05,-12.4,6
-8.64,-1.17,19.56,-10.4,17.82,-19.82,1.31,-18.76,9.93,2.39,-0.54,0.15,7.65,11.36,-11.73,-0.29,8.06,-2.88,6
-3.45,-1.27,21.56,-2.49,0.83,-2.29,1.3,-18.79,10.18,0.24,-1.51,-0.98,7.23,11.78,-11.99,1.86,3.32,-0.29,6
-2.87,-0.62,21.29,2.15,-6.35,1.42,1.45,-18.85,10.27,4.39,0.54,-0.1,7.27,12.58,-12.19,1.32,5.27,-1.42,6
-2.31,-1.37,21.52,-0.2,-1.95,2.2,1.31,-18.93,9.88,-3.32,-0.68,-0.73,8.02,12.5,-11.58,2.15,2.0,-0.88,6
-3.15,-1.13,21.44,0.1,-5.42,1.32,1.46,-18.79,10.15,-1.03,-0.2,-1.71,8.03,12.8,-11.66,0.78,5.32,-2.64,6
-3.35,-1.01,21.19,-0.73,-2.29,0.2,1.5,-18.92,10.24,0.63,0.29,-3.32,8.05,12.24,-11.4,2.83,1.81,2.78,6
-2.74,-1.12,21.34,-1.9,-3.12,0.54,1.68,-18.86,10.39,-0.44,-0.05,-3.37,7.05,11.94,-11.57,-1.22,2.25,-0.78,6
-3.65,-1.34,21.07,-0.88,-2.49,-0.59,1.77,-18.54,10.27,-0.39,-0.73,-3.71,7.76,12.39,-11.53,0.98,4.1,0.88,6
-2.78,-0.35,21.34,2.34,-1.9,0.05,1.84,-18.89,10.39,-1.71,-2.0,1.32,7.68,12.08,-11.47,-1.66,1.12,-2.05,6
-2.91,-1.44,21.15,2.34,-2.1,2.0,1.78,-18.86,10.34,0.1,-1.71,0.73,7.93,12.53,-11.27,2.39,2.25,0.34,6
-3.21,-1.6,21.43,-1.07,0.63,-0.05,1.82,-18.76,10.19,-1.56,-0.2,-0.2,7.53,12.08,-11.24,0.49,-0.68,0.1,6
-2.91,-1.05,21.24,2.05,-3.03,1.71,1.61,-18.63,10.33,1.27,-0.29,1.56,8.22,12.38,-11.32,2.15,0.29,-0.54,6
-3.32,-1.68,21.46,-4.15,-0.88,-0.88,1.48,-18.82,10.24,-0.83,-0.1,1.17,7.58,11.79,-11.33,-0.24,0.73,0.0,6
14.57,-2.49,15.2,119.29,-170.95,50.24,-1.19,-17.52,9.35,0.68,2.83,-0.68,6.82,11.42,-12.71,-81.79,-134.23,29.54,7
12.12,-2.83,18.49,-5.22,-29.74,15.53,-1.53,-18.89,7.37,-30.86,51.03,-21.19,5.92,14.05,-11.6,-24.51,17.58,1.37,7
11.06,-1.45,17.17,-11.62,-0.78,2.34,-1.07,-20.51,7.95,-9.08,16.8,3.17,6.01,11.93,-10.15,9.52,-4.98,-1.9,7
7.56,0.8,13.54,-57.32,212.01,-117.38,-2.35,-19.46,7.78,8.59,7.86,6.45,7.27,9.22,-12.36,77.98,162.89,-42.04,7
-1.41,-10.22,20.42,10.79,61.23,-16.36,0.01,-20.81,8.94,-2.78,-3.42,-0.15,6.04,10.91,-12.72,-9.03,24.85,-21.04,7
1.13,-5.2,20.62,-3.56,16.16,-5.91,-1.24,-19.96,8.64,-0.78,-1.12,-0.83,8.57,12.56,-10.04,9.96,7.62,2.44,7
-4.58,-2.41,20.02,4.54,-10.11,4.74,-0.46,-20.36,8.96,-1.76,-5.08,-2.05,9.07,12.23,-10.33,-0.24,-5.22,-0.24,7
-2.62,-5.4,20.7,-0.54,-6.01,-0.15,-0.69,-21.97,8.87,-9.03,0.0,0.83,7.93,12.58,-10.88,-0.44,-0.54,-2.64,7
-1.08,-5.1,21.45,0.39,-3.52,0.29,-1.03,-19.92,8.66,2.88,1.27,0.39,7.22,12.59,-11.17,-2.0,3.37,-4.1,7
-0.74,-4.83,21.14,-7.91,-3.08,-1.27,-1.2,-19.56,8.88,3.71,2.1,-0.68,7.95,12.73,-10.49,0.98,2.29,-1.42,7
-0.77,-4.44,21.1,3.42,0.98,0.34,-1.08,-20.06,8.66,-1.66,-1.61,-1.71,8.17,12.34,-10.36,0.29,-2.73,0.83,7
-0.3,-5.08,21.24,-0.34,-0.63,0.29,-0.88,-19.84,8.63,-0.73,-2.1,-1.86,7.79,12.82,-10.89,0.2,0.44,0.0,7
-0.76,-4.89,21.31,1.56,-3.37,1.37,-0.96,-19.92,8.52,-0.93,-1.17,-0.39,7.74,12.41,-10.54,-0.49,1.71,-0.68,7
-1.27,-4.48,21.05,3.22,-3.47,1.56,-1.39,-19.12,8.1,-0.78,-0.54,0.24,7.84,12.62,-10.74,0.44,1.12,0.63,7
-1.29,-5.05,21.18,-0.78,-2.88,0.98,-1.08,-19.81,8.43,-1.07,0.34,-0.24,7.83,12.84,-10.8,0.63,3.17,-1.81,7
-1.02,-5.63,20.68,-3.22,-2.69,1.07,-0.99,-20.25,8.38,-0.44,-0.2,-0.98,8.08,12.6,-10.47,0.88,1.42,-1.22,7
-0.91,-4.96,20.93,-1.03,-2.1,0.93,-0.47,-19.94,8.82,-0.49,-1.22,-0.78,8.34,13.15,-10.64,0.54,1.22,-0.39,7
-0.77,-5.14,21.03,-0.54,0.24,0.2,-0.95,-20.14,8.24,-1.32,-1.32,-1.56,7.65,12.71,-10.51,0.68,0.63,-0.05,7
-0.53,-4.48,21.0,2.39,-0.24,0.29,-0.66,-19.96,8.49,-1.27,-2.0,-1.66,7.57,12.49,-10.83,-0.24,1.07,-0.63,7
-0.7,-5.41,21.14,-0.15,-2.83,1.22,-0.95,-19.85,8.24,-0.63,-1.12,-1.66,7.8,12.67,-10.53,-0.44,2.73,-0.44,7
3.29,-7.04,16.25,73.68,-229.83,100.49,-0.36,-18.27,10.04,-1.81,-0.44,13.53,11.62,3.18,-12.18,-33.64,38.33,31.05,8
6.5,1.71,18.43,-24.12,3.42,14.06,-0.84,-18.06,10.04,3.56,-5.03,2.34,4.74,13.72,-13.2,-8.15,2.69,-2.2,8
8.71,0.17,16.68,3.86,-3.91,10.4,1.66,-14.86,11.74,-17.48,7.71,2.1,4.76,13.12,-12.77,12.99,3.52,1.51,8
11.24,0.2,17.2,0.05,-5.22,3.76,-1.21,-18.27,9.15,3.66,59.52,2.05,17.2,14.41,-8.02,41.41,25.29,-59.52,8
11.88,5.42,18.0,-39.26,162.06,-69.34,-3.67,-21.82,7.83,0.44,11.96,10.16,4.06,13.01,-15.3,4.93,75.88,-19.09,8
7.02,-9.83,22.88,-32.76,93.65,-36.33,-2.94,-19.57,9.35,-1.12,-7.13,-3.91,8.35,12.59,-10.73,-2.15,3.32,-8.94,8
-3.42,-3.23,20.11,-0.59,14.89,-1.86,-3.5,-19.18,8.75,-0.44,3.22,2.78,7.48,11.18,-11.0,-4.69,3.86,-6.15,8
-2.24,-1.6,21.74,0.88,-2.2,1.71,-2.77,-20.2,9.06,1.12,0.68,14.7,7.81,12.88,-10.96,2.83,1.46,-2.05,8
-2.61,-2.55,20.9,-14.36,-1.37,-6.2,-3.13,-19.39,9.22,-2.49,-2.69,-2.2,7.73,12.18,-10.9,3.56,3.17,-2.64,8
-2.0,-2.35,21.45,3.22,2.98,-0.05,-2.92,-19.68,9.15,-1.76,-3.03,-1.81,7.54,11.87,-11.11,-1.76,0.68,-1.46,8
-1.58,-2.64,21.55,-7.47,-9.18,0.0,-3.11,-19.33,8.98,0.44,-0.98,-0.49,8.24,12.9,-11.18,2.05,0.88,-0.63,8
-2.57,-2.58,21.41,-0.29,-8.35,1.86,-3.2,-19.59,8.9,-0.29,-0.05,0.39,7.74,12.26,-11.05,0.88,1.9,-1.81,8
-2.88,-2.86,21.12,1.76,-3.81,0.59,-2.8,-19.38,8.94,0.63,0.29,0.05,8.11,12.58,-10.78,-0.63,0.63,-2.0,8
-2.87,-3.58,21.08,-2.2,-2.25,0.44,-2.85,-19.52,9.18,0.29,0.68,1.61,7.96,12.68,-11.12,1.95,1.86,-0.78,8
-2.89,-2.9,21.18,-4.2,-0.39,-0.1,-2.89,-19.35,9.11,-0.24,-0.93,-2.39,8.29,12.91,-11.3,2.98,0.73,-0.93,8
-2.75,-2.35,21.21,-3.08,0.0,0.98,-2.97,-19.26,9.0,0.34,-1.46,-0.98,7.52,12.36,-11.09,0.78,2.2,0.0,8
-2.04,-2.09,21.35,1.66,-2.34,0.15,-2.82,-19.28,9.06,0.44,1.27,1.27,7.77,12.41,-11.03,-1.03,3.52,-0.98,8
-2.52,-2.4,21.22,2.44,-3.71,1.81,-2.79,-19.71,9.07,0.34,0.88,-0.83,8.0,12.7,-11.16,2.15,1.51,-0.59,8
-2.45,-2.42,21.09,-1.17,-1.66,0.83,-2.54,-19.49,9.27,-1.03,-1.27,-0.68,7.92,12.54,-10.9,1.9,0.88,0.29,8
-2.63,-2.46,21.28,-1.66,0.63,-0.1,-2.61,-19.48,9.17,-0.15,-0.73,-1.95,7.69,12.78,-11.31,1.81,2.05,-0.54,8
8.72,-1.72,17.96,7.86,16.65,7.32,-4.05,-20.08,6.96,5.71,8.25,11.87,8.28,12.79,-10.45,4.74,-4.69,2.69,9
21.77,4.14,20.8,3.27,94.29,-47.71,-3.59,-19.3,8.92,0.73,-5.81,-4.1,6.91,11.41,-11.42,-2.78,1.51,-0.98,9
2.34,-11.37,20.95,-102.3,124.22,-72.56,-4.11,-19.74,8.27,-2.78,0.93,1.03,7.88,12.97,-11.12,-2.15,5.32,-5.37,9
-7.93,-1.38,18.49,32.32,17.58,1.42,-4.22,-19.64,8.4,3.37,0.59,1.56,8.42,12.73,-10.63,6.79,-0.68,1.22,9
-5.26,-3.36,21.11,7.96,6.15,-2.93,-3.99,-20.23,8.42,-2.0,0.93,-0.73,7.43,12.17,-10.59,-1.32,-2.25,-1.27,9
-5.53,-2.58,20.24,-3.61,-3.81,1.17,-3.92,-20.19,8.63,0.24,0.88,0.49,7.89,13.0,-11.18,4.44,0.49,-0.59,9
-4.75,-3.56,20.92,7.96,5.22,-1.81,-4.07,-19.09,8.27,0.1,-1.51,-1.51,7.17,12.6,-10.82,1.61,2.54,-0.39,9
-4.19,-3.14,20.77,2.73,3.17,-1.12,-3.53,-19.95,8.34,-1.37,-1.32,0.0,7.8,13.34,-11.01,2.34,1.46,-0.63,9
-2.63,-3.52,21.61,0.29,1.51,0.54,-4.01,-19.21,8.18,3.37,0.98,1.76,7.48,12.49,-10.91,1.27,1.86,-0.73,9
-3.76,-3.75,20.7,-0.78,-4.59,1.71,-3.69,-19.57,8.16,-2.05,-1.17,-1.12,7.96,12.98,-10.48,-1.42,3.08,-2.93,9
-3.6,-3.46,21.56,-1.56,3.27,-0.78,-3.62,-19.97,8.39,0.34,-0.78,-1.61,7.9,12.86,-10.74,2.69,0.34,1.81,9
-3.48,-3.8,20.95,-0.1,2.2,-0.68,-3.65,-19.65,8.19,-0.39,0.49,0.59,6.98,12.55,-10.95,-0.1,1.76,-1.17,9
-2.63,-3.49,21.19,-1.86,-2.2,1.17,-3.51,-19.88,8.17,-0.49,-1.61,-1.17,7.85,13.2,-10.69,1.46,3.27,-1.12,9
-2.86,-3.4,21.35,4.05,-3.52,1.46,-3.51,-19.82,8.24,-0.73,-1.07,-1.12,7.53,13.05,-10.86,1.95,2.25,-0.39,9
-3.18,-3.35,21.17,-1.03,0.88,0.2,-3.17,-20.03,8.35,-0.44,-0.78,-1.46,7.35,13.16,-11.13,1.32,2.98,-0.29,9
-2.44,-3.29,21.43,0.05,-2.05,1.37,-3.34,-19.79,8.31,1.17,-1.76,-0.39,7.58,12.66,-10.83,0.83,2.88,-0.54,9
-2.66,-3.03,21.12,2.39,-2.1,1.71,-3.35,-19.56,8.0,-0.54,0.24,0.98,7.43,12.86,-10.5,-0.49,4.98,-3.61,9
-2.43,-3.08,21.53,2.69,-1.95,1.07,-3.24,-20.33,8.17,2.83,0.49,1.12,7.51,13.42,-10.98,2.54,1.9,0.63,9
-2.77,-3.64,21.3,4.93,2.59,0.44,-3.38,-19.98,8.25,-1.07,0.63,0.24,7.49,12.4,-10.24,0.78,3.91,-2.0,9
-3.07,-3.57,20.69,-0.78,-0.1,1.32,-3.4,-19.72,8.31,0.83,-1.03,0.44,8.18,13.46,-10.71,2.49,1.86,-2.25,9
23.3,-6.09,16.22,122.75,-212.11,78.96,-3.36,-22.72,7.57,15.58,59.28,26.17,4.62,14.03,-11.01,0.24,-8.11,0.44,10
13.39,-2.06,17.94,-30.27,-58.2,25.54,-6.89,-18.05,6.71,17.43,19.19,13.92,5.09,13.77,-11.88,32.08,17.19,-4.0,10
8.18,-2.59,17.3,-8.74,-6.4,-0.68,-6.15,-18.76,8.09,4.69,-0.98,-5.18,7.89,11.63,-12.88,51.9,138.18,-28.81,10
17.26,-1.54,20.27,-1.76,21.73,2.2,-4.57,-19.56,8.82,5.71,-0.2,-0.59,5.82,12.94,-13.36,-6.98,48.63,-36.72,10
2.88,-4.85,13.92,-64.16,165.53,-97.71,-4.65,-19.16,8.46,-4.1,-6.3,-2.1,8.24,13.94,-8.99,3.08,14.11,-3.71,10
-6.07,-7.47,20.6,22.22,109.57,-38.04,-5.44,-19.2,7.6,-0.54,2.69,1.9,6.55,13.05,-10.48,-3.71,9.23,-4.0,10
-7.56,-1.74,19.36,11.08,2.78,4.25,-4.6,-19.72,8.58,2.34,1.56,2.78,8.75,13.87,-9.47,1.32,2.29,4.0,10
-6.14,-3.19,20.73,1.95,-1.95,-3.71,-4.65,-19.14,8.68,-4.44,-4.3,-3.32,9.48,13.02,-8.93,2.44,0.39,-1.17,10
-5.57,-2.35,21.4,5.81,8.06,-0.34,-4.61,-19.58,8.07,-1.51,-5.03,-5.18,9.43,14.05,-9.03,5.96,-5.27,1.9,10
-2.08,-3.02,21.25,-10.25,-14.5,3.47,-4.19,-20.08,8.09,-3.56,-2.34,-1.42,8.07,12.95,-9.54,-1.07,4.2,-3.71,10
-5.09,-1.75,20.47,-3.13,-12.65,3.61,-4.2,-19.78,8.09,-0.2,-0.49,0.49,8.01,13.07,-9.64,-0.34,0.78,-1.37,10
-4.7,-2.89,21.16,11.18,5.62,1.71,-3.98,-20.35,8.36,-3.37,-1.76,-1.66,8.22,13.07,-9.26,1.51,1.37,2.05,10
-3.11,-3.15,21.1,-9.67,-6.74,-1.42,-4.56,-19.4,7.85,-1.56,-0.05,-0.29,8.05,13.63,-9.53,-0.63,2.39,-2.54,10
-3.22,-3.34,21.4,-3.08,-10.06,0.34,-3.98,-20.44,8.21,-1.9,-3.71,-3.42,7.38,12.96,-9.44,0.2,2.44,0.0,10
-3.15,-3.85,21.13,-3.03,-2.49,0.44,-4.42,-19.85,7.7,-3.47,-2.98,-1.32,9.1,13.68,-9.46,1.61,0.73,-0.83,10
-2.91,-3.75,21.27,-1.81,3.22,-2.44,-4.52,-19.53,7.62,0.98,-0.54,1.51,7.58,12.99,-9.61,-0.63,1.66,-2.34,10
-1.78,-3.33,21.89,-2.15,0.2,1.61,-4.14,-19.52,8.26,-0.0,-2.0,0.15,8.16,13.52,-9.67,-0.0,2.73,0.88,10
-2.99,-2.95,20.72,-1.66,-5.71,-0.29,-4.48,-20.0,7.86,-0.83,0.68,-0.49,7.77,13.4,-9.42,-1.03,2.78,-2.59,10
-1.76,-3.37,21.81,5.03,-1.9,2.1,-4.57,-19.74,7.72,1.9,0.98,1.42,8.34,13.26,-9.3,4.2,1.42,-1.12,10
-2.79,-3.74,21.13,-8.5,-13.13,-0.39,-4.37,-19.76,7.72,-0.05,-0.88,0.1,8.43,13.51,-9.5,1.9,1.61,-1.66,10
4.31,-6.85,15.57,64.5,-257.47,107.62,-3.42,-18.92,7.24,-13.48,75.98,-11.04,3.72,14.67,-15.31,-32.96,-132.86,43.51,11
5.88,-1.88,18.47,-33.45,-10.25,11.87,-3.2,-21.85,7.62,-0.29,29.49,13.96,4.15,18.19,-14.68,60.35,42.04,24.07,11
10.42,-0.52,17.37,3.91,3.03,4.3,-5.13,-18.06,6.84,11.43,0.34,11.77,5.3,13.93,-12.41,-1.27,-4.69,-7.62,11
7.96,1.39,9.82,-23.19,300.2,-150.29,-4.6,-19.59,7.62,-0.88,-0.78,-0.88,13.37,7.38,-7.66,54.39,130.47,-27.69,11
0.27,-6.93,19.98,64.6,74.02,-36.91,-5.18,-20.01,7.12,-0.88,-0.93,-1.03,5.7,11.39,-13.21,-10.25,42.53,-23.63,11
-2.32,-0.42,21.19,5.32,-18.85,14.16,-5.05,-19.52,7.4,1.81,-2.15,-0.73,8.54,12.37,-10.17,10.01,16.11,-6.01,11
-3.85,-0.56,20.83,-2.69,-10.94,9.57,-4.68,-19.87,7.36,-1.42,-1.37,-1.32,9.04,12.1,-10.15,-3.91,3.76,-2.44,11
-3.78,-2.55,21.63,-7.72,1.42,-0.93,-4.55,-19.9,7.25,-1.47,-1.86,-1.27,8.48,12.6,-10.26,0.88,2.15,-0.83,11
-4.28,-0.67,20.98,1.86,-2.98,0.15,-4.51,-19.84,7.46,-0.2,-1.12,-0.88,8.64,12.27,-10.07,1.27,5.37,-0.63,11
-3.11,-1.34,21.71,0.49,-2.64,0.83,-4.83,-19.89,7.27,0.24,-0.29,0.29,8.83,12.95,-10.18,2.54,1.27,-1.27,11
-3.13,-1.94,21.31,1.61,-4.69,4.44,-4.75,-19.87,7.07,-1.86,-0.34,-0.49,8.13,12.77,-10.2,-0.68,3.66,-1.66,11
-3.51,-1.39,21.36,2.49,-1.81,0.34,-4.62,-20.19,7.16,-0.29,-0.83,-1.46,8.7,13.01,-10.42,2.0,2.29,-1.17,11
-2.88,-2.25,21.51,-1.32,-0.59,-0.44,-4.38,-20.13,7.4,-1.66,-1.56,-1.27,8.72,12.5,-9.96,1.32,3.32,-2.25,11
-3.38,-1.79,21.06,-2.98,-3.86,1.17,-4.45,-19.9,7.07,-0.15,-1.22,-0.73,8.66,12.86,-9.76,0.49,-1.17,0.93,11
-3.38,-1.88,21.24,1.32,-2.39,1.03,-4.64,-19.97,7.07,0.2,-0.05,0.1,8.62,12.71,-10.16,-0.15,0.73,-0.29,11
-3.0,-1.61,21.28,-2.0,-3.76,1.07,-4.38,-20.13,7.2,-1.12,-1.22,-1.86,8.52,12.77,-10.16,-0.29,3.03,-1.17,11
-3.23,-1.94,21.24,1.12,-2.59,1.66,-4.4,-20.34,7.38,-0.2,0.24,-0.88,8.43,12.96,-10.19,1.12,2.0,-0.98,11
-3.24,-2.11,21.22,-1.42,-1.12,0.83,-4.48,-20.09,7.13,-0.44,-0.24,0.05,8.67,12.66,-10.01,0.63,0.93,-1.03,11
-2.67,-2.06,21.32,-1.12,-2.15,1.32,-4.28,-20.2,7.21,-1.32,-1.46,-1.27,9.07,12.64,-9.85,-0.54,0.63,-0.05,11
-2.28,-1.87,21.65,0.49,-2.2,1.27,-4.39,-20.09,7.06,-0.49,-2.44,-2.39,8.61,12.55,-10.19,1.07,0.1,0.78,11
11.19,-1.17,17.89,-13.82,-5.27,6.35,-6.04,-19.73,6.3,8.35,-2.34,0.2,7.79,12.57,-10.82,11.28,17.24,-4.25,12
6.98,-2.69,14.05,-72.71,201.03,-81.2,-5.22,-20.53,7.29,-2.05,1.17,2.0,7.98,11.96,-10.94,-2.05,-0.63,-2.2,12
-3.33,-2.96,19.75,-13.53,63.62,-42.72,-5.66,-20.19,7.06,-1.61,-4.25,-5.32,9.15,11.61,-9.67,-0.05,-2.2,1.51,12
-2.29,-2.03,21.15,13.96,-4.05,5.91,-5.37,-19.57,6.83,0.73,0.93,2.25,8.33,12.06,-10.43,0.05,1.51,-1.81,12
-3.87,-1.72,20.71,-4.39,-10.4,12.06,-5.3,-20.17,7.05,-1.56,-3.47,-3.66,8.38,12.81,-10.32,1.76,2.49,0.05,12
-3.19,-2.07,21.27,-2.83,-10.35,0.63,-5.44,-19.93,6.92,4.25,7.81,7.08,7.67,12.6,-10.44,0.05,-0.2,-1.56,12
-2.63,-1.97,21.36,-3.96,-6.35,2.64,-5.16,-20.24,7.12,-2.25,-4.1,-4.98,7.75,12.48,-10.84,-0.54,5.32,-1.51,12
-2.05,-1.48,21.42,-3.61,-6.05,0.0,-5.06,-20.1,6.89,0.59,-1.81,-0.93,8.89,12.9,-10.14,2.44,2.69,-0.83,12
-2.63,-1.67,21.12,2.44,2.0,0.0,-5.39,-19.82,6.84,0.29,0.98,1.27,8.11,12.36,-10.4,-0.49,2.29,-1.12,12
-2.22,-1.55,21.56,-0.24,-4.98,0.78,-4.87,-20.6,6.99,-1.27,-1.32,-1.71,8.3,12.81,-10.34,1.12,4.49,-1.37,12
-1.41,-2.04,21.49,0.1,-1.86,1.17,-5.0,-19.38,6.63,2.39,0.49,1.95,8.57,12.4,-10.15,2.25,1.86,0.2,12
-1.79,-2.22,21.39,-4.25,-0.49,0.34,-5.06,-20.43,6.84,-1.47,-0.05,-0.54,7.99,12.82,-10.27,1.07,2.1,0.05,12
-1.62,-1.8,21.56,-1.07,-3.12,0.88,-5.03,-19.96,6.86,-1.22,-1.22,-0.98,8.35,12.78,-10.27,0.93,3.47,-2.15,12
-2.1,-1.61,21.38,2.15,-0.68,0.73,-5.17,-19.99,6.7,-0.15,-0.78,-1.32,8.57,13.13,-10.21,2.2,2.98,-0.59,12
-1.94,-1.88,21.53,-0.29,-0.98,0.2,-4.84,-20.31,6.81,-0.49,-1.42,-1.07,8.33,12.78,-10.18,1.12,0.78,0.2,12
-2.3,-1.61,21.26,0.68,-1.71,1.56,-4.94,-19.98,6.76,-1.27,-0.49,-0.44,8.0,12.66,-10.23,0.05,2.44,-1.81,12
-2.14,-1.69,21.26,2.29,-1.81,1.22,-4.87,-20.07,6.79,-0.24,-1.42,-1.27,8.57,12.7,-10.0,-0.34,1.51,-0.49,12
-1.76,-1.99,21.46,1.71,-1.95,1.22,-4.99,-19.93,6.69,-0.2,-1.27,-1.07,8.66,12.96,-9.83,2.73,-0.24,0.93,12
-2.3,-2.02,21.12,-0.83,-1.22,0.68,-4.92,-20.18,6.88,-0.05,0.29,-0.78,8.48,12.65,-10.18,0.29,0.68,0.59,12
-1.96,-1.9,21.39,0.59,-2.39,0.88,-5.07,-19.98,6.65,0.98,-0.73,-0.44,8.13,12.57,-10.01,0.59,2.05,-0.39,12
11.7,-3.2,18.21,-4.0,-35.99,22.36,-6.52,-21.62,3.78,21.39,47.31,-5.08,1.78,16.57,-19.55,50.59,112.6,-11.57,13
11.49,-2.3,17.61,-6.3,2.93,8.2,-6.52,-21.16,4.84,13.28,17.63,18.02,7.6,11.5,-10.33,1.56,-3.37,0.05,13
3.98,-2.6,13.9,-45.02,207.57,-103.37,-5.79,-19.25,6.35,2.93,4.59,-0.24,8.35,11.71,-11.32,-1.17,17.72,-6.45,13
3.1,-6.01,21.46,27.73,1.46,10.69,-5.86,-20.29,6.31,4.49,1.71,3.56,8.39,13.04,-11.17,8.2,7.81,-1.46,13
0.66,-1.77,20.8,5.27,13.33,-3.42,-5.87,-19.82,6.37,-3.66,-1.51,-1.46,7.73,12.33,-11.08,-2.83,7.86,-3.61,13
-1.53,-1.51,20.65,2.0,-1.12,2.29,-6.42,-20.36,6.5,-3.47,0.0,-1.32,7.49,11.77,-10.54,-0.63,1.71,-1.61,13
0.54,-2.16,21.4,4.74,2.39,2.78,-6.41,-19.7,6.15,-0.98,0.29,0.49,8.44,12.11,-10.54,-0.15,2.88,-2.83,13
-0.06,-1.59,21.16,7.67,8.89,-0.05,-5.98,-19.71,6.06,-1.61,-0.24,0.2,8.24,13.01,-10.53,1.61,0.39,-1.51,13
-0.41,-1.64,21.19,-0.49,6.3,-0.93,-5.95,-20.15,6.07,-2.44,-1.56,-1.51,7.59,12.49,-10.68,1.22,2.98,-1.81,13
0.62,-1.82,21.41,1.32,-4.39,1.46,-5.83,-20.08,6.1,-2.78,-1.46,-0.24,8.24,13.29,-10.8,0.63,1.37,-0.83,13
-0.07,-2.26,21.25,-2.83,-3.56,1.76,-5.89,-20.17,5.89,-0.88,-4.39,-3.56,7.7,12.24,-10.5,0.15,1.22,0.78,13
0.42,-2.48,21.67,3.17,-3.32,0.34,-6.08,-20.33,5.89,-2.69,-1.07,-1.17,8.0,12.83,-10.58,-1.86,1.22,-2.59,13
0.12,-2.91,21.11,-4.64,-2.49,0.83,-6.1,-20.24,5.84,2.25,-0.34,-1.12,8.12,12.86,-10.57,1.9,1.17,1.03,13
1.43,-1.58,21.57,3.22,0.68,0.24,-6.32,-19.58,6.1,0.24,2.64,1.81,7.67,11.99,-10.43,-2.15,-2.05,-1.27,13
0.56,-2.17,21.17,3.37,-2.34,1.42,-5.55,-20.3,6.56,-0.49,-1.46,-1.07,7.6,12.53,-10.88,0.44,1.07,-0.24,13
0.91,-1.88,21.46,4.54,-1.07,3.71,-6.02,-20.28,5.75,-0.98,-2.83,-2.0,8.18,13.01,-10.52,0.2,3.32,-1.9,13
0.92,-2.4,21.4,-0.54,-4.49,0.88,-5.77,-19.82,6.02,-1.86,-2.54,-2.44,7.75,12.7,-10.61,1.66,3.22,-1.76,13
0.89,-2.07,21.37,-0.83,-1.81,0.54,-5.76,-19.87,6.06,-0.78,-0.49,-1.07,8.35,13.03,-10.76,1.46,1.37,0.05,13
0.41,-1.86,21.21,2.34,2.1,2.2,-6.08,-19.66,5.71,1.32,1.12,1.32,7.49,12.41,-10.52,1.71,0.78,0.1,13
0.5,-2.14,21.3,4.0,-3.12,1.03,-5.78,-20.09,6.02,-1.27,-1.37,-1.27,7.75,12.91,-10.89,-0.24,2.44,-0.98,13
2.21,-1.14,16.38,61.43,-246.78,89.21,-3.99,-17.53,5.38,2.34,-62.89,-11.87,4.5,14.08,-12.81,6.05,6.1,-1.37,14
12.9,-3.55,18.96,-23.83,-38.96,11.04,-3.63,-20.91,6.07,-1.03,3.47,-4.2,5.42,11.86,-11.36,25.83,7.81,-18.85,14
10.08,-1.16,16.99,-6.25,-5.96,9.47,-4.32,-19.94,6.08,-7.86,-0.05,1.71,3.94,13.32,-20.58,86.77,175.54,-21.19,14
11.49,3.51,15.69,-10.94,221.73,-105.71,-4.79,-21.12,3.81,19.63,95.46,16.75,5.95,11.05,-11.17,-9.03,-15.33,-7.67,14
-0.87,-10.06,22.1,-19.04,60.35,-12.5,-8.03,-21.69,4.48,-5.66,21.0,15.48,7.54,10.94,-11.76,4.93,12.94,-3.52,14
0.5,-1.58,20.95,8.94,-22.41,10.4,-7.0,-19.26,5.86,3.52,-9.52,-4.49,8.16,11.52,-10.92,10.94,-0.2,-0.93,14
-1.52,-1.17,20.83,-0.78,1.76,1.27,-7.19,-19.47,5.39,-3.81,1.9,2.0,8.08,12.27,-11.43,0.78,0.34,-1.27,14
-0.09,-1.96,21.35,1.81,-4.25,1.76,-7.16,-20.24,5.76,-0.59,-1.95,-2.73,7.88,11.94,-11.27,-0.73,1.9,-1.22,14
-0.12,-1.85,21.22,2.25,-0.63,1.46,-7.41,-19.38,5.39,-0.49,-0.44,-0.39,7.72,12.27,-11.36,1.42,-0.24,-1.9,14
0.75,-2.03,21.57,1.46,-0.49,2.1,-7.46,-19.76,5.44,0.63,1.37,3.22,7.85,12.13,-11.13,1.95,0.34,0.83,14
0.6,-1.81,21.44,0.34,-4.25,2.73,-7.21,-19.85,5.6,1.03,-0.34,0.2,8.1,12.31,-11.34,1.32,0.29,-0.34,14
1.11,-1.99,21.62,0.68,-4.25,1.32,-7.34,-19.8,5.65,0.63,-1.22,-0.93,7.76,11.9,-11.21,-0.83,0.49,-0.73,14
0.08,-1.0,21.0,1.42,-2.15,1.07,-7.3,-19.57,5.6,-0.2,-1.03,-1.9,8.07,12.47,-11.5,0.49,2.29,-2.05,14
0.74,-1.65,21.61,1.56,-2.83,0.2,-6.82,-20.72,5.78,0.88,1.46,0.49,7.62,11.8,-11.3,1.61,0.34,1.22,14
0.17,-1.66,21.02,3.03,-1.12,1.32,-7.28,-19.48,5.61,0.63,-1.17,-1.27,7.97,12.6,-11.57,1.22,2.05,-1.71,14
0.69,-1.88,21.67,-0.1,-1.27,-0.24,-6.74,-20.15,5.79,-0.54,-0.59,-0.98,7.63,12.42,-11.58,1.9,2.78,-0.49,14
0.32,-2.09,21.28,2.73,-0.44,0.73,-6.91,-19.86,5.73,1.07,-0.49,0.68,7.76,12.25,-11.22,1.86,1.76,-0.73,14
0.46,-1.91,21.34,-0.88,-1.22,0.49,-6.97,-19.84,5.6,0.05,0.88,0.68,7.65,12.1,-11.44,0.73,1.22,-0.44,14
0.66,-1.71,21.52,1.76,-2.44,1.37,-6.88,-20.23,5.85,-0.83,-0.59,-0.98,7.93,12.19,-11.42,2.73,1.61,-0.24,14
0.58,-1.72,21.23,0.88,-1.76,0.93,-7.17,-20.0,5.64,0.44,-0.15,-0.34,7.92,12.46,-11.32,1.32,0.44,-0.59,14
10.37,-5.06,16.67,69.09,-233.94,62.79,9.2,-13.15,12.26,42.09,-35.79,9.96,18.0,14.67,-10.67,-34.67,-94.97,36.38,15
16.77,1.96,20.95,38.43,-80.81,37.94,11.7,-7.6,10.74,-10.01,25.59,5.76,8.7,10.19,-10.95,-2.69,0.73,4.64,15
13.66,-1.33,14.58,4.39,-20.02,9.47,12.33,-10.24,14.23,8.79,-12.89,3.61,7.95,11.44,-12.36,-2.98,6.74,-1.17,15
14.14,-2.49,14.19,-4.15,-3.47,-0.73,12.12,-9.26,13.98,-2.83,-0.05,0.29,8.43,10.17,-11.85,17.28,0.29,-9.67,15
19.17,0.9,17.5,-1.66,36.33,-13.33,8.2,-7.9,11.91,-60.25,44.97,-23.29,11.11,10.97,-12.03,79.74,91.06,-30.47,15
7.88,-5.9,17.38,-68.46,130.71,-62.26,11.0,-13.33,13.8,-30.62,57.96,-4.1,8.68,10.76,-13.86,3.86,69.58,-33.64,15
-1.54,-2.82,20.65,40.43,91.21,-14.65,9.01,-14.38,14.0,9.42,61.33,12.4,10.38,11.63,-9.61,-0.98,34.42,-25.88,15
-4.71,-1.2,20.28,-7.28,19.87,-6.3,6.55,-12.65,15.21,-2.93,-1.9,-3.37,9.85,10.56,-8.49,-8.06,11.87,-9.47,15
-1.86,-1.45,21.47,0.68,-4.49,0.54,7.91,-13.0,14.98,-4.49,5.18,0.93,11.44,12.36,-7.79,1.27,3.37,-2.54,15
-1.57,-1.55,21.3,0.63,-5.47,3.03,8.19,-12.39,15.14,0.05,-2.73,-2.78,11.39,11.08,-7.42,0.78,-1.03,2.93,15
-1.8,-1.95,21.35,-0.73,0.34,-0.39,7.85,-12.98,14.68,-1.32,-0.78,2.34,11.35,11.86,-7.91,1.86,3.27,-3.81,15
-0.69,-1.56,21.34,-0.39,-5.03,-2.39,8.16,-13.22,14.36,-2.73,3.13,1.71,11.28,12.62,-7.9,3.47,2.34,-4.2,15
-1.46,-2.51,21.01,1.22,-3.37,1.46,8.64,-11.86,14.8,1.37,-6.15,-0.73,11.33,12.47,-7.96,2.98,3.22,-1.66,15
-1.06,-2.03,21.45,-1.07,-5.13,0.78,8.3,-12.05,14.98,-1.12,1.12,1.12,11.28,12.08,-7.92,-2.44,2.15,-3.47,15
-0.98,-2.28,21.09,-2.98,-4.05,-1.81,8.36,-12.42,14.54,-0.78,-4.05,-0.59,11.28,12.41,-7.66,2.1,2.44,-1.51,15
-0.62,-2.69,21.61,-0.49,-0.59,-0.2,8.44,-12.51,14.6,0.73,-3.27,-0.59,11.06,12.26,-7.76,1.56,1.03,0.1,15
-0.58,-2.53,21.43,-0.24,-0.83,1.32,8.44,-12.27,14.55,-1.27,-0.54,0.49,11.06,12.22,-7.77,1.07,4.44,-3.47,15
-0.73,-2.42,21.12,-1.37,-3.37,-0.78,8.55,-12.48,14.33,0.24,-0.34,-0.54,11.25,12.52,-7.63,1.12,1.46,0.24,15
-0.41,-2.45,21.31,0.39,-3.52,0.93,8.72,-12.2,14.57,1.32,-1.71,-0.24,11.23,11.95,-7.7,-0.15,2.44,-0.68,15
-0.55,-2.51,21.35,-0.15,-0.73,0.29,8.78,-12.55,14.35,-1.27,-0.24,-0.63,11.22,11.98,-7.51,-0.24,0.78,0.29,15
9.59,-4.12,18.46,3.71,-27.98,20.46,7.25,-13.33,12.39,-1.95,-7.81,2.78,12.19,13.07,-9.19,-6.93,-69.48,18.55,16
13.2,-3.76,17.0,-9.57,-24.27,12.21,11.84,-11.36,12.57,14.84,-0.34,-0.83,8.64,11.61,-10.37,-54.49,-86.38,7.71,16
13.74,-0.94,18.86,35.55,-76.51,12.65,11.66,-11.21,13.02,0.39,-2.29,0.83,7.64,13.89,-10.63,-3.22,-53.42,18.16,16
13.2,-3.76,17.06,5.66,-16.5,12.7,12.16,-11.5,12.94,-1.56,3.08,-1.71,5.85,12.77,-11.23,-5.08,15.87,0.73,16
12.5,-2.19,16.28,9.96,-7.62,5.42,12.5,-11.49,13.04,-2.88,1.61,0.0,6.83,14.08,-11.76,1.56,8.11,0.54,16
12.1,-3.54,15.68,5.52,-6.98,5.42,12.43,-6.25,12.47,-45.75,52.83,-8.74,7.7,13.16,-10.72,9.91,6.3,1.07,16
12.66,-4.31,15.49,2.0,-5.27,5.76,10.92,-14.31,11.32,-15.63,32.08,-7.57,8.39,12.62,-10.65,8.54,6.45,-2.44,16
13.68,-4.22,16.03,-5.27,0.54,5.37,8.74,-15.25,13.76,-23.68,49.22,-2.29,9.47,11.68,-10.99,25.05,0.49,-15.38,16
10.71,-3.34,14.26,-72.75,148.0,-68.12,7.66,-11.72,14.18,-12.7,5.08,-1.61,8.73,9.17,-11.47,72.27,130.22,-38.72,16
4.06,-8.03,18.69,30.91,148.93,-28.03,8.7,-12.58,14.08,1.56,-4.05,1.9,6.56,12.43,-12.49,-2.44,61.33,-27.98,16
-4.24,-0.82,20.54,4.1,19.19,-0.24,7.94,-12.99,13.85,1.76,-1.9,0.39,8.93,12.47,-9.16,1.81,16.65,-13.57,16
-1.91,-3.41,21.2,-1.47,-6.1,-0.24,8.82,-13.16,14.12,1.12,-5.37,0.2,10.19,10.64,-7.72,-2.49,-1.27,3.08,16
-1.37,-3.42,21.35,-3.52,-4.3,1.12,8.67,-13.05,13.92,1.03,-0.83,0.15,9.28,12.47,-8.78,-6.98,5.37,-4.2,16
-1.63,-3.25,21.01,0.59,-3.08,2.1,8.76,-12.99,13.92,0.59,-0.29,-0.49,10.61,12.83,-8.18,5.91,3.91,-1.22,16
-1.27,-3.22,21.3,0.39,-4.98,-0.34,8.85,-13.18,14.05,-0.2,-0.63,0.2,9.67,12.34,-8.16,0.44,3.08,0.93,16
-1.13,-3.49,21.27,-1.56,-4.35,0.68,8.67,-12.94,13.82,0.54,-1.71,-0.2,10.03,12.75,-8.35,-2.88,3.08,-1.51,16
-1.1,-3.43,21.14,1.17,-1.17,1.46,9.44,-13.46,14.11,-2.64,-1.12,0.2,10.95,13.09,-8.18,3.12,1.03,-1.27,16
-1.03,-3.85,21.15,0.73,1.42,-0.63,8.46,-13.03,13.92,0.93,-0.88,0.83,9.78,12.67,-8.34,-0.15,0.73,-0.73,16
-1.3,-3.71,21.07,-1.03,-5.27,0.78,8.59,-13.2,13.66,0.05,-1.76,-0.78,10.17,12.46,-8.1,-0.24,2.69,-0.63,16
-0.97,-3.78,21.54,1.37,-1.22,1.12,8.9,-12.8,13.94,0.78,-0.68,-0.15,10.34,13.2,-8.34,2.69,2.2,-0.49,16
4.66,-8.09,19.71,37.11,-208.5,85.55,11.5,-9.05,14.66,3.08,-5.22,0.34,6.49,6.83,-18.63,-61.23,-154.88,65.38,17
13.16,8.16,14.51,-25.93,48.97,-35.69,11.53,-9.39,14.47,0.49,0.59,2.25,0.85,10.53,-13.72,-4.69,32.08,25.93,17
9.6,1.07,17.78,10.06,4.64,3.71,12.59,-9.11,15.68,-4.93,1.12,5.32,5.98,10.87,-14.06,0.49,-6.69,-2.78,17
11.53,0.38,17.3,5.27,-4.05,10.21,8.09,-11.72,9.95,-174.17,180.32,-23.44,4.51,10.08,-14.56,1.95,4.98,-5.86,17
10.76,0.25,16.78,-1.51,-6.74,-2.78,4.75,-16.5,17.5,-44.92,11.52,-6.3,6.11,10.29,-14.3,8.54,2.54,1.86,17
12.02,-0.37,17.03,-2.39,-3.91,0.93,0.95,-9.75,16.7,4.49,-4.0,2.1,6.14,10.76,-14.74,9.28,4.05,-2.59,17
11.52,0.83,16.93,-3.13,-0.83,0.73,3.18,-12.69,17.58,-5.18,-1.81,-0.73,5.47,9.7,-15.04,10.45,2.34,-8.69,17
20.93,12.75,11.69,17.63,228.13,-107.18,2.07,-12.64,16.76,-7.18,-7.37,-5.91,14.93,3.86,-22.25,60.74,218.41,-87.16,17
-41.1,-13.74,27.72,0.05,191.75,-122.41,3.05,-11.97,17.09,6.25,-4.15,0.2,0.61,-0.25,-13.52,-85.64,58.84,-20.26,17
-8.02,-1.91,19.36,6.3,14.55,-7.57,2.9,-12.86,16.87,1.76,-2.15,1.46,11.33,12.67,-9.44,15.82,3.91,-1.76,17
-6.65,0.28,20.98,3.32,-8.2,2.64,3.06,-13.23,17.18,-2.98,1.95,1.95,10.98,9.76,-8.84,-0.73,-5.76,3.61,17
-7.2,-0.76,20.5,4.69,2.78,0.73,1.99,-12.57,16.14,-5.52,-1.27,-4.69,10.27,11.95,-9.58,-3.52,-0.39,-0.83,17
-6.85,-2.29,20.78,-2.39,1.66,3.03,3.36,-12.74,17.0,1.9,-3.17,-0.2,9.79,11.01,-9.7,7.47,-0.88,-2.1,17
-5.68,-1.74,20.56,-3.61,-10.55,2.29,3.17,-12.65,16.82,0.98,-2.25,0.15,10.03,11.05,-9.85,3.22,0.49,-1.42,17
-5.38,-1.35,20.89,-1.32,-5.08,2.54,2.79,-12.84,16.64,1.61,0.68,1.56,9.91,11.63,-10.35,2.54,1.51,-3.03,17
-5.9,-0.84,20.45,3.61,-0.73,4.64,3.13,-12.87,16.73,-1.76,0.98,0.44,9.8,12.57,-10.66,8.2,-0.1,-2.93,17
-5.72,-2.34,21.3,0.73,-4.88,-0.88,3.58,-12.62,16.65,0.49,-0.05,-1.32,10.16,11.49,-10.13,2.15,1.61,-0.2,17
-5.68,-1.38,21.03,1.81,-0.39,0.44,3.98,-12.9,16.92,-2.1,-1.61,-1.22,10.03,11.69,-10.24,1.71,2.44,-1.76,17
-5.18,-1.72,21.13,1.61,-2.64,0.24,3.93,-12.98,16.83,-0.63,-1.03,0.39,10.34,11.41,-10.08,1.95,0.2,0.05,17
-5.19,-1.76,20.98,1.51,-5.08,2.2,3.54,-12.63,16.71,0.2,-2.05,-0.98,9.73,10.91,-10.38,0.05,1.12,0.15,17
3.14,-3.4,18.74,42.14,-104.83,51.81,10.81,-7.47,14.89,65.87,-76.95,6.88,11.06,12.79,-14.83,-21.44,-112.5,59.52,18
13.67,8.24,15.98,69.14,-169.68,60.01,11.83,-8.4,14.53,11.62,-40.28,6.1,5.72,10.81,-13.12,6.4,31.49,22.31,18
14.62,0.79,17.8,9.28,-30.27,13.87,9.8,-9.77,14.83,5.76,-9.72,-0.1,6.88,12.29,-14.2,15.53,-0.93,5.86,18
11.18,-0.06,16.31,-2.0,-9.57,3.08,10.89,-9.55,15.33,0.54,-0.34,-0.39,6.85,10.25,-14.2,9.57,4.39,1.51,18
12.52,0.39,16.56,-2.93,-2.05,1.03,8.71,-4.88,14.82,-30.37,64.7,-23.78,5.75,9.98,-15.65,31.69,-13.18,-25.54,18
14.24,7.36,17.29,-1.32,135.94,-80.81,0.67,-22.26,17.98,-71.97,98.93,-15.67,13.77,9.93,-22.91,124.9,186.47,-29.98,18
-0.83,-17.58,20.95,-98.14,155.96,-63.87,0.23,-13.81,13.63,26.46,41.6,6.54,7.98,4.31,-11.69,-45.9,13.48,-24.46,18
-4.24,1.96,17.96,32.47,4.79,2.1,4.16,-13.74,18.39,-12.99,-10.3,-5.96,8.98,8.32,-10.18,0.34,24.27,-5.57,18
-5.42,2.2,21.61,22.22,-1.03,4.64,4.31,-13.28,16.97,-14.75,-7.18,-4.79,12.7,9.84,-9.46,-0.88,-4.25,-3.71,18
-3.98,-1.27,21.16,2.44,-5.27,-2.2,2.75,-13.33,16.2,-6.1,-6.1,-2.29,11.51,10.17,-9.69,-5.66,0.15,-5.52,18
-4.23,-2.0,20.96,-2.39,-3.96,-0.49,3.37,-13.23,16.85,0.93,-2.05,2.54,11.01,10.78,-9.75,1.42,1.9,-3.17,18
-3.56,-1.44,21.7,1.51,-1.03,0.49,4.22,-12.56,17.02,-2.88,-4.74,-1.12,11.49,10.27,-9.32,0.44,-2.34,-4.35,18
-4.15,-0.96,21.0,-1.95,-7.76,-0.49,2.78,-13.21,16.47,0.2,-1.17,1.81,11.39,10.48,-9.87,3.52,-2.34,0.34,18
-3.58,-2.5,21.62,-3.42,-2.1,-0.54,2.3,-12.81,16.29,4.1,1.37,1.76,10.52,10.4,-10.1,1.86,-1.81,-3.52,18
-4.1,-2.16,20.78,1.71,0.39,1.86,4.41,-13.31,17.01,-4.93,-4.69,-1.07,11.27,10.15,-9.95,1.12,-0.39,1.46,18
-3.77,-1.72,21.44,0.78,-0.44,1.32,2.73,-12.91,16.19,1.17,-1.32,-0.54,10.73,10.26,-10.26,-2.0,-1.07,-2.25,18
-3.89,-1.92,21.06,-0.05,-2.15,-1.17,3.45,-13.55,16.48,0.78,3.17,2.64,10.38,10.77,-10.55,1.86,1.42,-2.2,18
-4.11,-1.93,21.44,1.32,-0.83,-0.54,3.6,-12.54,16.6,-0.0,-5.81,-3.17,10.62,10.99,-10.37,2.59,1.95,-4.59,18
-4.04,-1.56,20.97,1.42,-8.59,-0.39,3.69,-13.11,16.62,-0.63,-1.07,-0.93,11.17,10.74,-10.36,2.44,1.76,0.1,18
-3.44,-1.88,21.44,1.12,-2.1,1.86,3.9,-13.25,16.59,-2.05,-4.25,-1.61,10.54,10.28,-10.27,0.49,0.49,0.88,18
22.28,6.97,16.92,104.2,-202.78,74.32,11.73,-5.31,15.48,-17.04,70.75,-3.27,35.71,10.58,-9.8,-91.26,-5.08,22.51,19
16.65,0.66,17.61,8.89,-19.68,21.92,7.53,-18.96,15.5,-41.7,94.29,-9.72,4.32,10.67,-15.18,20.95,11.91,-6.69,19
11.84,0.57,16.14,1.86,-9.47,4.79,3.15,-14.36,15.47,-0.2,12.01,6.59,6.21,9.13,-13.97,7.37,6.2,-0.83,19
11.86,-0.51,16.2,-9.77,0.68,9.23,3.58,-12.21,17.35,-9.33,11.13,-0.98,8.7,8.72,-11.74,33.64,1.9,-22.85,19
10.99,4.09,10.22,-104.49,250.05,-141.89,4.03,-13.53,16.58,-8.64,-13.82,-3.12,9.47,13.11,-24.61,108.98,197.66,-64.06,19
-4.68,-7.18,23.73,23.1,86.47,-7.37,3.07,-13.11,15.77,-0.49,-4.35,-2.15,11.14,9.53,-11.17,-18.55,17.04,-21.63,19
-2.78,0.49,19.92,-23.24,-15.87,-6.59,4.79,-13.61,16.34,2.78,4.39,3.37,11.0,11.89,-9.95,6.05,17.24,-12.89,19
-5.0,-0.32,20.63,-2.44,-12.5,-1.9,3.51,-12.65,15.83,-0.73,-6.35,-2.73,12.29,12.12,-8.96,12.7,-0.2,0.78,19
-4.73,-1.56,21.29,0.49,-4.88,-1.61,4.08,-13.31,15.89,4.05,-1.17,1.56,11.62,10.69,-9.09,-1.32,-0.54,-0.54,19
-3.53,-1.65,21.56,-2.78,-6.1,1.61,4.92,-13.17,16.13,-0.73,-5.37,-0.68,11.73,10.85,-9.4,2.1,0.88,-1.66,19
-3.22,-1.16,21.48,-3.47,-8.11,1.37,4.98,-13.06,16.06,-0.73,-4.49,-0.83,10.97,10.96,-9.63,3.61,2.88,-2.88,19
-3.88,-1.24,20.93,-3.32,-8.35,0.88,5.0,-13.44,15.7,-4.3,-1.81,-0.1,11.19,10.43,-9.36,-0.15,0.93,-0.49,19
-3.04,-0.85,21.63,0.49,-6.49,0.78,4.57,-13.37,15.57,-2.05,-4.49,-1.71,11.37,10.41,-9.43,-1.17,1.61,-0.93,19
-4.14,-0.83,20.7,1.22,-3.56,0.98,5.07,-13.32,15.64,0.1,-1.95,-1.95,11.35,10.87,-9.33,3.12,0.29,-1.07,19
-3.17,-1.48,21.63,-1.61,-4.93,-0.34,5.09,-12.77,15.89,1.07,0.44,-0.1,11.57,10.86,-9.46,1.03,-1.03,0.39,19
-3.56,-1.74,21.1,0.1,-2.49,0.15,5.13,-13.52,15.87,-1.76,-1.71,-0.73,10.64,10.72,-9.65,0.29,-0.2,0.24,19
-3.05,-1.59,21.42,-0.49,-5.47,0.93,5.63,-13.33,15.96,-0.49,-4.59,-0.39,10.96,10.88,-9.65,0.98,2.64,-0.59,19
-2.23,-1.58,21.69,0.44,-2.83,1.56,4.94,-12.9,15.71,1.07,-2.88,-0.93,11.24,11.34,-9.72,2.34,3.61,-2.15,19
-3.28,-1.61,20.95,-3.08,-3.12,-2.15,5.2,-13.27,15.39,-0.98,-0.44,0.63,11.41,10.8,-9.37,1.22,0.83,0.1,19
-2.49,-1.91,21.36,-0.54,-1.81,0.44,4.61,-13.44,15.36,1.03,0.68,-0.24,11.08,10.72,-9.08,0.39,0.05,0.34,19
9.56,1.7,15.61,104.35,-205.27,76.42,8.82,-10.66,14.71,39.89,-89.6,-2.93,12.69,10.88,-13.66,-28.86,-143.75,64.21,20
16.29,5.34,15.03,-7.13,1.61,-7.67,8.97,-10.6,15.25,-4.98,-11.91,0.59,12.44,6.26,-12.77,-40.09,-3.86,-3.96,20
12.37,1.94,16.22,12.4,-8.01,6.35,11.13,-9.32,14.57,15.09,-7.08,0.29,6.67,11.07,-14.81,10.3,5.08,-3.66,20
12.0,1.3,16.34,4.2,-8.89,4.1,12.13,-8.36,15.49,-4.0,-2.34,2.05,6.5,9.19,-14.14,7.03,3.32,1.71,20
21.85,13.55,8.55,27.54,328.81,-185.3,1.5,-5.7,7.08,-198.49,168.85,-69.63,29.94,-2.06,-12.61,-21.05,263.28,-11.62,20
-37.44,-10.71,22.03,41.06,60.69,-7.67,-0.34,-11.29,12.91,19.58,53.91,4.35,3.27,-0.38,-10.16,-87.01,36.72,-9.28,20
-4.35,0.95,20.04,-24.61,-20.7,1.56,8.13,-11.07,18.69,-2.83,-27.25,4.79,9.96,9.43,-9.98,3.56,21.88,-17.77,20
-5.13,0.99,21.47,2.49,-3.22,2.1,5.54,-11.94,17.23,3.81,-12.4,3.22,12.63,11.35,-9.7,6.15,-6.4,-2.1,20
-5.4,-0.9,20.66,-0.0,2.88,1.95,4.28,-12.47,16.18,-2.2,-8.4,0.73,11.44,10.73,-9.45,-0.34,0.49,-4.98,20
-5.08,-0.23,21.28,1.37,-7.32,-0.29,4.75,-12.91,16.37,-0.54,-0.59,2.39,11.46,10.04,-9.87,2.98,-0.98,-1.56,20
-4.16,-0.19,20.86,1.81,-11.23,3.66,4.47,-13.2,16.37,-5.18,1.27,0.68,11.08,10.13,-9.95,1.76,1.03,-0.34,20
-4.71,-0.49,20.96,-0.83,-2.98,0.44,4.64,-12.97,16.16,-2.34,0.15,-0.83,11.06,9.88,-9.73,0.29,0.78,-1.81,20
-4.57,-0.66,21.06,1.66,0.59,1.03,5.25,-12.34,16.5,-0.0,-4.35,-0.98,11.06,10.28,-10.0,0.93,1.37,-1.51,20
-4.38,-0.9,21.16,-1.17,0.15,0.39,4.81,-12.48,16.17,0.2,0.54,-0.15,11.14,10.15,-9.81,-0.05,0.2,-1.9,20
-4.25,-0.57,21.16,-0.54,-3.56,0.29,4.62,-12.73,16.2,-0.1,1.12,-0.54,10.76,10.34,-10.04,-0.1,2.39,-1.81,20
-4.3,-0.64,21.23,1.81,-1.42,0.34,5.57,-12.49,16.45,0.34,-1.56,-0.68,11.25,10.45,-9.86,1.22,2.49,-1.27,20
-4.37,-0.81,21.04,-0.2,-0.39,1.22,4.63,-12.57,16.1,-0.98,-2.34,-1.22,11.04,10.68,-9.95,1.12,2.44,-1.86,20
-3.94,-0.17,21.57,2.69,-2.98,0.44,5.2,-12.2,16.24,2.25,-0.39,0.1,10.92,10.68,-10.21,-0.1,2.1,-0.29,20
-4.27,-0.47,21.26,0.39,-1.46,1.22,5.1,-12.26,16.35,-0.0,0.49,-0.68,11.15,10.49,-10.05,1.03,2.54,-0.93,20
-3.72,-1.1,21.29,-1.95,-2.1,-0.49,4.75,-12.3,16.07,-0.2,-0.93,-0.44,10.79,10.92,-10.1,2.25,1.81,-1.76,20
9.07,-2.56,13.72,115.23,-220.7,86.77,4.3,-12.73,14.01,40.72,-40.48,38.28,0.7,7.13,-11.92,-9.23,25.83,18.95,21
7.24,-5.76,16.94,-78.86,-46.58,52.73,11.67,-12.66,15.74,1.66,-60.64,0.54,7.83,11.25,-13.97,-0.73,-4.15,-6.69,21
11.06,-0.55,15.39,-9.23,-10.4,-2.83,9.49,-9.35,14.43,11.23,-14.79,-1.46,6.66,9.93,-14.03,-0.0,9.18,-0.63,21
12.73,0.21,16.24,-2.73,-10.5,-0.2,11.29,-10.02,14.95,3.27,-6.45,-1.17,6.92,9.85,-13.94,1.03,0.98,-2.54,21
12.63,-0.49,15.77,-3.56,-1.9,0.44,9.9,-9.69,14.61,-2.59,1.56,-0.63,7.17,9.28,-14.21,13.57,4.2,-4.3,21
14.44,0.3,16.96,-9.91,4.59,3.81,15.37,-9.25,17.24,-28.66,28.61,6.64,19.54,2.0,-10.26,44.34,139.36,7.08,21
17.31,2.19,9.2,-23.44,335.06,-168.41,1.67,-17.03,11.46,-118.07,156.35,-37.79,4.36,1.12,-15.26,-71.39,41.31,-34.52,21
-3.24,-10.13,21.88,-68.85,-68.8,1.95,1.39,-12.82,14.61,30.81,31.45,-1.56,10.2,11.54,-11.18,19.82,22.22,-8.4,21
-6.68,3.84,19.21,-0.39,-5.96,0.24,3.38,-11.74,16.36,1.86,-3.91,-5.91,11.35,11.09,-10.95,-5.81,2.1,-3.37,21
-6.59,1.07,20.79,4.83,9.86,-2.93,4.02,-13.08,16.26,1.03,-3.22,-3.56,11.85,10.71,-10.19,1.61,1.86,-4.3,21
-5.02,-0.21,20.87,3.91,1.37,3.22,3.56,-13.16,16.33,0.83,-4.88,0.78,11.53,9.56,-10.0,2.93,-1.56,0.93,21
-5.39,-0.36,21.05,-0.1,0.0,0.1,3.77,-13.4,16.02,1.86,-1.27,2.44,11.05,9.75,-10.66,-0.98,2.88,-1.46,21
-5.51,0.28,21.16,3.56,2.34,-1.12,3.26,-13.46,16.04,0.05,2.73,-1.27,11.15,9.42,-10.33,-2.0,3.17,-2.73,21
-5.45,-0.37,20.9,0.73,-6.88,-0.68,4.83,-13.15,16.37,-0.2,4.74,0.29,11.57,9.81,-10.22,2.54,0.49,-1.9,21
-5.07,-0.64,20.64,0.15,-0.83,1.17,4.41,-13.49,16.32,-2.39,-0.54,-0.78,11.82,9.65,-10.23,0.68,1.42,-2.15,21
-5.13,-0.25,20.78,0.59,-1.07,0.05,4.01,-13.27,16.5,-2.73,-4.0,-2.05,11.5,9.73,-9.99,1.37,0.88,-0.88,21
-4.79,-0.59,20.93,0.68,-1.46,-0.34,3.86,-13.59,16.24,-1.76,-3.22,-1.76,11.77,10.04,-10.25,0.63,3.22,-2.34,21
-4.59,-0.32,21.13,0.24,-2.49,0.2,4.12,-13.22,16.17,0.39,0.15,-1.71,11.55,10.19,-10.14,3.22,2.44,-0.63,21
-4.34,-0.62,21.34,-0.24,-3.32,0.15,4.05,-13.27,16.25,-0.29,0.0,-0.78,11.92,9.98,-9.59,-0.2,-0.49,-1.37,21
-4.48,-0.73,20.81,-0.44,-4.05,1.46,4.35,-13.3,16.32,-0.1,-0.59,-1.76,11.67,10.19,-10.04,2.1,1.86,0.1,21
15.8,6.55,15.46,84.37,-132.81,64.55,10.37,-8.78,16.35,6.4,-6.15,1.42,5.98,9.21,-13.53,-7.47,32.03,17.43,22
13.61,-0.99,16.79,1.03,-34.03,19.97,11.37,-8.91,16.83,-15.28,-3.22,9.67,6.81,11.13,-14.67,-2.25,-5.27,-11.23,22
10.96,1.3,15.38,-3.08,-2.39,-1.81,0.82,-5.22,6.47,-129.79,151.95,-81.15,6.29,9.31,-14.67,13.13,5.71,-0.05,22
12.87,1.93,16.14,1.37,-0.68,2.0,2.12,-16.07,16.29,32.86,65.14,16.8,7.52,8.89,-15.45,21.58,8.79,-17.04,22
15.93,-0.53,21.14,11.57,8.2,38.23,2.7,-13.15,16.65,0.54,-30.27,1.66,17.26,3.25,-19.87,132.57,249.27,-52.54,22
0.78,-3.94,10.72,-72.41,252.0,-170.95,4.55,-14.05,16.65,-4.74,-5.52,3.91,5.67,3.57,-10.8,-40.33,-5.47,-5.96,22
-1.3,-2.05,20.96,42.33,7.28,-6.01,4.44,-13.63,16.09,-5.13,0.49,3.66,10.2,10.37,-10.93,8.59,18.16,-7.47,22
-5.65,0.2,20.57,-16.94,-3.76,-2.05,3.0,-12.9,15.77,0.2,-0.44,-1.9,12.31,9.21,-10.41,0.39,-4.05,-2.29,22
-4.26,0.7,21.84,-7.42,-5.13,4.74,3.57,-13.14,16.1,2.98,4.69,1.12,12.66,10.1,-9.94,-0.49,1.03,-6.01,22
-4.89,0.45,21.1,-4.54,0.24,4.54,4.09,-13.5,16.38,-1.03,0.15,0.78,12.2,8.75,-10.02,6.79,-3.12,3.96,22
-5.13,1.08,20.86,-0.93,-2.2,2.05,4.16,-13.1,16.41,-0.24,-0.83,0.34,11.52,8.65,-10.48,2.78,-1.03,1.42,22
-4.21,0.91,21.31,2.69,0.29,0.34,4.04,-12.78,16.25,-1.03,-0.34,-0.68,10.87,8.91,-10.84,0.73,2.93,-2.39,22
-5.08,0.51,20.92,1.51,-0.83,0.73,4.12,-13.39,16.16,0.2,-0.24,0.24,12.06,9.26,-10.71,2.39,-0.39,0.88,22
-4.6,0.6,21.24,-0.83,-1.51,0.83,3.94,-13.04,16.16,-0.0,1.07,-0.1,11.59,8.89,-10.63,1.32,1.46,-0.68,22
-4.81,0.9,21.03,-1.17,-1.46,-0.68,4.17,-13.2,16.18,-2.1,-0.49,-1.12,11.48,9.57,-10.57,2.2,0.63,-0.34,22
-4.87,0.45,21.0,1.61,-0.63,1.37,4.64,-13.32,16.26,-0.49,-2.88,-1.46,11.14,9.18,-10.84,-0.05,0.63,-1.27,22
-4.91,0.76,20.9,-0.78,-2.98,0.49,4.4,-12.71,16.09,-0.68,-2.44,-1.76,11.51,9.22,-10.73,0.83,2.78,0.15,22
-4.32,0.76,21.15,-3.22,-2.73,-0.54,5.71,-13.43,15.84,-4.69,-5.86,-5.42,11.08,9.58,-10.81,0.68,3.52,-1.66,22
-4.62,0.36,21.05,0.63,-5.03,0.39,4.65,-12.95,15.86,1.42,1.86,-0.59,11.55,9.49,-10.47,0.2,4.0,-1.9,22
-4.24,0.76,21.02,-1.17,-5.32,0.68,5.08,-13.49,16.21,-1.95,-2.15,-2.2,11.69,9.19,-10.28,-4.69,4.15,-0.98,22
15.6,5.99,13.79,97.9,-112.94,56.01,10.05,-8.1,14.86,6.3,-4.05,0.15,9.16,9.06,-13.21,3.12,3.71,0.93,23
14.09,-0.26,14.47,-8.98,-38.18,23.83,10.17,-8.72,15.24,3.91,4.69,0.54,10.39,9.64,-13.36,7.13,-2.29,-0.68,23
13.44,0.93,13.86,-11.43,-15.77,-0.34,12.91,-8.86,17.45,-18.85,14.21,1.07,7.86,7.45,-15.87,19.97,-10.01,-13.38,23
13.42,0.82,13.78,-5.03,-8.35,0.29,4.17,-8.26,9.71,-147.07,166.02,-55.52,19.92,5.97,-13.8,84.86,159.72,-47.46,23
14.87,0.5,13.51,-2.2,-1.51,1.12,4.01,-12.71,15.01,28.66,56.79,2.2,7.18,3.68,-10.3,-45.07,13.57,-7.62,23
20.13,1.1,16.58,-5.18,18.7,9.62,3.49,-11.43,16.95,4.3,-19.82,3.32,11.3,11.58,-10.64,19.82,25.2,-21.48,23
8.89,-3.51,13.61,-70.9,312.55,-161.18,3.03,-12.17,16.96,5.62,13.09,2.69,13.62,9.76,-9.71,8.98,-7.28,3.96,23
-0.43,-3.46,21.38,-0.0,-32.62,-3.22,3.8,-12.87,17.16,-3.71,-8.35,-1.71,12.1,9.06,-10.05,-0.93,2.0,-3.42,23
-5.33,1.53,21.04,-10.25,-0.34,1.56,3.15,-12.65,16.72,-2.64,-1.03,-0.29,12.1,8.86,-9.96,7.37,-4.3,-0.29,23
-5.14,1.89,21.5,4.25,-0.2,2.39,3.58,-13.24,17.03,-0.78,-2.39,-1.61,12.03,8.99,-10.34,0.68,2.25,-3.17,23
-3.81,1.48,21.18,0.73,0.68,-0.24,3.52,-12.87,16.68,-2.0,-1.9,0.15,12.16,8.94,-10.13,0.59,1.32,-1.9,23
-4.7,1.24,20.9,0.2,2.98,-0.93,3.17,-13.27,16.32,0.24,2.69,0.54,11.66,9.44,-10.76,2.29,3.47,-2.25,23
-4.94,1.19,20.95,-0.59,-4.88,1.61,3.98,-12.83,16.7,-0.29,-2.88,0.0,11.97,8.57,-10.06,0.59,2.2,1.37,23
-4.84,0.8,20.96,-0.0,1.81,1.07,3.99,-12.66,16.77,1.22,-0.68,-0.73,12.3,8.9,-10.02,1.12,1.46,-0.54,23
-4.51,0.93,20.84,-1.07,0.78,-0.78,3.94,-12.67,16.67,-0.39,-2.73,-1.56,11.77,9.03,-10.24,1.71,2.54,-1.27,23
-4.14,1.12,21.08,-2.05,-4.1,1.71,4.04,-12.87,16.6,-0.59,-1.71,-0.24,12.19,8.85,-10.0,1.56,2.64,-0.34,23
-3.97,1.43,21.19,1.07,-2.2,0.88,3.78,-12.85,16.4,-0.54,-1.37,0.39,12.73,8.83,-10.01,0.15,0.1,-0.24,23
-4.36,1.14,21.08,0.73,-1.95,-0.05,3.9,-12.55,16.52,-0.15,-0.63,-1.07,11.93,8.7,-10.19,1.12,0.39,-0.44,23
-3.8,1.03,21.11,0.05,-2.34,1.9,4.41,-12.93,16.59,-0.44,-0.83,-0.98,12.48,8.65,-10.0,-0.54,2.34,0.15,23
-4.27,1.07,21.0,-1.76,-0.98,-0.44,3.73,-12.59,16.45,-0.15,-2.2,0.88,12.24,9.09,-9.9,0.2,0.59,-2.54,23
13.35,5.27,16.74,107.57,-133.89,89.06,8.81,-7.27,15.45,67.58,-92.97,10.4,12.13,10.24,-9.96,0.05,4.69,-2.29,24
7.89,-4.23,15.8,-38.53,-36.47,22.17,10.37,-10.85,17.51,7.81,-30.76,12.65,11.68,9.45,-10.31,0.68,3.32,-1.37,24
11.85,1.25,16.26,-3.61,-2.78,0.15,8.1,-9.22,15.73,8.11,-6.74,0.39,12.35,9.06,-9.61,-2.34,2.15,1.12,24
11.15,2.56,16.52,1.61,-10.94,3.27,9.74,-9.17,16.48,-0.59,-5.66,-1.12,11.78,8.58,-9.8,-2.44,-1.66,0.59,24
11.79,2.1,16.13,-0.63,1.17,1.03,8.6,-9.11,15.71,1.17,-2.1,0.59,12.09,8.83,-9.75,-2.1,4.15,0.63,24
14.13,2.72,18.34,-5.18,0.59,13.38,11.34,-8.62,15.52,-36.57,54.69,24.76,11.21,10.05,-10.25,0.49,4.05,-4.54,24
19.38,11.04,17.64,6.74,214.06,-145.41,0.1,-10.03,9.06,-46.29,172.22,-46.44,12.34,9.14,-9.9,-1.76,1.95,-0.05,24
-42.35,-1.13,27.35,-8.35,266.41,-175.44,1.16,-17.04,15.61,61.77,29.88,25.05,11.2,9.67,-9.62,-2.64,1.03,-2.29,24
-14.14,1.13,17.98,38.28,45.31,-2.25,1.29,-11.68,17.13,12.7,2.98,4.83,11.9,9.22,-9.82,-0.83,2.59,-0.88,24
-6.52,1.74,20.41,2.49,-12.4,4.3,4.16,-13.8,17.98,1.07,-11.43,-3.52,11.87,9.36,-9.45,-1.61,4.3,0.73,24
-6.32,0.88,21.35,-0.63,-1.46,2.34,2.07,-12.85,16.66,-0.83,-4.74,-2.39,12.49,10.09,-9.5,1.22,1.12,-0.39,24
-7.2,1.06,19.73,1.9,-1.22,0.93,2.41,-13.35,16.31,-2.15,-7.81,-4.1,11.89,9.18,-9.63,1.76,1.12,-0.1,24
-5.58,1.21,21.44,4.2,-6.93,1.51,4.05,-13.62,17.23,-0.15,1.42,1.61,12.21,9.66,-9.64,0.78,1.95,-0.05,24
-6.45,1.07,20.2,1.76,1.42,0.34,2.51,-12.62,16.28,-1.51,-7.03,-2.83,11.99,9.14,-9.65,1.56,0.73,-0.34,24
-6.27,0.86,20.82,-1.71,-6.15,-0.98,2.98,-13.75,16.39,1.42,1.95,1.22,12.01,9.36,-9.74,2.0,3.56,-0.44,24
-6.11,0.98,20.73,1.61,-0.05,1.12,2.74,-12.31,16.3,0.44,-5.71,-1.81,12.31,9.66,-9.63,0.68,2.78,-2.25,24
-6.0,1.3,20.68,1.03,-2.88,1.37,3.62,-13.23,16.28,-5.62,2.1,-0.83,12.34,9.25,-9.46,1.46,0.78,0.88,24
-5.99,-0.53,20.28,-8.55,-0.1,-3.91,2.23,-13.34,15.83,1.17,-1.07,-0.49,11.35,9.62,-9.68,-0.59,0.2,-0.24,24
-6.24,0.74,20.4,1.22,-4.39,1.66,3.11,-13.0,16.34,0.1,-3.56,-3.37,12.12,9.76,-9.73,1.76,3.03,-1.61,24
-5.16,0.51,20.97,-2.2,-6.69,-0.59,4.24,-13.29,16.51,1.12,1.12,-1.56,11.87,9.62,-9.79,3.03,1.86,-1.03,24
12.87,-3.87,17.18,76.03,-198.97,88.87,9.82,-5.14,31.2,132.32,-70.8,8.84,29.31,5.44,6.61,-88.62,-111.04,6.35,25
0.22,2.12,18.61,-47.66,23.14,-24.07,12.74,-10.44,15.59,19.14,-28.37,13.62,0.79,9.17,-15.47,2.34,29.35,8.5,25
8.98,1.82,17.93,12.35,-2.15,0.88,9.63,-8.78,15.34,-1.81,-11.08,-3.17,5.28,9.71,-14.73,0.73,10.25,-1.95,25
11.35,2.53,17.55,-0.88,-6.35,6.2,9.96,-8.48,14.45,-0.49,0.68,2.2,5.83,9.87,-13.86,2.2,0.68,-0.78,25
10.06,0.81,17.38,-4.05,-7.42,2.0,9.07,-8.6,14.25,2.44,4.35,0.29,6.92,10.32,-14.51,1.42,1.32,-4.74,25
9.61,1.54,16.7,-4.35,-4.64,2.39,9.88,-8.97,14.58,-0.59,0.54,2.15,5.95,9.95,-14.35,2.54,3.91,-4.54,25
10.11,1.57,17.15,-3.96,-3.37,1.81,9.35,-9.63,14.62,-1.66,4.64,2.29,6.07,9.66,-14.69,-5.52,0.0,-2.64,25
9.91,1.86,17.38,-4.54,-2.88,0.59,11.49,-9.58,15.29,-22.36,33.15,15.92,7.26,11.1,-14.46,32.86,-28.96,-26.42,25
12.25,4.11,20.13,-6.01,71.78,-34.37,-6.65,-16.1,14.75,-89.11,111.38,-33.74,4.26,8.16,-20.78,40.87,179.98,-38.23,25
6.34,-8.99,20.26,-53.86,222.51,-90.09,1.44,-22.52,16.25,-25.98,-5.71,-3.37,10.57,7.52,-14.91,-17.97,-6.69,-7.91,25
-1.04,3.61,18.92,25.2,-68.36,46.29,3.58,-14.13,16.97,-18.51,-19.68,-10.11,10.85,8.13,-11.38,-0.68,18.12,-7.96,25
-6.48,2.49,20.37,3.47,-17.24,-0.54,3.87,-13.47,16.11,5.18,3.22,2.34,12.14,10.41,-11.03,1.07,-0.15,-2.49,25
-5.05,1.51,20.89,2.05,-2.83,-0.24,3.93,-13.26,15.85,-1.32,-4.2,-1.07,11.66,9.41,-10.81,-2.1,-1.12,-0.54,25
-6.87,1.15,20.16,-0.73,-2.59,1.56,3.4,-13.68,15.69,1.46,2.69,1.86,10.83,9.62,-11.12,0.59,1.95,-2.34,25
-6.39,0.93,20.3,-1.61,0.34,0.59,3.95,-13.45,15.94,-1.22,-2.25,-2.59,11.31,9.17,-10.5,-1.22,3.03,0.39,25
-6.76,1.29,20.33,-0.1,-4.88,0.83,4.11,-13.72,15.91,1.27,0.73,-0.1,11.23,9.48,-10.85,2.34,-0.34,0.93,25
-6.06,1.07,20.61,-0.68,-0.44,-0.78,4.3,-13.59,16.37,0.98,-4.59,-0.59,11.28,8.63,-10.55,-2.73,2.2,-2.05,25
-6.04,1.36,20.76,1.17,-1.9,2.73,4.01,-13.37,15.53,-1.76,-3.03,-1.22,11.87,9.74,-10.35,5.62,1.32,0.2,25
-5.92,0.84,20.67,-2.54,-3.37,0.73,3.85,-13.42,15.62,2.69,1.81,0.49,11.23,8.86,-10.57,-1.47,1.17,-0.15,25
-5.88,0.73,20.64,1.37,-1.07,0.93,3.28,-12.68,15.6,-1.03,-6.01,-1.37,10.55,9.28,-10.9,-0.2,5.86,-2.73,25
8.73,2.47,16.67,0.83,-13.77,5.42,5.93,-11.41,15.72,-1.9,-51.56,17.29,6.16,14.19,-14.97,-6.05,18.16,-3.32,26
9.44,3.6,17.19,-2.44,1.86,1.42,5.92,-7.92,15.75,25.24,-9.33,2.69,5.65,8.42,-13.73,-15.33,0.68,-0.1,26
10.53,1.28,17.35,-13.97,-4.3,7.52,8.8,-8.29,17.34,2.64,-4.54,6.74,3.05,11.08,-15.86,6.54,7.81,-4.2,26
16.04,2.96,21.47,-1.47,69.04,-13.09,7.65,-9.35,16.16,-10.99,-2.98,3.22,5.09,10.35,-14.52,6.15,5.37,-4.54,26
1.23,-3.92,12.18,-10.99,232.62,-136.23,9.02,-8.12,17.1,-30.52,47.66,18.26,6.49,13.46,-13.48,44.53,-23.83,-37.7,26
-0.82,-5.64,23.52,-6.4,57.08,-7.91,4.11,-19.18,13.72,-67.29,104.3,-44.87,7.42,16.81,-20.82,135.06,203.37,-9.13,26
-6.93,3.21,18.35,-12.21,-0.39,-8.45,5.76,-24.17,17.8,15.72,11.38,24.51,9.65,10.01,-12.65,-15.14,-41.11,-27.59,26
-4.8,0.0,21.79,-1.71,-5.47,0.39,0.81,-11.4,16.22,-4.83,-9.57,-9.13,10.06,10.38,-11.12,6.49,23.05,-0.15,26
-6.72,0.36,20.13,0.44,-2.78,5.42,4.68,-15.87,16.2,-3.22,-0.49,-2.39,11.81,8.67,-10.19,-2.0,-4.93,5.32,26
-6.46,0.71,20.81,2.1,-2.83,3.22,2.47,-13.4,15.25,-1.61,-12.6,-0.54,11.75,10.06,-10.3,1.17,-0.73,-1.95,26
-6.21,0.14,20.63,-0.05,-2.05,1.66,3.2,-13.38,15.94,2.29,1.12,0.44,11.6,9.8,-10.72,5.22,1.51,-0.34,26
-5.79,1.05,20.82,2.1,-1.51,1.66,3.12,-14.03,15.52,-0.44,-2.2,-0.2,11.34,9.42,-10.68,2.0,-0.24,-0.59,26
-6.01,-0.12,20.91,-1.32,-1.42,2.69,3.54,-13.77,15.9,0.05,0.78,0.98,10.71,9.03,-11.09,-0.44,2.39,-0.49,26
-6.42,0.44,20.17,0.68,-0.59,3.03,3.7,-14.49,15.74,-1.61,-1.37,0.78,11.1,8.92,-10.63,0.88,-1.51,3.13,26
-5.27,0.15,21.27,0.59,-4.64,1.76,3.0,-13.44,15.49,0.98,-2.39,0.83,11.1,9.1,-10.76,1.12,1.17,-1.32,26
-5.86,1.48,20.9,2.39,0.59,2.05,3.92,-14.42,16.12,-2.73,-2.64,-2.15,11.12,8.74,-10.66,-0.68,0.1,4.59,26
-6.23,0.38,20.34,-0.39,-0.49,-0.73,4.06,-13.39,16.17,2.39,0.73,1.46,11.35,9.12,-11.32,2.54,3.22,-0.29,26
-6.06,0.95,20.62,3.61,-0.73,-0.05,3.06,-14.01,15.52,-0.63,1.56,-1.03,10.4,9.27,-11.3,0.2,2.15,-0.78,26
-5.91,0.73,20.98,-2.2,-1.86,-0.15,3.42,-13.66,15.51,1.86,-0.59,-1.37,11.85,9.64,-10.96,6.2,0.24,5.03,26
-5.9,1.66,20.49,2.25,-2.49,1.07,3.56,-14.58,15.83,-0.59,0.93,-0.29,10.73,8.43,-11.45,-4.1,3.96,-0.88,26
-16.99,-3.45,14.61,-19.09,-81.01,28.37,12.67,-9.88,13.17,50.98,-14.26,-8.5,9.68,13.04,-12.94,-91.75,-84.67,9.52,27
27.4,-1.09,14.65,109.86,-222.9,80.86,11.04,-10.76,13.43,9.67,-4.49,-5.66,4.27,11.41,-12.85,24.8,0.1,-0.34,27
10.66,0.93,18.99,18.75,-20.8,2.2,10.98,-9.8,13.36,1.86,1.95,0.83,5.53,10.18,-13.83,-12.65,5.18,3.37,27
9.97,0.21,17.9,-0.1,-9.62,0.29,11.89,-9.48,13.28,0.34,-1.03,2.34,5.89,11.45,-13.83,11.82,2.2,0.15,27
9.62,0.96,17.46,0.73,-0.54,0.93,12.33,-10.9,13.33,-8.45,-10.35,-4.35,6.72,10.39,-13.52,3.86,3.27,-6.1,27
9.91,1.15,17.44,0.2,-0.29,2.88,12.68,-10.02,13.79,-7.67,0.88,6.54,5.73,11.45,-13.93,-0.98,-1.76,2.2,27
10.41,0.01,17.69,-4.15,-5.86,0.15,14.72,-6.6,8.64,-74.41,97.95,-5.91,5.83,10.47,-14.14,3.81,4.25,2.69,27
11.4,1.15,18.21,-1.47,-0.83,2.69,2.51,-8.71,7.22,-42.77,173.34,-23.73,7.93,9.57,-12.58,20.21,-9.67,-38.87,27
13.38,4.41,19.94,-1.47,69.24,-43.9,7.48,-7.09,14.78,76.71,16.11,10.79,13.41,11.22,-8.61,108.25,169.63,0.59,27
6.18,-1.69,-1.66,-79.88,384.52,-172.9,7.41,-12.25,17.26,-11.57,-20.9,-4.05,5.64,5.98,-11.76,-60.21,-38.82,-23.44,27
5.8,-5.28,22.12,58.06,60.89,-14.45,6.84,-11.37,14.57,-2.34,-5.13,-3.81,11.79,10.62,-11.75,17.58,14.75,5.96,27
-6.71,0.09,21.27,-34.28,-17.97,-5.71,7.64,-14.3,15.28,-5.27,4.64,1.76,12.76,7.76,-11.18,-6.49,-17.68,2.49,27
-6.42,1.77,19.83,5.76,1.12,-2.25,7.05,-13.12,15.45,-1.9,-3.61,0.29,11.35,9.02,-10.9,-7.72,2.15,-2.1,27
-6.09,-0.49,21.83,-6.1,-2.39,-3.42,6.59,-12.35,14.64,0.29,0.24,-0.63,10.94,8.61,-11.37,2.59,0.15,-3.42,27
-7.05,-0.16,20.4,-1.32,-2.54,1.86,7.21,-13.68,15.39,-3.08,3.27,0.68,10.8,8.27,-11.33,3.12,-3.76,1.37,27
-7.02,0.39,19.94,2.78,0.39,-0.34,6.48,-13.08,15.19,1.27,0.34,0.1,11.4,8.83,-11.56,-2.25,0.83,2.25,27
-6.46,0.55,21.13,3.52,0.0,0.39,7.17,-13.34,15.27,0.59,-1.07,1.66,10.32,8.21,-11.73,-1.22,0.68,-0.1,27
-7.41,0.14,20.09,2.34,1.56,-2.29,6.61,-12.52,15.31,2.73,-1.46,-0.39,11.55,8.97,-11.28,4.0,1.17,1.81,27
-6.77,0.03,20.71,0.34,-3.56,0.68,7.59,-12.62,15.57,-1.61,-1.27,-1.76,10.95,7.93,-11.23,0.83,-1.95,1.95,27
-7.0,0.45,20.2,4.59,-1.56,4.3,6.9,-12.61,15.36,1.71,0.73,0.39,10.99,7.74,-11.97,-2.1,3.76,-0.34,27
-10.51,-2.12,14.3,2.25,-102.83,62.94,9.21,-9.16,5.81,8.06,42.48,8.94,11.51,9.2,-10.51,3.12,1.9,-1.86,28
22.75,-2.42,26.29,72.75,-72.71,12.3,12.61,-9.73,11.64,14.06,-4.25,0.0,11.4,9.54,-10.87,1.76,6.01,-4.0,28
12.17,-0.94,18.59,11.77,-25.2,13.57,14.13,-10.27,12.36,12.26,-8.45,1.32,10.68,8.88,-10.67,3.71,1.46,1.76,28
10.78,-0.29,16.45,10.35,-11.23,2.49,10.94,-10.17,12.24,17.63,-7.71,20.12,11.61,9.04,-10.44,-0.78,8.11,-0.59,28
12.7,0.78,16.81,5.03,-0.39,6.64,3.8,-4.39,7.71,-141.55,126.61,-56.79,12.33,8.75,-10.21,-1.12,5.03,1.86,28
10.9,3.73,19.02,29.93,82.62,-10.99,16.26,-19.87,13.69,-5.96,46.92,22.71,11.99,8.76,-10.31,-2.69,3.08,-1.86,28
3.82,-4.02,16.94,6.4,260.45,-139.79,7.84,-14.22,13.9,-12.35,0.34,-3.32,11.94,9.04,-10.0,-0.59,1.32,0.93,28
-0.9,-2.11,21.52,22.61,52.59,-22.71,9.74,-14.02,13.87,-4.0,-7.32,-4.79,11.98,9.32,-10.3,1.12,0.39,-1.32,28
-5.99,-0.76,21.33,-8.69,-2.54,6.64,10.16,-13.22,14.09,-1.61,-1.51,-1.9,11.67,8.8,-10.06,-0.63,3.22,1.07,28
-5.87,0.1,20.93,-4.0,6.49,-3.17,8.48,-13.57,13.28,0.34,-1.42,1.32,12.25,8.93,-9.9,-1.37,2.05,2.0,28
-4.41,0.65,21.07,2.73,1.71,0.29,8.51,-12.87,13.61,5.08,-2.34,1.46,11.87,9.24,-10.04,0.24,2.1,0.29,28
-5.59,0.13,20.53,2.98,0.2,2.69,8.28,-13.29,13.62,-1.03,2.1,-0.49,11.82,9.3,-10.19,1.27,1.32,-2.2,28
-5.27,1.43,20.73,2.93,-2.29,-1.51,7.16,-11.66,13.51,7.08,5.22,-10.16,12.2,9.22,-10.13,1.61,-1.27,-0.54,28
-6.04,-0.3,20.22,-1.42,-0.78,-3.12,11.61,-13.94,14.03,-6.1,-7.86,-8.35,11.35,8.93,-10.14,-1.9,-4.1,1.66,28
-5.24,1.78,20.19,9.81,-16.55,-6.1,9.92,-13.69,13.5,0.98,4.83,6.01,11.86,9.15,-10.46,-0.68,1.46,-2.2,28
-2.69,0.4,23.29,-2.54,-2.73,-3.66,8.32,-13.12,13.88,0.29,-3.61,2.0,11.98,9.56,-9.99,5.66,-4.64,0.39,28
-5.0,0.43,20.69,2.69,5.62,0.63,9.3,-12.94,13.71,1.27,-5.81,0.63,11.2,9.16,-10.71,2.59,2.39,-1.12,28
-5.26,0.46,20.65,1.51,-1.76,2.69,9.04,-12.97,13.74,-5.03,-1.46,-2.54,11.75,8.8,-10.31,0.24,2.59,-0.44,28
-4.87,0.94,21.46,0.83,-3.12,4.74,8.39,-12.27,13.02,5.13,-3.91,-1.56,12.1,9.27,-10.18,3.47,-0.49,-0.15,28
-5.05,-0.08,21.12,-3.17,-4.0,0.88,9.36,-13.15,13.79,-0.1,-5.13,-1.71,11.4,8.8,-10.73,-0.05,-1.66,0.78,28
8.63,-1.29,13.43,87.21,-188.62,70.51,4.99,-14.27,11.69,143.31,9.08,13.53,2.39,10.35,-16.24,-6.49,34.81,-7.03,29
9.6,0.75,18.5,25.73,-16.65,34.91,15.17,-9.73,13.8,30.57,-21.48,22.61,5.38,9.56,-14.3,6.15,-2.88,0.63,29
7.95,2.95,16.86,18.12,3.37,-3.17,10.31,-8.52,14.09,15.82,0.78,-2.34,5.87,11.29,-12.16,0.78,-4.1,-27.39,29
9.42,4.91,17.06,-18.9,13.62,17.09,9.44,-7.22,14.16,-16.8,7.32,36.91,22.25,-2.78,-21.53,135.5,318.21,42.53,29
22.24,3.68,1.82,-32.18,330.03,-230.52,3.81,-5.43,2.05,-60.5,218.75,-80.13,16.39,0.46,-3.55,-80.47,-132.28,-17.43,29
10.16,-4.74,21.63,28.22,-78.37,54.39,3.96,-3.58,5.65,164.6,86.52,30.27,12.29,3.96,-11.4,3.86,25.2,-13.28,29
-8.13,7.05,17.97,-2.93,-17.14,9.77,6.52,-14.95,17.34,-12.55,-26.51,0.24,12.79,8.15,-10.81,-9.57,-20.95,5.32,29
-7.29,1.69,20.9,12.6,3.47,-5.27,5.7,-13.09,14.88,-0.54,-0.88,1.71,11.11,7.5,-10.82,-1.27,2.44,-1.81,29
-6.77,0.16,19.74,9.13,3.27,1.03,6.13,-13.86,15.07,-4.25,-3.27,-0.88,11.71,9.06,-11.24,5.32,-2.54,-4.59,29
-5.45,-0.33,21.13,-2.54,-5.57,1.76,5.47,-12.34,14.64,4.25,-2.93,2.2,11.69,8.48,-11.53,3.22,-0.98,-2.59,29
-6.34,0.48,20.87,-0.39,-4.1,-1.56,6.8,-13.16,15.38,0.88,-6.4,-0.39,11.3,8.54,-11.34,4.15,-0.34,1.56,29
-5.56,-0.08,20.76,0.98,-3.08,0.54,6.24,-13.6,15.23,-0.63,-6.64,-0.39,11.11,8.45,-11.63,-0.29,3.42,-1.86,29
-5.53,0.53,20.66,3.42,0.83,0.44,6.56,-13.73,15.36,-3.22,1.17,-0.54,10.79,8.62,-11.5,1.12,-1.37,0.44,29
-6.14,-0.09,20.52,0.1,-3.12,-1.03,6.05,-13.46,14.9,-0.49,-1.76,-2.25,11.19,8.6,-11.84,2.25,1.61,-1.27,29
-5.08,0.56,21.07,3.66,-1.46,3.13,6.44,-13.09,15.12,-0.2,-3.47,-0.88,11.19,8.92,-11.98,2.78,-0.59,-1.76,29
-5.16,-0.14,21.45,-0.88,0.54,0.93,6.04,-13.32,14.65,-0.05,0.05,1.17,10.34,8.22,-11.95,-0.2,-0.05,1.51,29
-5.54,0.24,20.82,0.93,-2.59,-0.29,6.28,-13.7,14.88,-1.03,0.34,-0.34,10.63,8.27,-12.03,-1.03,1.42,-1.22,29
-5.16,0.56,20.98,1.27,-2.34,0.05,6.54,-13.58,14.86,-0.15,-2.73,-1.07,10.57,8.59,-12.21,1.07,0.98,-1.27,29
-5.06,0.11,20.94,0.05,-1.86,2.15,7.1,-13.25,15.03,0.1,0.44,-0.05,10.64,8.79,-11.99,0.49,1.22,-1.03,29
-5.26,0.3,20.75,-1.47,-2.2,0.78,6.26,-13.18,14.99,0.73,-0.93,-1.03,10.87,8.67,-11.8,1.22,0.59,-0.78,29
15.5,-3.69,18.71,96.73,-165.23,54.49,8.35,-7.33,13.79,14.31,6.59,1.56,22.1,3.06,-12.54,-92.43,-15.28,10.35,30
13.62,1.49,19.45,29.93,-43.51,10.3,10.65,-9.58,14.45,1.03,1.51,-0.44,3.72,15.41,-16.67,11.13,-4.54,2.0,30
8.84,3.51,15.48,8.11,-6.01,3.71,16.76,-6.52,16.78,-25.49,27.98,11.87,3.36,9.13,-14.45,2.29,10.4,5.52,30
10.06,1.57,16.61,-5.96,-1.03,1.03,5.42,-21.83,15.65,-15.82,105.37,13.23,6.17,9.47,-14.11,10.11,8.15,-8.94,30
15.62,4.75,24.22,-9.57,67.19,-62.99,2.89,-9.7,13.31,69.97,22.56,20.21,20.04,-1.91,-14.8,110.01,160.5,13.09,30
3.64,-8.63,8.49,-32.67,308.89,-100.88,7.53,-16.78,17.31,-13.53,-3.32,-2.78,1.62,1.16,-13.99,-52.78,30.42,-8.5,30
2.55,0.93,21.09,32.86,-42.04,14.21,6.84,-14.32,16.93,-6.84,-10.11,-6.25,10.85,7.98,-12.65,11.52,31.79,-22.71,30
-3.45,1.25,20.85,-13.62,-27.98,5.76,4.13,-10.51,15.54,6.25,-3.81,1.46,11.24,9.64,-11.67,6.64,-2.44,-6.05,30
-3.47,2.09,22.06,0.44,-22.75,-3.22,4.77,-13.03,16.13,-2.54,-6.15,0.63,11.14,8.3,-13.48,5.13,8.89,-6.79,30
-5.14,2.12,19.02,-2.3,-8.06,3.22,4.03,-12.82,15.18,-0.39,-1.76,-4.0,11.58,7.96,-11.82,1.9,2.78,2.29,30
-5.06,1.2,21.21,-5.91,-0.63,4.39,5.46,-12.56,16.64,2.2,-4.69,-0.73,10.3,8.35,-12.38,3.22,4.15,-3.56,30
-5.0,1.31,20.6,0.59,-7.62,-2.34,5.63,-12.89,15.75,-1.76,6.05,0.93,12.28,8.94,-11.56,5.08,5.81,-1.17,30
-4.1,2.69,21.37,4.0,-1.86,4.2,5.41,-13.5,15.59,0.29,2.0,2.83,11.56,8.05,-12.06,1.9,2.44,-2.59,30
-4.4,1.5,21.22,-5.37,-3.76,-1.42,5.24,-12.47,15.9,0.93,-3.32,-0.29,11.27,8.63,-11.37,3.76,0.68,-0.05,30
-3.87,1.4,21.27,3.95,2.59,3.37,5.33,-12.69,15.78,-0.0,-1.76,-0.49,11.18,8.31,-11.81,0.44,1.71,-4.25,30
-4.68,1.93,20.69,1.17,-2.05,2.25,6.42,-12.72,16.48,-0.1,-2.64,1.37,10.7,8.6,-12.06,2.39,2.78,-1.86,30
-4.62,1.38,20.69,0.54,-2.83,1.37,5.51,-13.26,15.91,-0.93,-3.32,0.05,11.97,8.39,-11.69,2.54,1.03,-0.59,30
-4.72,1.47,21.34,-2.44,-3.96,3.08,5.88,-12.89,16.1,0.59,-0.83,-0.29,10.68,7.97,-11.75,0.05,-1.22,-0.63,30
-4.2,0.61,21.28,-2.59,-3.66,1.46,6.88,-13.15,16.26,-3.08,-1.95,0.88,10.8,8.2,-12.1,1.22,2.39,-2.0,30
-4.19,0.99,20.99,-0.39,-3.47,0.39,5.11,-12.9,15.29,-1.51,-3.17,-1.46,11.36,8.46,-11.82,3.27,1.37,0.39,30
21.49,6.83,18.56,107.28,-153.91,68.21,10.67,-7.59,15.98,-13.97,1.66,18.65,3.24,12.03,-17.03,5.52,19.48,1.22,31
11.21,2.19,17.79,21.73,-34.23,20.41,5.15,-9.79,13.0,-143.95,84.03,-56.45,5.69,9.66,-15.35,2.59,4.93,-0.2,31
10.26,2.14,16.84,6.54,-3.03,-0.1,6.08,-13.71,13.98,27.1,47.22,16.36,5.55,9.53,-16.02,21.19,-6.79,-23.39,31
10.31,3.77,16.75,2.98,-0.05,3.66,5.54,-13.68,16.67,-4.15,-4.74,-1.9,9.54,3.22,-19.79,130.22,183.15,-10.55,31
12.93,8.33,17.4,11.47,139.31,-91.46,5.98,-13.84,15.5,-3.76,-2.69,-0.54,12.81,5.98,-12.26,-28.71,-36.96,-6.84,31
-14.08,-0.89,20.43,-27.64,216.75,-113.87,5.63,-13.56,15.79,-4.44,-5.08,-1.17,10.3,5.9,-13.04,16.36,23.39,-12.26,31
-8.99,3.44,19.09,28.12,31.84,1.17,5.52,-13.05,15.46,0.1,-1.46,-1.71,10.5,7.23,-12.18,-4.93,-5.03,-2.64,31
-6.16,0.72,20.7,-14.16,-1.37,-4.1,5.69,-13.01,15.31,-0.2,-1.86,0.49,9.97,7.54,-12.55,-2.64,2.64,-2.98,31
-6.11,1.16,20.37,-0.34,-5.22,2.05,6.14,-13.28,15.66,-0.39,-3.27,-0.2,10.69,7.51,-12.12,1.27,0.88,0.68,31
-7.17,1.63,20.44,-1.56,-4.2,-0.34,5.59,-12.93,15.39,0.2,-0.34,0.15,10.8,7.8,-11.98,0.34,0.49,-1.17,31
-7.03,1.69,20.59,-1.66,-0.05,-1.12,6.13,-13.06,15.55,-0.29,-2.2,0.29,10.93,8.07,-12.32,2.2,2.34,-1.46,31
-6.66,1.44,20.44,2.93,-3.56,0.24,5.93,-13.42,15.49,-0.05,-2.83,1.17,10.71,8.22,-12.27,1.07,2.34,-1.61,31
-6.78,1.05,20.5,-0.93,-3.47,-0.39,5.84,-13.22,15.37,-1.47,-0.68,0.15,10.75,8.38,-12.35,2.49,2.73,-1.61,31
-6.67,0.93,20.56,-0.1,-2.54,1.61,6.03,-12.68,15.54,1.27,-2.25,-0.49,10.7,8.22,-12.19,1.81,1.95,-2.44,31
-6.83,1.05,20.56,0.05,-3.08,1.61,6.03,-13.25,15.31,-0.59,-1.56,-0.59,11.0,7.67,-12.01,0.05,-1.71,1.42,31
-6.64,1.32,20.57,0.98,1.95,-0.59,5.64,-12.76,15.46,-0.68,-2.39,-1.12,10.52,8.26,-12.31,2.69,1.32,-1.86,31
-6.62,0.67,20.68,-1.22,-2.93,0.73,6.35,-13.24,15.57,-0.59,-1.07,0.0,10.46,8.16,-12.31,2.15,1.37,-0.24,31
-6.54,1.59,20.47,0.34,-1.51,-0.63,6.01,-12.97,15.23,-0.78,-0.68,-1.76,10.42,8.08,-12.5,0.68,3.08,-0.78,31
-6.69,0.7,20.65,0.29,-0.24,0.93,6.07,-13.24,15.36,-0.05,-0.34,1.03,11.04,8.33,-12.32,2.69,0.68,0.93,31
-6.57,1.11,20.68,-0.1,-2.88,-0.73,6.45,-13.02,15.54,-1.37,1.46,0.39,10.26,7.76,-12.43,-1.17,1.86,-0.68,31
21.47,2.75,13.68,144.78,-189.01,92.14,11.31,-10.74,14.23,10.06,7.32,2.73,19.17,-1.45,-6.72,-64.94,161.38,1.07,32
10.23,-6.45,16.81,-3.96,-28.91,8.06,11.61,-9.05,15.55,4.93,-12.35,2.59,-4.65,18.11,-23.02,39.84,99.95,-6.05,32
6.61,-0.25,17.07,-0.73,4.39,-2.69,3.85,0.32,8.12,-89.7,163.57,-75.93,12.61,10.42,-11.83,-6.2,-0.39,-1.22,32
13.15,3.49,19.93,-11.96,6.49,14.6,15.53,-23.25,18.99,15.33,11.08,13.87,11.14,11.07,-12.33,4.59,-4.49,1.71,32
14.43,-0.2,9.4,-53.17,258.89,-184.03,3.71,-12.58,14.24,-22.75,-21.87,-1.27,10.23,8.99,-11.7,6.84,6.69,-3.86,32
-3.53,-4.74,20.29,45.46,-55.03,47.02,5.76,-14.22,14.87,-5.37,1.61,-1.07,10.8,8.46,-11.74,-1.81,-4.2,-0.34,32
-8.94,1.55,19.5,-29.1,4.05,-1.46,5.37,-13.18,14.45,-1.81,-6.45,-1.17,9.9,8.32,-12.24,-2.78,1.51,-2.59,32
-6.15,1.87,20.79,1.17,-3.52,-0.05,4.8,-13.94,14.27,4.44,6.64,2.49,10.88,10.11,-11.87,6.05,3.22,-2.44,32
-5.47,1.27,20.93,0.83,-7.37,1.37,5.8,-14.16,14.89,-3.66,-5.08,-2.64,10.45,9.33,-12.33,3.08,-0.24,-0.93,32
-6.05,1.29,20.18,3.37,-4.44,1.86,6.44,-13.49,14.98,-1.66,-1.71,-0.49,10.17,9.14,-11.79,-0.54,1.95,-1.46,32
-5.43,-0.17,20.94,-2.54,-1.56,1.12,5.86,-13.8,14.77,1.86,2.59,0.98,9.86,9.7,-12.36,4.15,3.76,-2.64,32
-4.88,0.77,21.37,-0.29,-5.37,0.2,5.83,-14.01,14.68,-0.24,-3.86,-1.22,9.77,8.59,-12.05,-0.98,2.25,-1.22,32
-5.52,0.44,20.54,0.15,0.54,-0.78,5.79,-13.4,14.73,3.37,2.2,1.9,10.38,9.03,-11.89,-0.34,1.46,-2.25,32
-4.38,0.02,21.3,1.61,-4.98,3.61,6.28,-13.77,14.91,0.15,-3.47,-0.98,10.2,8.92,-12.07,1.71,1.17,0.29,32
-5.16,1.17,20.77,1.22,-0.44,0.73,5.52,-13.94,14.61,-0.29,2.93,1.42,10.48,8.88,-12.0,1.66,1.86,-1.81,32
-4.68,0.61,21.17,3.22,-2.29,1.37,6.11,-13.86,14.88,-0.49,-1.9,0.44,10.17,9.18,-11.94,0.73,0.34,-1.46,32
-5.14,0.25,20.79,-0.68,-2.59,-0.24,6.12,-13.72,14.92,-0.59,-1.81,0.2,10.61,9.47,-12.01,2.78,3.42,-0.93,32
-4.73,0.55,20.97,-0.1,-1.42,1.22,5.68,-13.76,14.52,-1.12,-1.03,-0.78,10.24,9.06,-11.69,0.73,1.37,0.29,32
-4.67,0.38,21.11,1.27,-2.88,2.25,6.53,-14.04,15.09,0.05,0.68,1.07,10.23,9.41,-12.03,0.44,3.66,-2.59,32
-5.02,-0.44,20.72,-3.22,-3.86,-0.59,5.97,-14.24,14.66,-2.1,-1.46,-0.34,10.35,9.27,-12.09,1.61,1.17,-0.29,32
12.04,6.17,19.81,65.53,-128.12,63.23,11.36,-7.41,23.37,52.2,-48.68,15.33,3.49,6.25,-13.33,-29.1,28.47,15.97,33
9.69,0.24,18.81,16.31,-33.2,19.14,10.85,-12.62,15.83,11.77,-20.07,6.35,3.52,12.23,-15.19,-6.84,-2.15,-5.08,33
7.41,1.1,17.35,5.03,-7.81,-0.44,8.39,-11.63,14.68,12.45,-16.46,-2.29,4.41,12.96,-15.14,6.25,21.0,-4.88,33
10.76,1.94,18.32,0.2,-4.88,7.62,8.93,-10.08,14.75,-5.91,5.62,8.54,5.67,11.69,-13.99,20.07,0.73,-26.37,33
15.87,5.27,19.12,1.56,111.13,-69.87,4.71,-7.71,7.92,-86.33,160.35,-54.93,8.87,11.36,-25.4,145.31,215.28,-11.91,33
-13.52,-3.83,20.6,-68.36,243.65,-122.31,9.84,-21.77,16.63,7.52,32.37,20.8,9.31,6.23,-10.16,-47.46,-15.04,-15.19,33
-5.82,0.59,21.26,47.17,-1.56,7.71,3.91,-15.05,15.52,-7.91,-6.3,-0.78,11.52,9.73,-12.22,11.87,14.65,-20.46,33
-5.0,-0.5,21.93,-5.32,-18.12,1.86,5.53,-15.21,15.41,-0.1,1.37,-0.78,10.67,8.69,-11.11,-2.39,-6.45,2.0,33
-5.51,-0.48,20.64,1.81,-7.23,5.08,5.05,-13.75,15.23,-2.64,6.3,-2.98,10.68,8.6,-11.52,-4.88,0.05,-0.78,33
-6.31,-0.42,20.9,-3.56,-4.2,0.88,5.15,-14.15,15.49,-1.56,1.51,-1.03,10.21,8.89,-11.67,3.66,0.15,1.66,33
-6.54,-0.4,20.5,-4.64,0.44,-0.59,5.09,-14.17,15.11,-0.49,-4.93,-1.03,10.01,9.29,-11.81,2.49,1.81,-1.32,33
-6.01,-0.03,20.76,-1.51,-3.76,0.39,4.26,-14.23,14.8,0.54,1.07,0.98,10.27,9.4,-11.54,0.39,1.66,-2.25,33
-5.77,0.26,21.12,4.3,-5.27,1.56,5.27,-14.36,15.18,-0.68,-2.69,-0.83,10.38,9.65,-11.81,0.68,-0.24,-0.98,33
-5.85,-0.4,20.88,-1.12,-1.42,0.73,4.53,-14.24,14.67,1.56,-3.03,0.2,10.08,9.5,-11.79,1.56,-0.68,0.68,33
-5.14,0.49,21.34,3.81,0.05,1.9,4.48,-13.6,14.77,0.88,0.24,2.05,10.32,9.55,-11.86,2.05,0.49,-2.25,33
-5.82,-0.11,20.62,-0.05,-4.44,0.68,4.83,-15.02,15.24,-1.9,2.15,-0.59,9.63,9.58,-12.3,2.2,1.51,0.34,33
-6.05,-0.58,20.67,0.1,0.2,0.93,4.68,-13.75,15.12,0.63,-1.86,-0.68,10.27,8.97,-12.25,0.93,2.54,-0.2,33
-5.86,0.56,21.02,0.54,-2.15,0.54,5.53,-14.24,14.9,-2.05,-2.73,-1.86,10.58,9.48,-11.81,1.42,-0.39,0.29,33
-5.16,-0.64,21.19,-1.32,0.93,-0.05,4.39,-14.12,14.5,2.69,0.44,0.1,9.59,9.23,-12.0,0.1,1.9,-0.44,33
-5.76,0.29,20.95,3.95,-3.61,2.83,5.55,-14.03,15.19,-0.63,-0.98,0.34,10.26,9.11,-12.32,0.2,1.86,-0.68,33
9.69,5.64,18.31,70.61,-173.05,89.16,6.09,-12.83,13.07,73.34,-42.82,22.36,23.28,4.84,4.05,-97.75,-93.12,-19.04,34
5.98,-3.09,18.8,-1.81,-34.96,31.79,3.92,-14.14,14.24,19.43,-44.43,17.92,-0.43,12.43,-15.73,15.23,33.74,7.42,34
7.45,1.61,18.67,9.77,-3.96,0.0,6.77,-10.75,15.84,22.46,-2.44,-0.24,4.42,10.33,-14.8,1.17,12.21,1.17,34
9.57,2.43,19.07,-1.32,-4.93,3.37,9.05,-11.24,16.67,-2.93,-11.91,0.59,5.29,10.71,-13.39,2.93,2.64,0.98,34
10.57,1.83,19.56,5.42,-7.42,2.54,8.25,-12.01,15.79,-3.86,-8.54,-3.12,4.92,11.38,-14.6,10.74,-4.25,-5.52,34
11.07,3.62,19.86,-7.42,43.26,6.25,9.78,-10.67,16.88,-24.07,20.75,23.39,10.77,4.79,-10.4,49.66,127.1,-51.37,34
4.76,-2.91,12.63,-19.53,236.43,-114.94,3.79,-13.93,10.65,-43.75,106.74,-33.15,3.4,12.76,-22.02,-10.89,88.48,-27.0,34
-7.04,-2.83,20.98,-16.8,-47.22,15.53,4.47,-22.35,16.05,6.93,17.43,6.3,10.82,7.08,-9.72,-4.83,0.93,2.29,34
-9.66,1.91,19.22,-5.52,-6.64,-3.03,2.53,-15.45,15.52,-9.86,-9.86,-6.79,9.98,9.02,-11.31,-2.1,-2.2,1.37,34
-8.16,-0.53,20.73,0.54,-2.98,1.56,3.45,-15.51,14.88,1.37,-5.62,-0.15,10.13,9.96,-11.67,2.69,4.2,-2.69,34
-7.86,-0.14,20.28,0.63,-5.52,2.83,3.92,-14.84,15.63,-2.05,-8.11,-2.25,10.13,9.62,-11.65,-0.1,-1.51,0.39,34
-7.5,-0.98,20.38,-4.25,-4.05,1.71,2.67,-15.0,14.51,-1.42,-4.1,1.03,8.77,10.08,-12.15,-0.15,1.71,-1.61,34
-7.15,-0.17,20.51,0.98,-1.37,-0.54,3.32,-14.86,14.74,2.54,1.9,1.27,10.0,10.34,-11.94,4.35,2.25,-1.76,34
-7.56,-0.72,19.94,0.88,-2.93,-0.15,3.12,-14.65,14.44,1.03,-2.0,-0.88,9.9,10.1,-11.93,3.22,2.98,-0.49,34
-6.79,-0.49,20.7,0.24,-4.05,1.37,3.57,-14.83,14.95,0.24,1.46,0.29,10.05,9.93,-11.75,1.42,1.66,-0.73,34
-6.67,-0.64,20.79,-1.9,-4.59,0.49,4.22,-15.27,14.9,-1.76,2.64,0.54,10.12,9.9,-11.67,1.42,-0.73,0.54,34
-6.89,-0.7,20.58,-1.86,-4.25,0.98,3.79,-15.16,14.82,-0.49,-2.44,0.34,9.59,9.41,-11.81,-0.98,0.63,-0.24,34
-6.34,-0.1,20.8,0.29,-2.29,1.22,3.85,-14.78,15.11,-0.83,-1.37,-0.24,9.45,9.55,-11.77,-0.15,0.98,-0.54,34
-6.2,-0.6,20.92,0.73,-4.25,1.81,4.33,-15.27,15.01,-2.1,-1.17,0.34,9.81,9.65,-11.77,-1.12,1.42,-1.07,34
-6.63,-0.81,20.64,-1.47,-0.63,1.71,4.04,-15.13,15.12,-1.03,4.15,1.66,9.52,9.69,-11.94,2.05,1.76,0.49,34
10.08,6.1,16.7,62.3,-80.52,82.32,6.91,-12.52,15.17,5.03,-2.2,-1.32,3.18,13.11,-16.63,-4.93,-19.58,-1.81,35
11.49,4.35,17.04,8.74,5.66,2.34,7.56,-12.58,15.37,0.39,1.61,-0.59,7.86,9.77,-12.39,3.42,-1.61,7.08,35
9.49,0.77,18.51,0.68,-13.96,2.15,7.36,-9.8,15.87,-39.26,42.48,6.93,6.67,11.31,-13.6,2.15,3.96,4.93,35
9.65,1.35,17.99,3.56,-3.61,1.17,3.68,-20.67,15.58,-79.59,54.0,-32.37,5.98,10.25,-14.06,3.71,4.39,1.22,35
10.74,0.79,18.01,1.51,-6.64,1.9,-0.03,-10.43,11.85,32.08,38.53,4.35,6.65,9.96,-14.1,1.76,0.0,1.56,35
14.05,0.24,19.51,10.35,24.76,10.64,2.66,-14.84,15.03,5.66,6.69,4.49,12.65,5.83,-7.57,48.78,69.63,-7.62,35
4.0,2.15,12.26,-1.22,282.13,-176.86,3.31,-14.94,15.13,1.46,-8.01,-0.44,3.76,13.06,-19.32,14.55,66.02,-52.73,35
-0.73,-8.51,20.9,13.77,-20.26,10.79,2.77,-15.27,14.84,2.05,2.73,1.42,9.66,8.64,-12.04,2.15,6.69,0.44,35
-6.13,-1.92,20.87,-16.21,-24.85,1.37,2.42,-15.77,14.62,-2.0,1.86,-2.25,9.18,10.29,-12.31,-4.44,4.88,-4.93,35
-9.07,-1.12,19.33,-6.25,-4.2,-2.54,2.78,-15.45,14.68,1.71,2.25,2.2,9.18,10.3,-12.34,4.69,13.43,-3.12,35
-7.96,-0.31,20.53,-2.54,2.59,-2.0,2.68,-15.46,14.87,-1.03,-0.63,-0.24,11.5,9.7,-11.08,5.27,-4.59,0.0,35
-7.91,-0.65,19.72,1.81,-8.79,2.73,3.37,-15.31,14.85,-2.25,-2.2,-1.71,9.91,9.57,-11.57,1.22,-1.46,-1.46,35
-7.84,-1.11,20.32,1.46,-1.86,1.46,2.96,-15.37,14.83,-0.59,-2.64,-0.05,10.27,9.68,-11.5,2.2,1.66,-2.73,35
-7.95,-0.56,20.2,0.34,-1.12,0.73,2.87,-15.59,14.6,-2.69,-2.69,0.39,10.21,9.25,-11.52,0.1,-3.03,0.93,35
-7.73,-0.81,20.27,-0.1,-5.22,0.78,3.9,-16.25,15.32,-5.37,-7.67,-0.24,9.77,9.48,-11.72,-1.56,1.03,-0.73,35
-7.5,-1.18,20.39,1.07,-1.46,2.2,3.45,-14.92,14.41,1.22,-2.78,1.51,9.51,9.84,-11.82,0.78,-1.12,-0.73,35
-6.79,-0.86,20.45,0.29,-3.42,1.81,2.82,-15.06,14.01,-1.71,-6.01,0.05,9.35,9.92,-12.17,1.56,0.59,-2.29,35
-7.11,-1.04,20.53,-1.42,-9.13,2.34,3.01,-15.21,14.09,3.81,1.71,3.08,9.45,10.03,-12.58,3.42,-4.64,-3.27,35
-6.74,-1.36,20.59,0.24,-3.66,3.66,2.82,-14.69,14.17,2.59,-0.34,0.54,8.09,9.81,-13.34,1.61,-9.08,1.07,35
-6.11,-0.98,20.4,-2.64,-1.37,-1.66,3.55,-15.64,14.44,-0.1,0.05,0.83,8.79,9.34,-12.44,-1.61,-0.63,-3.17,35
20.4,6.11,21.56,17.53,-77.59,31.35,6.86,-13.26,15.11,18.36,-16.55,1.03,16.23,9.0,-13.26,-26.03,-13.43,-7.67,36
11.51,1.2,19.27,4.98,-11.08,13.53,7.54,-11.97,15.49,8.84,-7.37,-1.42,3.05,14.04,-16.18,8.74,4.69,-3.17,36
9.1,2.21,18.45,2.59,-9.57,4.1,7.92,-11.03,15.75,-7.37,-3.27,0.59,4.53,10.45,-15.0,7.71,9.81,0.15,36
11.46,2.08,19.6,-10.4,4.74,11.57,4.48,-10.69,12.79,-100.39,73.58,-33.59,4.9,10.49,-14.96,28.86,-4.2,-19.34,36
7.99,0.76,14.51,-35.25,211.82,-127.64,4.11,-17.8,14.58,-17.04,66.65,1.61,3.17,14.31,-20.33,91.89,113.43,-29.59,36
0.64,-9.2,20.8,-22.9,79.25,-30.47,3.2,-17.96,14.16,1.9,-5.37,4.79,10.68,10.45,-15.43,-17.38,9.33,-13.53,36
-3.85,-1.47,20.97,-5.08,-17.68,8.59,2.51,-14.68,14.55,1.07,-7.23,-0.63,6.6,7.8,-14.42,-5.76,12.16,-6.54,36
-6.36,-1.41,21.17,-6.1,-14.84,2.44,2.96,-15.32,14.68,-3.61,0.34,3.22,7.81,8.64,-13.72,-0.98,7.18,-2.83,36
-7.75,-1.52,20.69,-3.76,6.01,-2.05,2.81,-15.42,14.37,-1.51,0.34,-0.39,8.84,9.12,-12.87,-5.18,-0.49,-3.71,36
-5.91,-1.22,20.88,2.49,-1.17,2.0,3.18,-15.68,14.41,-2.34,-3.61,-0.54,8.57,10.0,-12.83,6.84,1.71,0.29,36
-5.46,-1.34,20.82,-0.98,-1.12,1.76,3.36,-14.67,15.35,-1.86,-0.88,-0.05,8.61,9.48,-13.19,2.93,0.59,-1.66,36
-4.66,-0.05,20.78,1.56,-3.27,0.49,3.89,-15.69,14.83,-1.95,-1.42,-1.07,9.04,9.67,-13.07,0.73,2.39,-1.9,36
-4.89,-1.1,20.82,2.54,-1.07,0.49,3.86,-15.43,14.94,-1.47,-2.39,-0.24,8.39,9.28,-13.21,2.64,-1.61,0.93,36
-5.11,-0.77,21.12,2.25,-1.66,0.54,3.08,-15.38,14.43,-2.39,-1.37,-1.07,8.24,9.39,-13.45,-2.44,2.44,-3.27,36
-5.36,-1.11,20.8,-0.63,-2.29,0.54,3.06,-15.48,14.27,-1.03,-0.98,0.49,8.58,9.71,-12.92,1.12,0.68,-1.76,36
-5.51,-1.66,20.9,-2.3,-1.12,1.22,3.35,-15.36,14.41,-2.0,-3.08,-0.78,7.87,9.99,-13.42,0.98,2.59,-1.76,36
-5.22,-1.19,21.1,0.15,-2.1,1.27,3.43,-15.7,14.22,-1.9,1.9,-2.05,8.11,10.0,-13.28,0.59,3.13,-1.95,36
-4.92,-1.56,20.96,0.83,-1.46,-1.66,3.78,-15.75,14.33,0.44,0.2,-0.2,8.32,9.42,-12.87,-1.56,0.93,0.63,36
-5.02,-1.77,21.17,1.32,-1.17,0.44,3.63,-15.58,14.18,0.34,-2.25,0.05,8.39,10.02,-13.17,0.59,1.95,-0.73,36
-5.09,-2.07,21.07,1.37,-2.49,2.64,3.42,-15.35,14.13,-0.49,-1.42,-0.44,8.33,9.87,-13.28,2.44,1.46,0.1,36
-13.07,-2.09,18.16,-6.1,-138.92,69.19,6.44,-13.92,16.62,23.44,-31.2,12.06,7.69,13.68,-14.53,-77.59,-166.21,47.27,37
13.85,7.29,21.6,28.12,-122.41,76.32,4.35,-12.2,15.36,18.51,-13.28,2.1,5.19,11.46,-11.56,14.16,14.36,14.65,37
11.7,-0.56,20.56,25.68,-40.04,23.39,6.0,-11.42,15.87,-13.53,6.69,7.37,3.65,10.23,-13.73,-27.15,-4.44,-10.6,37
6.26,-0.84,18.07,5.37,-12.11,2.59,3.4,-3.3,13.03,-113.33,123.24,-54.93,1.84,13.46,-16.18,8.3,7.03,-0.88,37
9.79,1.85,19.22,-4.98,5.08,2.59,5.64,-26.36,18.35,-43.65,20.26,18.85,4.78,5.6,-7.97,24.46,19.63,-12.79,37
15.82,9.32,21.53,85.79,43.8,-9.91,0.44,-17.53,16.3,-26.07,-3.61,-2.2,2.68,19.87,-22.21,96.78,160.55,-62.01,37
-10.49,-8.15,17.63,-181.1,188.04,-156.15,0.95,-15.24,15.0,-3.96,2.25,-4.59,11.12,6.65,-11.15,-28.27,-2.64,-1.32,37
-8.69,3.53,19.06,52.44,38.92,4.69,1.3,-15.13,14.55,-1.86,-10.79,-3.42,8.93,8.1,-12.48,-3.37,1.95,-13.09,37
-8.33,-2.21,19.91,0.54,7.18,1.07,1.45,-15.28,15.27,0.54,-1.71,0.29,9.85,11.95,-12.85,10.6,8.74,-15.33,37
-7.91,-2.47,20.41,-3.66,0.05,5.37,1.71,-15.63,14.9,-2.39,-5.62,-0.68,7.95,10.59,-12.83,3.81,2.2,-0.83,37
-6.99,-1.13,20.68,3.17,-4.1,4.2,1.85,-14.9,14.7,-0.44,-1.07,1.56,8.49,10.23,-12.65,0.54,1.95,-2.34,37
-6.09,-1.29,20.74,1.07,-6.98,6.35,1.42,-14.92,14.62,-0.73,2.49,-0.05,8.83,10.61,-12.8,7.76,-4.2,1.32,37
-6.16,-1.28,21.11,-1.17,1.07,0.39,1.62,-15.98,14.76,-1.42,0.54,0.05,7.78,9.73,-13.06,0.59,0.1,-1.66,37
-7.04,-1.26,20.48,-2.39,-1.9,-0.2,1.53,-15.37,14.86,0.49,0.1,1.17,8.0,10.77,-12.86,2.73,0.63,-2.44,37
-7.78,-1.81,20.22,-2.1,6.59,-3.47,1.05,-15.63,14.46,-0.24,3.13,2.0,7.62,10.62,-12.98,4.98,1.66,-1.32,37
-7.47,-1.42,20.31,4.15,2.34,1.56,0.98,-15.24,14.43,1.51,1.71,0.1,8.11,10.17,-13.29,1.76,0.0,-0.73,37
-6.97,-1.21,20.81,0.15,1.86,-0.49,1.64,-15.89,14.82,-1.37,-1.86,-1.12,7.83,10.49,-13.07,1.32,1.17,-2.88,37
-8.34,-2.6,20.11,-2.93,2.34,1.81,1.25,-15.17,14.55,0.98,1.17,0.29,8.21,10.4,-12.83,2.39,-0.63,1.56,37
-7.3,-1.71,20.32,-0.2,-4.49,2.05,1.87,-16.07,14.55,0.15,-0.44,0.05,7.5,10.38,-13.38,0.93,1.12,-0.24,37
-7.7,-1.72,20.3,0.34,0.24,0.54,2.05,-15.65,14.87,-1.17,-4.35,-0.1,7.34,10.21,-13.41,0.05,1.27,-0.73,37
-10.01,-5.63,16.52,15.04,-51.95,21.09,6.04,-14.11,10.21,46.14,-60.45,1.22,7.38,14.4,-17.47,6.01,-26.86,13.13,38
8.98,-8.61,16.85,-16.41,-293.99,129.1,11.14,-20.86,12.28,34.28,-76.42,10.06,6.88,11.97,-13.2,-87.45,-176.03,16.8,38
-5.14,-5.05,17.25,-25.34,4.88,14.01,0.91,-17.03,12.19,7.42,-9.03,-3.81,4.85,9.97,-12.37,14.84,36.91,26.66,38
10.23,-0.25,17.74,5.22,-13.38,-3.17,9.95,-13.71,11.88,7.13,4.05,-6.05,6.7,10.71,-11.89,-6.84,0.59,-0.98,38
10.51,0.01,18.12,3.95,-6.05,6.4,11.96,-11.62,12.21,-0.15,-5.22,6.1,6.02,10.53,-13.14,31.35,6.15,-17.14,38
15.03,2.72,20.25,-1.76,200.15,-121.97,4.45,-14.5,8.62,-97.9,116.02,-26.46,6.44,15.32,-18.02,150.39,124.22,-20.21,38
-42.35,-14.36,23.55,-119.19,330.13,-167.92,4.7,-23.07,13.2,-22.46,102.98,38.67,7.84,11.72,-11.66,-26.66,-27.49,-12.16,38
-16.49,0.47,17.42,6.3,46.29,-1.17,3.22,-15.79,13.23,-2.69,0.98,2.39,8.12,9.4,-12.39,-2.0,18.07,-6.54,38
-8.43,-1.73,19.74,9.18,-7.81,4.3,3.91,-15.55,13.63,0.63,3.56,0.2,10.07,11.04,-11.67,5.86,1.22,-4.25,38
-9.58,-3.42,19.75,0.54,1.66,1.51,4.09,-16.04,13.78,0.59,3.52,2.83,10.21,10.0,-11.14,-2.0,-1.71,-3.03,38
-9.46,-2.73,19.79,5.81,-9.52,5.18,3.98,-15.61,14.04,-0.44,-3.22,-2.64,9.86,10.56,-11.84,3.81,2.1,-3.03,38
-9.67,-3.2,19.52,1.42,-6.25,4.54,3.99,-15.61,13.73,0.49,-0.1,-0.24,10.21,10.55,-11.82,6.88,3.56,-2.69,38
-10.01,-2.93,19.42,-1.61,-7.42,0.78,4.96,-15.84,14.18,-1.61,-2.34,-2.78,9.6,10.07,-11.59,1.95,-0.63,-0.05,38
-9.35,-2.53,19.61,-0.05,-2.98,3.52,4.88,-15.31,14.05,-1.51,-1.71,-2.1,9.63,10.13,-11.74,-0.59,2.78,-1.27,38
-8.36,-2.77,20.34,0.63,-7.71,4.88,5.25,-15.22,14.34,2.2,3.17,1.71,9.55,10.08,-11.82,0.93,0.0,-1.22,38
-8.82,-2.29,19.8,1.76,-6.01,1.46,4.31,-15.46,13.68,-3.13,-3.76,-1.27,9.27,10.08,-11.82,-0.0,1.71,-2.39,38
-8.43,-2.69,20.2,0.93,-4.25,-0.88,4.95,-15.45,13.75,1.46,1.03,1.07,10.1,10.77,-11.51,2.0,0.34,-1.66,38
-8.39,-2.36,20.13,1.42,-2.05,0.93,4.27,-15.38,13.79,1.07,1.32,0.05,9.52,10.19,-11.72,1.42,1.22,-2.34,38
-8.93,-2.23,20.14,2.78,-3.08,0.93,4.99,-15.73,13.87,-0.44,-0.05,0.29,9.53,10.52,-11.6,2.69,1.32,-0.39,38
-8.33,-2.39,20.05,0.73,-2.69,1.03,4.84,-15.59,13.99,-0.0,-1.51,0.0,9.62,10.5,-11.71,2.83,-0.54,-0.59,38
-8.09,2.19,16.77,4.44,-202.83,70.02,11.08,-29.99,18.9,-32.96,39.75,33.74,4.26,13.68,-14.41,-3.81,0.63,-3.37,39
15.8,7.18,20.96,95.95,-140.67,59.33,0.23,-15.35,13.82,-26.47,-18.26,-4.15,5.21,10.28,-14.16,5.81,10.5,3.27,39
15.49,1.08,21.36,20.85,-56.25,32.71,2.14,-17.58,14.09,-1.81,-2.25,-2.64,13.33,3.8,-7.49,54.78,160.11,-32.28,39
8.38,1.3,17.72,3.81,-9.96,6.59,2.96,-15.53,14.58,1.12,-2.29,-2.1,3.62,10.91,-19.08,-15.28,5.62,-45.17,39
17.51,3.32,25.77,-3.47,34.77,26.71,2.93,-16.05,14.09,-2.73,-5.27,-3.03,11.33,11.38,-13.11,19.43,20.31,-3.86,39
5.58,-1.7,8.12,-69.34,310.64,-184.18,3.47,-15.64,14.58,0.73,-0.88,0.0,10.65,12.16,-12.44,2.59,-8.74,-0.73,39
-9.11,0.62,16.08,63.96,62.45,-10.45,2.32,-15.63,14.09,-0.54,3.91,1.22,9.2,9.84,-12.42,6.05,3.71,0.68,39
-7.82,-3.88,20.69,0.49,-14.79,-1.66,2.63,-15.22,14.1,1.56,-3.37,-2.1,8.92,10.18,-12.19,2.15,3.61,-1.56,39
-9.68,-2.81,19.51,-4.0,-3.81,2.0,3.35,-15.71,14.44,-1.37,-2.2,-1.76,9.64,9.52,-12.35,0.44,-0.29,-1.07,39
-10.03,-1.52,19.25,-4.54,-8.11,0.39,3.17,-15.81,14.09,-0.24,-3.81,2.05,8.9,9.76,-12.36,-2.44,0.83,-5.22,39
-9.12,-1.73,20.2,0.44,-1.71,2.29,3.21,-15.56,14.34,-1.32,-2.73,0.15,8.26,10.12,-12.37,-0.34,-0.63,0.93,39
-8.96,-2.03,19.86,-3.81,-0.73,0.63,2.62,-16.09,13.77,-2.54,0.39,1.22,9.44,9.83,-12.2,-3.08,3.22,-0.73,39
-9.62,-2.26,19.23,-0.34,-2.15,1.46,2.0,-15.7,13.37,0.49,-0.05,-0.1,9.38,10.05,-12.04,2.34,1.86,-1.86,39
-9.05,-1.9,19.57,2.15,-2.0,1.03,3.2,-15.91,14.05,-0.98,-3.12,-1.37,9.25,10.3,-12.33,2.0,3.61,-1.76,39
-8.93,-2.05,19.9,0.34,-3.12,1.03,2.86,-15.5,13.78,0.98,-3.08,-1.46,9.35,10.39,-12.11,2.73,-0.49,-1.61,39
-8.95,-1.71,19.82,0.34,-0.05,-1.17,3.17,-16.17,14.03,1.71,3.76,0.98,8.94,10.36,-11.92,1.46,1.22,0.0,39
-8.9,-1.84,19.93,0.54,0.24,-0.78,2.84,-15.41,13.85,1.17,-1.17,-1.03,9.24,10.34,-12.43,2.64,4.1,0.1,39
-9.13,-2.3,19.87,0.98,0.39,-0.39,3.69,-15.63,14.06,1.71,-1.56,0.0,9.41,10.1,-12.03,1.51,3.17,0.0,39
-9.22,-2.47,19.72,1.95,-1.76,1.12,2.98,-15.53,13.88,-0.34,1.9,-0.2,9.23,9.66,-12.05,-0.34,2.15,1.37,39
-9.26,-2.03,19.68,1.37,-1.86,1.46,3.93,-16.14,14.09,10.84,-0.59,0.29,8.9,9.57,-12.21,0.98,2.49,-0.1,39
-0.49,-6.91,11.45,2.05,-166.46,87.21,10.04,-11.15,7.6,41.6,-34.33,26.56,8.83,9.37,-11.01,-91.26,-118.95,23.1,40
13.83,-1.78,17.89,57.81,-85.5,47.41,4.98,-14.49,9.88,34.37,-12.26,-3.56,5.46,12.59,-13.4,29.98,33.59,21.92,40
15.22,-2.3,19.4,23.24,-42.58,15.87,11.26,-12.62,10.04,12.99,4.54,-5.96,7.59,10.84,-11.43,-4.93,6.1,0.49,40
10.61,-2.9,16.76,5.57,-17.68,1.32,13.64,-10.62,11.1,14.36,-16.16,-1.22,5.68,11.73,-13.58,1.46,7.52,2.44,40
12.69,-1.16,17.25,0.88,-2.44,-0.63,13.9,-10.59,10.93,-2.98,2.1,3.61,7.02,10.86,-12.31,4.1,-1.03,-1.07,40
10.91,-1.91,16.33,-13.09,2.78,0.49,13.63,-12.3,10.68,-10.6,6.3,13.38,7.93,12.84,-12.14,17.72,-9.18,-24.12,40
11.39,-0.38,17.25,-22.56,31.01,5.57,3.36,-13.96,8.88,-106.35,162.01,-13.67,9.45,9.77,-15.6,100.0,177.64,-19.92,40
17.0,-4.12,7.17,-18.41,251.22,-129.25,13.57,-26.32,17.01,-33.74,38.96,20.17,11.9,12.58,-11.35,-37.74,-57.62,-19.63,40
7.22,-5.24,16.42,30.13,-34.18,43.02,2.86,-13.95,11.9,-11.04,-10.06,-9.67,8.96,12.47,-11.17,21.48,36.18,-3.17,40
-6.88,-0.1,21.8,-16.65,-20.12,7.03,7.68,-15.24,12.69,2.64,0.88,3.81,13.21,10.36,-9.14,2.25,-14.36,5.03,40
-5.64,-1.85,20.94,1.61,-1.37,3.52,6.53,-14.27,13.49,1.03,-1.12,0.39,11.12,10.52,-10.21,5.71,5.96,-4.44,40
-6.09,-1.23,20.72,-0.34,-5.91,1.56,7.16,-15.42,13.23,0.05,-1.81,1.37,10.69,10.88,-9.98,7.62,1.03,-3.37,40
-5.41,-2.26,20.78,0.93,1.9,3.91,7.07,-14.8,13.42,0.73,-4.44,-0.15,10.63,10.14,-10.23,-0.63,1.32,0.15,40
-5.02,-1.5,21.35,-2.1,-7.57,1.03,6.18,-14.0,13.09,3.22,3.96,1.86,11.24,10.11,-10.11,0.98,1.66,-0.98,40
-6.09,-1.23,20.37,-0.15,-1.71,-0.2,6.6,-14.83,13.17,0.83,1.81,0.83,11.09,10.83,-10.05,4.98,-0.24,0.05,40
-5.51,-1.5,20.64,3.17,-0.68,0.15,7.22,-14.64,13.61,-0.2,1.03,0.2,10.43,9.9,-10.52,0.49,0.68,-0.05,40
-5.61,-1.84,20.94,0.1,0.39,-0.98,7.26,-14.98,13.22,-1.27,-0.88,-0.83,10.89,10.36,-10.24,0.44,1.42,-1.9,40
-5.16,-2.49,20.81,-0.78,-4.05,0.39,7.23,-14.55,13.7,1.46,-0.34,0.2,11.13,9.94,-10.53,2.15,1.22,0.63,40
-5.53,-1.23,21.11,2.39,0.29,1.71,6.94,-14.91,13.3,-2.05,2.54,-0.83,10.93,9.86,-10.18,-0.24,0.24,-0.93,40
-5.07,-2.0,21.0,-1.81,-0.93,-1.42,7.17,-14.9,13.27,-0.88,-0.39,-0.24,11.08,10.47,-10.16,1.66,1.86,0.29,40
-7.78,-5.75,18.14,5.57,-151.86,78.42,-0.06,-15.33,8.65,-43.41,116.65,-28.61,10.18,10.35,-7.33,37.94,4.79,-52.0,41
23.15,9.76,29.31,24.51,-74.02,35.3,5.66,-15.57,11.71,32.13,45.21,26.03,6.26,15.98,-27.44,69.14,213.72,9.47,41
10.61,-1.42,19.19,1.46,-15.43,15.53,5.02,-14.47,15.17,0.63,-6.84,-7.52,12.1,7.72,-8.34,-33.15,-22.71,-7.91,41
9.82,0.49,17.9,6.84,-6.2,3.52,5.62,-16.12,13.74,-2.15,-5.03,-2.59,9.6,8.69,-11.6,8.2,4.3,2.1,41
10.51,0.66,18.62,-0.44,-5.71,3.76,4.56,-15.59,14.13,0.44,2.78,1.03,10.08,9.8,-11.26,1.46,2.44,-5.18,41
17.4,1.04,22.11,18.51,70.8,-23.44,5.75,-15.37,14.05,-0.49,-2.05,-0.83,9.61,9.66,-12.07,0.73,-3.27,-1.9,41
-34.82,-6.41,28.95,-91.41,274.95,-142.14,5.28,-15.83,14.19,-1.81,-4.69,1.12,9.56,10.34,-11.65,5.03,2.2,-1.9,41
-14.99,-2.91,17.29,37.21,83.79,-5.42,4.85,-14.79,13.96,-0.1,-4.2,-1.56,8.9,9.41,-11.93,2.2,3.37,-2.93,41
-6.98,-2.45,20.85,-10.4,3.91,-7.18,4.63,-14.66,14.06,-4.49,-7.13,-3.61,10.0,9.92,-11.82,-0.63,2.73,-1.37,41
-7.84,-2.9,20.62,-4.54,5.42,-4.15,4.03,-14.87,13.58,-0.49,0.49,-0.49,10.06,10.36,-11.98,2.93,0.1,0.34,41
-7.36,-1.83,20.28,-3.52,-7.52,-5.37,4.48,-14.81,13.92,1.71,-1.07,0.54,9.99,9.87,-11.43,1.46,0.05,0.2,41
-6.79,-2.2,20.78,-0.73,-3.42,-3.08,5.05,-15.16,14.05,-1.12,-5.81,-2.2,10.02,9.59,-11.76,0.49,0.54,-1.46,41
-6.81,-2.32,20.49,2.0,3.76,3.03,4.55,-15.26,13.9,2.1,-1.27,1.76,9.62,10.3,-11.67,2.54,1.37,0.59,41
-6.26,-2.13,20.79,-2.88,-7.91,-2.59,5.06,-15.47,13.85,-1.17,-3.42,-1.81,9.55,10.19,-12.1,1.86,3.42,-2.25,41
-6.47,-2.05,20.54,-0.44,-3.37,-1.66,4.59,-15.34,13.79,0.05,-0.98,-0.34,9.83,9.81,-11.84,2.0,-0.63,3.42,41
-6.76,-2.12,20.62,0.93,-5.52,-0.05,5.58,-15.25,14.23,-0.93,0.68,-0.24,9.5,9.72,-11.76,-0.63,3.08,-1.56,41
-6.23,-2.08,20.46,-0.34,-2.29,1.03,5.38,-15.33,14.01,-1.95,-1.32,-0.78,9.54,9.87,-12.14,1.17,1.95,0.73,41
-5.22,-2.28,20.88,1.17,-2.69,0.78,5.4,-15.47,14.03,-0.78,-2.78,-0.78,9.32,9.91,-11.97,0.59,3.13,-1.12,41
-6.65,-2.17,20.4,0.93,-4.44,1.12,5.03,-15.02,13.96,0.15,-0.24,-0.44,9.62,9.85,-12.09,1.22,2.44,-1.17,41
-6.37,-2.32,20.98,1.27,-2.29,0.44,4.71,-15.23,13.78,-0.24,-4.83,-0.44,9.84,9.74,-11.76,1.51,1.03,0.59,41
-6.21,-2.57,19.33,2.64,-175.98,82.42,9.53,-14.67,13.35,17.63,-10.55,4.05,1.86,14.48,-14.47,6.88,8.59,2.54,42
5.01,0.11,18.74,16.31,-58.79,40.43,8.22,-12.54,13.79,9.47,-11.87,-2.0,4.26,10.06,-12.98,3.86,6.79,-0.63,42
6.44,-1.67,20.09,23.19,-28.22,10.89,8.58,-11.0,13.36,-22.66,14.31,23.44,6.46,11.09,-12.45,24.9,-6.05,-36.08,42
6.52,-0.82,18.64,5.52,-10.06,-1.71,4.7,-14.57,8.25,-46.88,84.67,-60.79,11.28,8.6,-20.13,98.14,190.28,1.07,42
9.95,0.62,20.4,-6.59,4.3,2.83,6.26,-13.73,11.15,30.42,30.66,18.02,10.63,9.75,-11.15,-43.12,-22.17,-26.12,42
18.84,2.73,19.2,7.18,208.25,-127.78,6.56,-15.37,14.5,-7.62,-8.45,-10.25,7.85,7.28,-13.64,-0.54,30.32,-2.34,42
-24.98,-12.97,27.14,-45.31,19.82,-33.3,7.12,-15.21,13.33,0.93,-4.44,-0.68,10.73,10.68,-11.53,-2.98,0.2,-2.78,42
-12.05,1.61,16.66,23.05,8.59,9.33,6.06,-14.71,13.68,3.37,0.15,2.64,9.37,9.97,-11.91,7.67,2.1,-2.69,42
-7.32,-2.43,21.26,2.73,5.66,-2.69,6.38,-15.91,13.32,-2.25,-6.35,-1.71,9.65,10.3,-12.05,4.39,2.25,-3.08,42
-7.45,-2.42,20.24,0.54,0.44,2.2,5.44,-15.53,12.66,-1.27,0.59,0.73,10.23,9.76,-11.72,1.22,-0.73,-0.98,42
-7.14,-2.05,20.25,-2.44,-5.32,-3.32,6.6,-15.33,13.54,-1.22,1.81,1.17,10.11,9.89,-11.9,2.39,-1.17,2.29,42
-7.18,-1.85,20.6,2.64,-2.0,-0.2,6.16,-15.3,13.48,2.98,-3.08,-0.54,9.38,9.88,-11.72,2.49,2.29,-0.63,42
-7.39,-3.06,20.79,4.1,-0.83,2.93,5.89,-14.96,13.12,1.76,-2.98,0.05,9.92,9.5,-11.37,1.95,-0.68,0.68,42
-7.56,-2.25,20.07,-1.27,-0.44,-0.44,5.72,-14.67,12.96,0.39,0.2,0.29,9.88,9.6,-12.06,1.86,-1.17,0.05,42
-7.1,-1.69,20.43,1.95,2.98,-0.05,6.13,-15.47,13.03,0.73,-0.15,1.51,9.41,9.87,-12.25,1.95,0.49,-0.24,42
-7.36,-1.51,20.81,1.03,-1.86,0.2,6.0,-15.73,13.56,-2.64,4.0,0.2,9.24,9.91,-12.48,3.86,3.52,0.05,42
-7.74,-2.24,20.65,-0.78,-3.12,0.05,6.57,-15.46,13.61,-0.54,-1.42,-0.44,9.32,10.1,-12.24,2.78,-8.2,-1.81,42
-7.51,-2.24,19.88,0.54,-1.27,2.93,5.92,-14.98,13.24,1.51,-1.22,1.56,9.8,9.81,-12.18,1.51,-1.46,1.17,42
-7.39,-2.4,20.08,-0.93,-2.1,0.1,6.22,-15.36,13.4,-0.63,-1.51,0.15,9.76,9.4,-11.91,1.71,1.22,0.2,42
-7.05,-2.04,20.67,1.71,-1.9,-1.27,5.92,-15.1,13.08,1.17,0.83,0.44,9.45,9.53,-12.44,-0.29,0.63,-0.49,42
-2.45,-6.39,19.26,-19.04,-86.47,39.36,8.82,-12.07,13.2,2.98,-6.84,-0.59,5.44,11.41,-12.68,7.37,25.73,19.82,43
20.28,-6.82,16.27,67.43,-259.86,64.21,7.25,-12.49,12.32,-23.05,8.2,16.41,6.13,10.19,-11.82,-0.54,0.44,-3.47,43
9.31,-1.96,20.15,29.3,-30.66,3.56,3.06,-17.41,8.32,-55.08,93.55,-34.52,5.14,11.75,-13.35,14.36,5.27,0.59,43
6.14,-1.65,18.34,19.87,-6.3,2.69,9.02,-17.59,12.95,15.04,39.01,11.96,5.59,11.59,-13.2,11.82,-1.76,-8.69,43
6.86,-0.75,18.58,3.86,-3.96,4.1,6.03,-14.69,13.79,-2.1,-2.69,-2.78,9.39,7.94,-12.42,83.54,151.03,-53.17,43
7.54,-0.56,17.93,-22.22,10.99,10.4,5.06,-16.76,12.11,-3.86,2.44,3.27,6.14,14.19,-19.43,2.2,31.05,-12.74,43
14.69,-1.55,13.42,-18.8,221.92,-116.85,6.22,-15.98,13.47,-1.71,-0.44,0.88,11.06,11.23,-13.19,16.45,5.13,-11.04,43
-18.83,-11.55,21.26,11.18,135.55,-30.91,5.76,-15.43,13.15,-1.47,-4.93,-4.05,8.7,11.65,-12.56,0.39,-0.15,-4.3,43
-9.35,-2.6,19.8,-10.3,5.47,-1.32,5.51,-15.78,13.08,3.17,-7.91,-0.24,9.12,10.74,-12.78,6.49,4.83,-0.34,43
-8.33,-3.63,20.4,-8.74,9.47,-6.4,5.28,-15.36,12.54,1.95,-1.07,1.81,9.07,10.58,-12.17,5.08,3.71,1.22,43
-8.62,-2.06,20.27,8.94,-3.56,7.13,5.46,-15.9,12.63,0.88,0.49,-0.05,9.72,10.48,-11.7,3.12,1.42,-1.86,43
-9.12,-3.18,19.41,4.25,-6.79,3.86,6.33,-15.98,13.04,1.03,2.98,0.93,9.0,9.73,-12.14,-1.12,-0.83,0.93,43
-8.05,-3.65,19.69,-1.12,-5.08,3.47,6.37,-15.34,13.65,2.15,-4.64,-1.17,8.37,9.46,-12.55,-0.93,2.29,0.2,43
-8.24,-3.43,20.28,2.2,0.63,-0.34,5.85,-15.35,12.97,2.05,-0.93,1.71,9.53,10.71,-12.33,3.12,3.56,0.29,43
-8.02,-2.74,20.34,-1.03,-5.18,0.1,5.96,-15.69,13.06,-0.98,-2.25,0.68,9.16,9.76,-12.05,1.12,3.03,-0.24,43
-7.71,-2.89,20.54,-0.49,-4.05,2.78,5.31,-15.52,12.51,0.39,-1.71,0.29,9.57,10.1,-12.13,1.71,1.76,-1.66,43
-8.0,-3.08,20.03,0.15,-5.71,3.03,5.46,-15.36,12.62,1.71,1.42,0.68,9.88,9.91,-11.85,1.56,-0.34,0.59,43
-7.89,-3.46,20.17,-1.66,-1.22,1.37,6.79,-15.48,13.67,-2.78,-3.08,-3.96,8.54,9.67,-12.6,-0.34,0.49,-0.73,43
-7.77,-2.81,20.23,-13.33,-2.29,-0.54,6.52,-15.36,13.1,-0.15,-0.59,-2.0,8.99,10.09,-12.75,3.17,3.03,-0.68,43
-7.96,-3.0,20.05,-0.39,-0.15,-0.93,5.8,-15.86,12.94,0.39,-1.17,0.78,9.22,9.73,-12.37,1.32,4.39,-1.07,43
-7.5,-3.86,20.1,0.2,-1.56,0.2,7.45,-18.6,12.49,18.95,-58.45,-5.57,8.21,9.65,-13.28,1.51,1.51,-2.05,44
-15.6,-4.69,16.24,5.96,-70.7,24.12,7.9,-16.71,13.16,78.86,-9.08,24.8,9.47,8.96,-18.75,-19.82,-134.08,55.18,44
10.54,0.5,14.67,88.13,-235.01,62.74,10.09,-13.3,11.78,40.92,-10.64,-9.57,12.67,0.48,-13.05,-94.34,14.75,2.29,44
8.81,-2.97,20.64,25.83,-20.41,11.82,7.44,-12.57,12.58,18.7,-14.79,-3.96,-0.17,16.44,-14.83,27.64,7.18,6.98,44
4.33,-1.33,18.5,14.99,-18.12,8.45,8.6,-12.25,13.47,1.51,-1.61,-3.27,1.92,10.06,-13.15,-6.74,20.26,9.52,44
7.46,-0.01,19.26,4.69,-6.2,0.0,10.06,-10.68,12.6,-44.14,12.55,34.28,4.88,12.16,-13.44,2.0,7.62,1.66,44
8.8,1.36,19.2,-12.4,34.81,11.91,0.47,-11.55,8.89,-21.14,126.17,-40.72,7.78,9.32,-9.89,46.19,1.51,-36.04,44
8.77,-1.84,5.24,18.41,298.83,-166.8,6.98,-15.96,11.77,19.19,43.95,18.51,4.62,11.15,-21.54,71.29,159.52,-14.99,44
-2.56,-8.77,21.71,11.23,-11.57,6.01,5.08,-15.22,13.86,-5.32,-4.35,-3.32,10.08,8.18,-11.47,-26.42,-14.21,-9.81,44
-8.65,-2.77,19.11,-2.59,-8.54,1.03,6.33,-17.01,12.95,-4.0,-5.27,-0.63,7.73,9.4,-12.78,10.25,4.1,-0.2,44
-9.26,-4.23,20.08,-3.52,-3.42,1.22,5.43,-15.91,12.64,2.54,-3.71,-0.39,8.17,9.66,-12.73,-2.34,-2.73,-1.9,44
-9.94,-3.75,18.97,1.12,-3.12,3.03,5.78,-16.28,12.5,4.35,-1.81,1.9,8.09,9.83,-13.0,3.12,3.81,-1.46,44
-8.94,-4.37,19.69,-0.05,-4.25,4.64,5.66,-15.73,13.06,-0.0,-1.86,0.59,8.29,10.1,-12.89,5.22,2.44,-1.66,44
-9.35,-3.03,19.5,0.54,0.2,1.17,5.44,-15.74,12.33,-1.22,-0.98,-0.15,8.81,9.7,-13.02,2.15,1.56,-2.29,44
-8.99,-3.61,19.37,-0.05,-4.98,0.39,5.8,-15.72,12.58,-0.24,-0.78,0.49,8.18,9.48,-12.78,-1.17,-1.03,1.32,44
-9.5,-3.47,19.46,0.83,-0.2,1.17,5.51,-16.21,12.76,-1.81,0.93,0.24,8.18,9.79,-12.94,0.15,3.13,-2.0,44
-8.98,-3.06,19.58,-0.44,-2.29,-3.27,5.52,-15.85,12.19,2.69,0.0,-0.1,9.1,9.78,-12.73,2.15,0.68,-0.54,44
-9.37,-3.96,19.12,-1.61,-1.27,0.15,5.45,-15.84,12.62,0.34,2.39,0.59,8.23,10.05,-12.83,2.0,2.54,-1.37,44
-9.05,-3.29,19.96,2.34,-1.42,-0.93,5.53,-16.3,12.25,0.39,2.05,1.12,8.99,9.74,-12.43,2.15,-0.98,0.54,44
-8.87,-4.07,20.0,-0.59,-3.32,1.03,6.59,-16.01,13.21,-0.59,0.63,0.29,7.94,9.62,-12.52,-0.73,0.59,-0.39,44
6.68,-6.0,16.94,16.45,-228.71,106.54,3.83,-13.1,4.93,23.97,44.04,-9.91,1.26,10.71,-10.92,31.25,9.52,42.14,45
5.36,-3.08,18.4,29.35,-43.8,10.55,10.06,-15.58,12.44,10.6,-1.9,-5.62,4.92,12.74,-12.7,-7.72,-6.4,0.98,45
7.03,-0.94,19.04,21.04,-4.44,1.32,10.6,-12.25,12.42,11.67,-15.14,-2.73,4.07,13.79,-14.14,22.61,18.7,4.3,45
8.49,0.46,19.64,7.32,-10.01,11.18,11.37,-12.57,12.41,-4.64,-4.98,0.44,5.16,12.89,-14.07,13.92,4.69,-9.42,45
8.67,-0.62,19.75,-8.89,5.52,6.98,14.0,-6.09,16.81,-47.66,15.38,25.15,16.03,10.42,0.63,51.66,78.42,-74.41,45
15.51,0.92,22.83,-4.0,167.09,-124.27,9.97,-24.27,12.78,-46.09,55.32,-19.87,-0.42,18.68,-21.07,66.99,117.43,18.99,45
-34.54,-14.69,20.43,-38.28,156.64,-89.16,5.21,-14.3,10.18,-0.88,6.64,3.17,12.76,9.24,-11.13,-10.25,-23.97,-10.01,45
-12.56,-1.92,16.79,-2.1,0.68,-2.25,8.84,-17.79,13.18,-1.27,11.28,3.27,10.06,12.42,-13.04,10.4,-0.24,-1.56,45
-8.33,-2.4,21.25,7.57,5.47,4.05,7.49,-14.82,13.04,3.95,-6.3,1.56,8.93,9.81,-12.21,6.49,-0.49,-4.2,45
-9.38,-2.44,19.63,-0.98,2.83,0.24,6.21,-15.61,11.99,-0.49,-0.78,-1.32,9.4,10.08,-11.9,2.34,2.15,-1.22,45
-9.1,-2.77,20.08,0.24,-1.12,4.93,7.37,-15.82,12.81,-1.07,0.98,1.12,10.09,9.46,-11.61,2.78,-3.27,0.0,45
-8.2,-2.29,19.64,0.29,0.49,0.68,7.97,-15.92,13.05,-2.54,0.39,-0.05,9.52,10.05,-12.4,4.1,-0.15,-1.46,45
-8.68,-2.12,20.04,0.15,-0.68,0.63,6.65,-15.67,12.29,-0.54,0.98,1.51,9.26,9.73,-12.27,2.59,-2.83,-0.39,45
-8.89,-3.18,19.51,-1.22,-0.54,-0.49,7.17,-15.26,12.45,1.71,2.2,2.15,9.15,9.67,-12.31,-0.49,-1.51,-2.54,45
-8.49,-2.52,19.87,1.61,-0.44,0.29,6.51,-15.3,12.52,0.59,-0.24,-0.05,8.82,9.49,-12.29,0.05,0.63,0.93,45
-8.51,-2.93,19.78,-1.27,-3.03,-1.81,7.83,-15.3,13.21,2.34,-0.34,0.88,8.92,9.82,-12.86,1.51,3.03,-2.29,45
-8.34,-2.34,20.15,-0.0,-2.93,-0.83,7.09,-15.12,12.98,1.32,-2.15,-0.29,9.01,9.88,-12.65,3.56,1.61,0.49,45
-8.47,-2.16,20.06,1.37,-3.61,1.17,6.66,-14.93,12.94,-0.73,-0.2,1.03,8.45,10.26,-12.59,5.22,4.05,-0.63,45
-8.47,-1.53,20.05,4.3,-0.34,6.98,6.74,-15.2,12.92,-0.39,-3.76,-0.39,9.52,9.68,-12.14,1.03,4.05,-1.22,45
-7.96,-1.8,19.91,1.76,-6.15,2.69,6.93,-15.27,12.53,1.22,-2.34,0.0,9.48,9.89,-12.01,2.44,2.05,-0.29,45
8.95,1.9,19.84,47.56,-36.91,33.4,14.15,-13.37,10.59,14.99,-33.94,3.42,14.68,4.09,-12.93,-55.18,5.22,-13.77,46
14.73,1.32,17.51,22.46,-6.35,10.79,12.8,-8.84,9.19,10.79,7.71,-10.74,8.13,8.36,-14.15,4.3,-10.21,-5.76,46
11.76,1.19,16.07,4.39,-6.2,1.56,14.25,-9.09,9.59,6.45,1.32,-5.03,8.03,7.28,-13.81,-2.59,10.5,-2.1,46
12.4,1.05,15.96,3.86,-8.06,-2.29,15.34,-9.25,9.84,2.29,-1.56,1.46,9.17,8.09,-13.96,-1.42,2.44,-2.34,46
12.06,2.2,15.49,1.37,-1.86,0.1,15.01,-8.8,9.65,-4.93,4.74,-1.86,8.64,7.42,-14.11,3.86,1.46,2.39,46
11.58,1.54,14.91,-14.65,-4.0,-3.96,21.58,-11.71,11.34,-39.36,0.2,28.86,8.72,6.55,-14.69,-7.42,0.83,3.08,46
17.1,3.84,15.97,5.32,121.58,-53.08,14.35,-7.94,10.14,-51.81,63.53,-23.44,13.13,2.16,-7.5,18.99,78.91,-34.96,46
-0.45,5.31,10.26,31.4,239.7,-152.49,13.0,-13.49,11.19,9.33,29.25,9.18,7.07,9.3,-18.34,12.84,49.56,-24.76,46
-1.43,-4.16,22.79,4.69,26.03,-17.38,9.94,-11.3,11.78,0.59,-0.39,1.86,13.28,7.22,-11.15,6.4,-7.91,-6.98,46
-5.9,0.47,20.3,-5.76,-5.03,4.39,11.59,-11.91,12.1,3.47,5.37,2.2,11.46,7.5,-12.21,-0.83,2.29,-3.56,46
-5.77,1.26,19.93,0.44,-1.12,1.37,12.65,-12.47,12.43,-4.0,4.69,0.88,11.77,7.74,-11.7,3.22,3.96,-1.37,46
-4.96,2.84,21.56,-0.05,2.44,1.71,11.76,-10.61,12.31,0.15,-2.2,-2.29,12.17,7.85,-11.29,5.27,-0.88,-2.2,46
-5.02,2.21,19.97,6.3,-4.59,3.42,11.49,-12.33,12.01,-2.39,-3.03,-4.64,11.48,7.43,-11.62,-4.83,7.23,-0.05,46
-4.71,1.41,20.72,4.54,-13.04,6.84,12.63,-11.47,11.78,11.28,1.56,5.76,11.69,8.34,-11.88,2.73,9.18,3.27,46
-3.9,2.55,20.7,6.59,4.2,7.03,12.05,-10.75,12.34,-4.79,-2.88,-2.98,12.5,7.85,-10.77,3.32,0.88,-1.81,46
-3.98,1.7,21.34,-5.76,-7.23,4.44,12.13,-11.5,11.61,-0.63,0.73,1.86,11.66,7.11,-11.49,-2.34,2.69,0.2,46
-3.87,2.1,20.79,-3.76,-0.93,0.88,11.59,-11.33,11.73,0.15,0.24,-0.2,11.66,7.9,-11.3,-0.29,2.54,-3.03,46
-4.19,2.58,20.52,-0.0,-2.39,0.88,12.74,-11.69,11.92,0.78,-1.03,0.2,11.54,7.86,-11.26,1.56,2.78,-0.93,46
-3.15,2.29,21.26,2.49,-1.76,1.86,12.01,-10.97,12.07,1.37,-1.32,0.29,11.97,8.14,-11.46,0.49,1.51,-1.46,46
-3.73,2.43,20.62,1.9,-1.22,1.56,12.46,-11.48,11.84,0.39,-0.54,0.34,11.71,7.36,-11.52,-1.27,1.37,0.54,46
-6.92,-1.96,18.78,-57.28,-59.08,53.71,13.05,-16.19,10.26,-1.86,-41.11,41.02,8.02,7.76,-14.02,-4.3,-67.04,14.21,47
3.17,-7.18,16.94,46.78,-175.78,110.11,2.41,-11.89,9.22,47.66,61.04,-6.4,9.38,8.02,-11.42,-67.77,-125.39,40.72,47
4.6,0.9,17.53,-3.52,-26.27,15.09,14.1,-13.33,11.19,7.81,-1.37,7.28,4.75,11.18,-17.12,8.59,28.66,7.81,47
8.24,-1.34,17.93,6.01,0.0,0.39,12.67,-11.6,11.96,5.96,-0.73,-2.73,6.16,7.61,-14.2,-8.15,3.66,-1.61,47
9.02,1.08,18.68,6.54,-5.13,0.83,12.82,-10.88,12.06,-2.05,-2.83,0.59,5.62,10.03,-15.41,3.37,6.01,-1.17,47
9.26,3.04,18.99,-6.3,-0.49,4.25,17.62,-6.16,8.54,-87.6,25.0,-11.52,4.66,8.31,-16.78,23.0,-6.79,-15.09,47
14.49,2.53,22.11,-20.46,82.08,-105.76,15.62,-17.31,11.76,-72.9,45.61,-14.75,13.82,6.72,-15.11,86.57,151.07,-6.15,47
-36.66,-6.35,20.82,-109.91,225.2,-149.32,10.27,-12.08,11.48,-20.41,7.28,-10.55,11.74,5.58,-12.72,-48.49,-3.52,-38.43,47
-11.13,2.97,18.05,11.18,6.49,-8.89,11.49,-12.8,12.89,-0.73,-9.13,-3.47,11.11,8.9,-12.58,14.31,15.63,-4.69,47
-7.16,2.28,20.24,6.88,-7.96,5.22,10.69,-11.55,12.29,2.98,-5.32,-2.69,11.41,7.37,-11.96,4.98,-3.12,-1.56,47
-8.23,0.86,19.59,3.37,-10.25,7.57,10.74,-12.3,11.91,5.96,-3.22,2.39,10.02,8.5,-13.46,-1.76,6.1,-2.83,47
-7.6,-0.04,20.47,-4.69,-5.13,4.25,10.19,-12.37,11.96,1.17,5.13,2.1,10.68,7.83,-11.89,3.22,1.03,2.49,47
-7.37,1.14,20.31,-2.34,-0.88,0.1,11.04,-12.8,12.31,1.03,1.03,2.25,10.2,7.98,-12.46,1.03,1.66,-1.51,47
-7.29,1.24,20.05,-0.15,1.37,0.54,10.95,-12.61,12.23,2.0,3.52,0.98,10.52,8.0,-12.3,-3.61,1.07,-3.27,47
-6.99,1.2,20.59,3.12,0.54,-0.68,11.16,-12.88,12.54,-0.63,1.03,1.51,10.58,8.9,-12.45,5.52,1.42,-1.42,47
-7.02,1.62,20.56,-0.88,-2.1,0.0,10.76,-12.83,12.6,-1.22,2.25,0.98,10.21,7.91,-12.52,-2.2,0.44,-2.93,47
-7.21,1.42,20.32,0.98,1.56,0.1,10.94,-12.74,12.52,1.12,1.37,0.83,10.27,8.28,-12.39,-0.2,1.56,-0.98,47
-6.86,1.17,20.64,1.37,-0.98,0.44,10.64,-12.59,12.48,-0.15,0.05,-0.24,10.22,9.22,-12.79,4.88,1.03,-2.05,47
-7.48,0.96,20.15,0.59,-1.51,-0.98,10.52,-12.86,12.27,-0.15,1.37,0.39,10.36,8.56,-12.48,2.44,2.64,-0.34,47
-7.08,0.59,20.44,-0.34,-0.54,-0.2,10.48,-12.54,12.47,0.78,1.81,1.76,10.19,8.7,-12.28,0.49,1.37,-0.98,47
-5.21,-4.39,13.9,-31.1,-257.86,140.63,11.02,-11.03,10.97,14.36,0.0,-2.88,11.38,8.82,-11.32,-74.37,-116.02,12.79,48
9.5,4.72,11.5,91.94,0.93,29.98,12.9,-11.46,11.03,1.56,3.71,-2.2,3.48,10.49,-14.3,8.59,26.61,2.98,48
6.01,2.47,19.63,16.26,6.84,1.71,12.48,-10.98,10.66,-2.73,3.56,2.78,5.35,8.45,-14.78,-10.21,8.06,-7.32,48
8.24,1.93,19.83,7.13,-12.4,4.44,13.83,-13.01,10.86,-20.07,0.68,9.52,5.61,10.3,-15.16,4.49,0.63,2.69,48
8.84,1.12,19.86,0.39,-9.18,3.27,14.65,-13.17,10.5,-5.96,3.52,6.3,5.58,9.43,-14.86,1.95,1.22,-2.15,48
7.21,1.85,19.22,-7.32,-3.56,3.81,9.36,-12.65,5.27,-44.38,43.36,6.1,5.99,11.85,-15.82,10.99,-2.93,-12.3,48
7.48,-0.27,19.19,-9.72,-9.47,3.42,13.23,-12.43,10.64,-19.58,96.19,-15.58,4.4,10.01,-16.28,6.15,-5.57,-4.0,48
7.78,1.03,19.77,-4.44,19.68,0.68,8.85,-12.07,11.54,-4.2,20.75,-0.68,15.02,6.17,-10.08,57.18,69.14,-52.29,48
6.35,-1.63,16.53,-1.47,172.02,-91.8,9.57,-12.93,12.4,-2.49,0.1,-3.66,6.67,9.9,-19.73,-0.68,98.97,-23.19,48
-17.76,-1.34,20.52,-27.3,33.69,-29.98,10.86,-13.97,12.55,-3.17,-4.74,-4.25,7.73,8.47,-14.07,-23.68,27.73,-21.24,48
-10.02,-0.87,20.77,-14.26,-0.05,-10.3,10.16,-13.81,12.02,-3.81,-4.83,-5.32,11.1,8.62,-12.13,6.54,-2.93,5.91,48
-7.92,0.88,19.84,-5.57,-6.69,-0.24,10.29,-13.63,12.17,-0.24,-0.39,-1.51,10.13,8.72,-12.43,4.35,0.59,0.93,48
-7.98,0.63,19.83,0.05,-1.32,2.88,10.41,-12.69,12.44,0.2,-8.01,-0.98,9.44,8.44,-12.34,-3.91,2.29,0.34,48
-7.37,0.31,20.59,0.59,-1.81,4.64,10.59,-13.23,11.89,2.78,-5.22,0.78,9.32,8.58,-12.9,-1.27,0.54,-0.78,48
-7.28,0.68,20.27,-0.83,-2.44,1.9,10.75,-13.02,12.08,-1.56,-2.44,-2.39,9.18,9.3,-13.02,3.12,3.81,-5.13,48
-7.1,0.46,20.66,2.25,-4.2,-1.56,10.71,-12.4,12.0,0.2,-0.39,-1.86,9.68,9.46,-12.68,2.98,1.71,-1.9,48
-7.16,0.6,20.63,2.0,-3.86,0.88,10.74,-13.01,11.73,-1.12,-2.59,-0.44,9.82,9.28,-12.73,0.98,0.29,1.95,48
-7.02,0.71,20.67,-1.56,-3.37,0.2,10.67,-12.88,11.95,0.2,-0.1,-1.42,9.05,8.94,-13.05,-1.66,0.0,1.86,48
-6.54,0.48,20.82,0.63,-4.69,-1.95,10.95,-13.3,11.82,-0.59,-2.34,-0.88,9.8,9.36,-12.71,-0.68,1.66,-1.81,48
-6.57,0.42,20.62,0.63,-3.61,-0.15,11.07,-12.7,11.92,1.51,-0.39,-0.44,9.48,9.47,-12.93,0.88,2.05,-1.32,48
10.84,-0.38,21.49,33.11,-33.15,11.38,14.47,-11.41,10.27,6.59,-5.18,-4.49,12.86,4.01,-9.91,-56.35,-35.11,8.64,49
8.14,0.96,19.44,14.75,-17.77,6.64,13.95,-11.49,10.15,-4.35,-3.08,-0.88,4.69,13.18,-15.93,20.07,8.2,-1.27,49
7.88,1.7,19.09,-1.22,-7.23,0.63,14.34,-12.01,9.79,-22.41,-6.1,11.57,5.3,10.51,-15.43,7.91,7.91,0.98,49
8.17,0.81,19.25,-12.35,0.78,0.1,5.89,-13.42,10.29,-10.94,55.57,-33.4,5.48,9.95,-15.14,2.2,3.61,1.95,49
12.62,-0.13,24.13,-23.83,93.85,-75.59,11.15,-14.86,8.67,-3.03,43.75,9.72,4.97,9.05,-15.61,18.51,-1.81,-5.71,49
-10.89,-2.29,16.48,-43.02,180.27,-114.06,10.39,-14.06,10.78,-0.93,5.37,-0.68,7.86,4.11,-12.66,46.19,118.99,-50.15,49
-6.54,1.55,20.22,28.71,28.32,-4.3,11.7,-13.08,11.11,-1.07,4.15,-1.12,6.93,9.46,-17.53,-14.55,23.68,-18.99,49
-6.57,0.09,20.8,12.89,-5.42,8.2,10.87,-12.7,11.24,2.1,1.03,-0.05,9.05,7.85,-14.14,1.56,9.86,-5.42,49
-7.0,-0.19,20.49,-1.03,-4.54,0.93,11.35,-13.93,11.12,1.03,0.2,0.2,9.07,8.13,-14.29,-7.03,7.37,-3.47,49
-7.47,-0.45,20.54,-0.49,-2.93,0.29,10.85,-13.09,11.11,0.73,0.83,1.03,9.28,8.62,-13.34,2.64,2.88,-1.17,49
-7.51,0.34,20.43,2.05,-0.68,2.93,11.16,-13.08,10.93,-0.44,1.32,-0.1,9.05,8.13,-13.48,1.61,1.37,-1.32,49
-7.39,0.12,20.58,0.88,-1.9,1.9,11.23,-13.31,11.1,0.63,0.78,-0.1,9.69,8.41,-13.25,2.05,2.0,-3.56,49
-7.25,-0.04,20.39,0.44,-1.9,1.17,11.34,-12.76,11.05,1.07,0.68,-0.73,9.56,8.64,-13.23,1.32,1.03,-1.17,49
-7.09,0.18,20.48,0.05,-2.05,1.07,11.38,-13.78,11.07,-1.27,-0.88,-0.1,9.18,8.25,-13.37,1.32,2.15,-0.24,49
-7.1,0.26,20.54,1.46,-3.86,-0.1,11.22,-13.14,11.13,-0.98,-0.78,-1.37,9.3,8.63,-13.27,0.1,2.98,-1.46,49
-7.34,0.3,20.27,1.9,-0.59,1.71,11.17,-13.14,11.02,1.81,1.76,0.54,9.17,8.68,-13.37,1.32,1.81,0.34,49
-6.79,0.39,20.8,1.17,-4.15,1.56,11.88,-13.11,11.38,0.73,0.24,0.05,9.3,8.57,-13.35,0.59,2.59,-1.03,49
-7.25,-0.02,20.5,0.68,-1.95,0.63,11.43,-13.09,11.33,-0.2,-1.86,0.1,9.17,8.58,-13.59,1.22,0.88,-0.63,49
-7.16,0.19,20.32,0.2,-0.78,-0.29,11.07,-13.57,11.05,-1.12,-0.98,-0.83,9.41,8.79,-13.23,2.73,2.39,0.05,49
-6.87,0.01,20.33,0.15,-1.76,-0.54,11.53,-13.12,11.01,-0.2,-1.03,-0.63,9.61,8.55,-12.97,1.76,2.0,-0.29,49
13.96,-6.49,18.63,-32.37,-251.12,98.19,7.24,-10.11,9.94,23.58,39.01,-1.81,4.34,9.92,-14.97,-2.64,27.39,6.01,50
6.88,0.01,18.36,23.68,-40.97,18.51,12.62,-11.48,12.0,16.31,2.25,4.0,5.22,8.78,-14.2,-2.88,0.05,-4.49,50
5.91,0.38,18.77,13.82,4.15,2.73,13.68,-11.44,12.81,-3.17,-7.08,-3.08,5.28,10.54,-14.7,5.57,0.49,1.46,50
6.51,0.84,19.36,1.51,2.34,-1.22,13.41,-12.47,12.0,-6.25,-4.83,-0.2,4.92,10.04,-14.92,4.78,-1.66,-3.91,50
7.34,-0.02,19.55,-0.34,4.0,0.2,11.63,-9.56,12.06,-27.1,-5.91,10.21,4.68,9.34,-14.14,52.44,-27.73,-19.24,50
11.12,0.91,20.92,-1.66,16.21,2.25,3.62,-16.24,15.29,7.37,67.04,-25.29,6.57,9.72,-22.61,69.63,147.61,-37.55,50
8.62,0.32,4.41,46.53,269.29,-151.56,11.3,-20.85,12.51,-19.09,42.24,2.78,6.18,6.15,-13.86,-12.79,9.42,-5.08,50
-0.94,-8.55,21.29,-15.92,-21.39,5.57,9.41,-14.37,12.51,6.49,-11.82,-8.5,8.55,8.68,-14.95,-5.66,6.3,-9.62,50
-8.15,0.93,20.19,-8.5,1.12,3.61,11.07,-13.3,12.11,0.54,-8.35,-3.32,8.99,8.32,-14.23,5.08,1.86,2.44,50
-7.39,1.15,20.09,2.2,-6.49,-6.45,10.19,-13.29,11.85,-1.47,-2.93,-1.56,8.46,7.77,-13.78,-2.15,1.07,0.2,50
-8.34,0.81,19.81,2.88,-6.15,7.52,10.23,-13.4,11.64,1.46,0.68,-1.61,8.9,8.41,-14.13,1.66,1.27,-1.76,50
-8.64,0.43,19.91,1.66,-5.52,2.93,10.55,-13.38,12.12,0.88,-1.42,-0.93,8.45,8.27,-14.22,2.98,0.05,-0.63,50
-8.23,0.79,20.03,1.03,-5.71,3.37,10.57,-13.26,12.12,0.05,-2.69,-0.54,8.63,8.35,-14.36,0.29,2.05,-2.05,50
-7.94,1.68,20.09,1.37,-0.93,1.9,9.77,-13.19,11.73,-1.17,0.83,-0.88,8.53,8.26,-13.97,2.73,1.81,0.73,50
-8.48,1.07,19.61,2.2,-2.39,0.78,10.54,-13.8,11.81,-2.15,1.61,-0.29,8.84,8.41,-13.94,0.54,1.46,-0.73,50
-7.96,0.88,20.32,-0.98,-1.22,0.1,10.16,-13.28,11.95,0.49,2.1,0.44,8.73,7.81,-13.73,0.05,0.54,0.93,50
-8.42,1.16,19.74,2.1,-0.68,-0.98,10.75,-13.39,11.91,-1.81,1.32,-0.49,8.91,7.75,-13.65,0.88,1.22,0.93,50
-7.74,1.16,20.1,1.27,-1.9,-0.73,10.29,-13.5,11.88,0.15,-1.03,-0.34,8.62,8.5,-13.98,1.95,2.98,-0.63,50
-8.12,1.05,20.15,0.34,-2.2,1.27,10.8,-13.23,12.03,0.98,0.63,0.15,8.92,8.29,-14.16,1.51,0.83,-1.17,50
-7.58,1.4,20.3,2.34,-0.83,0.73,10.17,-13.1,12.08,-1.03,-0.44,-1.81,8.55,8.09,-13.97,0.98,2.0,0.83,50
-11.9,-7.33,13.74,-66.6,-244.48,108.01,17.06,-9.22,10.15,53.95,-45.41,35.06,7.69,13.89,-11.19,-77.54,-127.88,61.91,51
12.99,1.86,12.59,173.0,65.04,11.43,10.09,-17.29,9.67,-19.78,12.84,14.5,5.38,14.18,-11.28,34.42,1.51,1.42,51
7.4,-1.63,19.77,27.05,4.69,2.34,10.29,-13.37,9.03,7.52,17.19,-2.0,6.04,10.61,-12.56,-12.3,-5.22,1.03,51
7.97,-0.47,19.82,18.21,-12.26,6.05,12.97,-12.6,9.61,1.71,2.2,-1.22,4.57,11.75,-14.04,6.54,1.61,3.56,51
8.7,-0.47,19.52,9.42,-6.74,4.83,12.4,-12.64,9.59,3.12,3.66,-0.88,5.02,10.96,-13.96,-4.0,1.95,-0.88,51
8.29,-0.37,19.51,7.67,-5.71,1.32,12.6,-13.03,9.59,0.68,2.0,0.98,5.21,11.98,-14.11,1.81,0.73,-0.98,51
7.4,0.0,18.85,0.1,-4.59,2.64,12.79,-12.52,9.53,-2.54,-3.96,-2.49,4.65,11.3,-14.11,6.2,6.1,0.49,51
11.09,1.82,19.76,-23.44,5.22,6.79,17.97,-5.1,13.49,-48.29,15.97,3.13,6.61,7.1,-4.93,3.17,16.02,-38.72,51
14.6,3.88,11.02,43.65,212.5,-227.83,13.31,-18.04,9.79,-52.2,20.26,-22.27,1.66,18.35,-25.97,143.75,163.96,-27.73,51
-13.56,-9.66,20.73,-29.15,33.25,-41.21,9.22,-17.24,8.93,-19.09,-6.84,-7.03,7.4,8.58,-11.66,-16.94,-0.68,-9.42,51
-9.06,-2.64,19.68,-19.04,17.92,-3.08,10.94,-13.45,10.6,-2.64,-6.54,-3.96,8.07,9.86,-12.21,2.78,6.59,-2.54,51
-7.96,-1.06,21.03,-3.76,0.93,2.1,12.22,-13.27,10.21,-0.05,-8.89,3.42,10.23,9.83,-11.16,6.01,0.73,-4.88,51
-7.93,-2.67,20.26,-4.83,-3.22,2.0,11.65,-14.19,9.95,2.15,-2.54,1.51,9.36,10.47,-11.72,3.71,-1.17,-3.32,51
-8.12,-1.89,20.34,-1.51,-1.66,3.08,11.52,-13.61,10.06,1.66,-3.27,2.0,9.61,9.99,-11.83,2.59,-0.2,-3.71,51
-7.81,-1.91,20.15,0.78,-3.52,4.64,11.4,-14.23,9.98,1.95,-2.34,1.76,8.78,10.23,-12.07,7.03,-2.39,-3.03,51
-7.76,-2.56,19.96,-0.88,-6.01,2.78,11.64,-13.69,9.92,3.27,-5.47,-2.93,8.62,9.88,-11.98,3.81,3.66,0.39,51
-7.87,-1.76,20.2,2.44,-1.46,0.54,11.53,-13.92,9.8,2.34,-3.42,-0.88,8.68,9.89,-12.3,3.17,-1.61,-1.12,51
-7.58,-1.29,20.43,1.71,-2.69,3.27,12.37,-13.92,9.86,1.37,-2.39,0.05,9.0,9.86,-12.22,1.17,0.78,-2.2,51
-7.28,-1.56,20.37,1.56,-1.51,4.05,12.14,-13.17,9.64,0.54,-5.52,-2.34,8.75,10.67,-12.57,0.59,0.15,-2.49,51
-7.09,-1.43,20.72,1.9,-2.29,1.07,12.89,-13.5,9.77,-0.34,-1.71,-0.49,8.66,10.43,-12.78,1.32,2.93,-0.88,51
-6.56,-4.15,13.19,-31.3,-345.17,144.63,9.17,-13.61,8.68,9.81,-4.35,4.93,7.18,11.02,-14.49,-109.52,-145.8,60.4,52
3.42,1.73,15.41,104.15,71.04,-22.12,12.53,-13.03,9.17,9.18,12.21,-1.56,3.52,13.68,-15.35,12.11,26.46,11.87,52
6.44,-1.57,19.1,5.66,5.76,1.46,12.46,-12.64,9.55,4.44,2.29,-4.0,5.85,10.55,-13.28,-3.91,6.35,-1.66,52
8.17,-1.0,19.37,6.2,-8.01,-1.9,13.36,-13.0,9.54,1.86,0.15,-1.12,5.06,12.55,-14.04,4.2,3.71,1.32,52
8.64,-1.16,19.07,1.95,-5.18,1.27,13.08,-12.89,9.7,-0.0,2.1,-0.68,5.14,11.29,-13.99,6.64,5.13,-3.52,52
8.55,-0.29,18.95,2.59,-2.39,1.03,12.87,-12.23,9.61,0.2,4.2,2.25,5.57,11.24,-13.5,1.76,2.44,-1.61,52
8.99,-0.83,19.21,0.54,-1.37,1.37,15.2,-7.1,12.95,-57.91,26.42,23.0,4.71,11.14,-14.56,7.57,-1.37,-6.49,52
9.81,1.51,20.16,-11.47,35.6,7.32,8.76,-16.04,8.36,-53.76,58.01,-14.6,13.68,3.62,-6.09,47.07,99.07,-27.78,52
6.59,-2.86,3.21,8.4,297.95,-173.54,7.94,-10.84,9.12,3.08,4.0,-2.29,2.65,13.04,-21.65,8.64,61.28,-48.73,52
-0.64,-6.02,19.34,-15.04,-3.03,-4.05,9.51,-15.41,10.1,-2.49,-3.66,-0.88,8.72,8.4,-13.13,4.2,5.37,-3.12,52
-8.42,-0.94,20.28,-4.1,-10.4,-0.1,11.44,-14.99,10.04,1.42,-5.27,-0.78,8.27,9.81,-13.45,-4.0,4.35,-4.93,52
-7.44,-1.19,20.64,-0.29,-3.27,-0.1,11.63,-15.54,10.42,-0.78,-7.91,-0.63,8.83,10.28,-12.92,5.47,5.57,-3.12,52
-6.82,-0.59,21.14,3.03,-10.89,0.49,9.94,-14.84,10.21,-1.07,1.42,-0.78,8.72,10.36,-13.46,-0.2,0.93,-4.83,52
-7.49,-1.36,20.14,0.29,-5.81,2.73,11.37,-14.4,9.99,-1.17,-4.93,-2.2,8.08,9.21,-12.77,-0.54,1.27,-1.03,52
-7.44,-1.73,20.43,1.03,-6.2,4.93,11.71,-14.11,9.61,-0.83,-2.2,-4.93,8.77,10.03,-12.77,0.73,3.13,-2.1,52
-6.55,-2.01,20.54,-0.59,-5.52,3.96,11.54,-13.44,9.64,0.49,-2.15,-2.29,8.67,10.16,-12.84,-1.47,8.74,0.24,52
-6.09,-1.52,21.23,1.07,-6.3,2.88,11.1,-15.1,9.5,-7.52,-3.12,-4.44,9.08,9.87,-12.54,1.07,3.17,1.56,52
-6.62,-1.24,20.27,4.0,-5.86,1.46,11.78,-12.91,9.47,5.18,-7.13,-4.59,8.74,9.44,-12.15,-2.98,4.05,-0.29,52
-6.2,-1.92,20.59,2.0,-4.88,4.49,13.16,-13.66,9.11,3.76,-1.22,-1.42,8.65,10.93,-12.59,-5.18,11.33,0.29,52
-4.51,-1.26,21.22,-0.15,-14.06,1.22,12.94,-13.82,9.47,1.61,0.1,-1.32,9.53,10.16,-12.22,-4.0,15.58,-3.22,52
7.83,-5.48,20.25,-51.22,-251.32,76.27,16.03,-22.2,6.16,12.55,-11.28,17.58,9.61,12.62,-13.35,-31.64,-84.42,30.57,53
11.56,1.31,16.75,51.71,-88.38,43.07,14.49,-16.09,9.76,-1.56,-26.46,-6.01,18.5,6.5,-12.85,-24.71,9.18,1.03,53
13.17,-2.34,19.9,27.73,-2.49,11.43,11.66,-12.66,9.38,10.3,-1.81,-2.34,5.82,11.53,-14.62,-6.15,5.27,-13.72,53
9.23,-0.73,18.15,10.45,-10.79,0.93,13.73,-12.33,9.77,6.25,-6.59,-5.57,6.52,10.11,-13.2,-0.93,6.59,6.25,53
10.51,-0.77,18.41,3.03,-8.2,-0.05,13.51,-12.31,9.44,1.46,-3.52,-1.22,7.29,10.29,-13.01,-1.47,4.0,1.81,53
10.11,-0.84,18.16,-0.0,-2.98,0.29,12.72,-12.35,9.47,-0.93,-2.29,0.88,6.62,10.6,-13.61,2.39,1.46,-1.27,53
9.73,-1.19,18.47,-0.39,-3.61,1.76,13.72,-11.21,10.05,-21.29,4.69,20.61,6.86,10.78,-13.99,9.28,-1.76,-0.59,53
11.07,0.32,18.7,-14.36,29.0,2.15,8.65,-14.72,10.21,-35.3,140.04,-17.48,16.47,7.06,-2.78,32.52,4.15,-14.45,53
9.05,-3.09,10.97,13.13,278.71,-168.21,12.02,-19.42,11.16,4.78,24.32,19.53,2.38,16.07,-22.88,54.05,123.58,-44.34,53
-7.11,-4.15,18.55,-1.32,15.77,-7.76,8.08,-16.06,12.16,7.08,-4.98,-3.47,8.34,7.5,-11.43,-21.53,-2.93,-13.57,53
-7.34,0.1,20.43,-0.63,-5.81,3.03,9.29,-14.84,11.79,-0.2,-5.81,-1.71,10.23,9.83,-11.96,9.77,5.57,0.24,53
-6.85,0.74,20.54,-1.12,-6.64,4.39,8.91,-14.44,11.7,0.29,0.15,-1.76,9.81,9.05,-11.96,2.83,5.03,-2.73,53
-6.32,0.97,20.3,7.91,-3.86,5.18,9.8,-15.56,11.75,0.63,-2.05,0.59,10.11,9.73,-11.68,-1.51,4.3,0.1,53
-6.17,-0.49,20.91,1.71,-1.07,4.79,9.7,-14.11,11.55,-0.98,-9.62,-5.76,9.61,9.47,-11.73,-0.0,1.17,-1.17,53
-5.79,0.61,21.0,-1.17,-5.62,0.68,9.26,-14.2,10.9,1.61,-5.42,0.2,9.65,9.28,-12.59,-1.86,2.88,-1.56,53
-6.37,0.07,20.32,0.39,-3.91,4.39,9.33,-14.18,10.75,2.2,1.56,0.1,9.17,9.54,-12.27,0.83,3.32,-1.37,53
-6.01,-0.22,20.55,2.98,-1.17,2.25,9.77,-13.98,11.64,0.29,7.37,-0.59,10.28,9.75,-11.93,2.59,3.52,-2.0,53
-6.07,0.67,20.62,5.32,-0.1,-0.15,10.58,-14.6,11.55,-1.51,-1.56,-1.17,10.55,9.44,-11.24,2.64,0.29,0.24,53
-5.13,0.36,21.23,3.86,-2.73,2.73,10.61,-14.47,11.69,-0.73,-1.9,-0.34,10.1,9.66,-11.73,1.22,-0.05,0.63,53
-5.46,0.32,21.0,0.2,-1.46,1.46,10.84,-14.32,11.65,-0.88,-2.1,0.34,10.33,9.38,-11.51,2.73,0.15,0.78,53
9.81,-1.34,20.71,36.47,-21.09,15.43,8.88,-12.96,10.01,12.5,6.98,-6.64,10.16,12.43,-13.97,-85.35,-149.85,82.28,54
7.03,-1.25,18.18,10.79,-12.01,2.15,12.81,-12.48,10.76,2.88,-4.64,-1.61,5.31,9.78,-12.88,1.56,26.03,19.38,54
9.37,-1.01,18.63,2.64,-8.15,-2.0,12.8,-12.59,10.54,-0.1,-2.15,-2.1,6.73,8.19,-12.73,-13.23,11.43,1.86,54
9.45,-0.29,18.65,-0.88,-4.49,1.66,14.36,-9.1,11.04,-39.99,15.28,52.93,4.57,10.05,-14.35,-2.25,7.32,2.93,54
8.78,2.91,19.31,-30.08,77.98,-73.39,7.17,-9.52,8.66,-1.37,101.61,-14.84,5.93,9.97,-13.93,2.15,5.08,1.56,54
-14.15,-11.32,21.89,-74.46,271.68,-110.6,4.15,-11.62,9.23,37.74,19.14,10.06,13.06,10.34,-0.67,13.92,-0.73,-54.74,54
-5.99,-1.69,18.81,5.71,45.41,-15.53,9.2,-16.82,12.96,-0.05,-1.71,-0.2,4.87,11.69,-28.05,97.66,201.12,-47.36,54
-5.78,-2.91,21.74,1.76,-3.47,2.54,9.21,-16.33,12.19,-0.63,-4.15,1.12,12.84,8.55,-8.65,-8.01,-31.4,-4.15,54
-5.83,-3.42,21.08,-5.37,-0.88,0.1,7.49,-15.49,12.16,-1.17,-5.22,-1.46,7.2,9.53,-12.37,15.04,14.55,-4.69,54
-6.91,-2.27,20.65,-2.69,-1.37,1.86,6.77,-15.17,11.75,-0.15,-3.71,-2.05,9.66,9.18,-11.72,-4.88,0.73,-6.74,54
-7.31,-1.77,19.91,2.59,-2.88,2.25,6.93,-15.91,11.22,-0.0,-0.15,-1.95,9.08,10.11,-12.29,5.27,0.59,0.05,54
-6.8,-2.49,20.18,0.93,-3.22,2.49,8.27,-15.55,12.01,2.15,-4.3,-3.61,9.15,9.87,-11.71,-0.34,2.83,0.05,54
-6.68,-1.7,20.81,0.39,-5.42,1.9,8.36,-13.62,11.81,6.25,-4.39,-4.0,9.26,10.07,-11.67,0.59,3.08,2.1,54
-6.62,-1.28,20.14,8.01,-9.57,6.4,8.33,-14.47,11.69,4.78,-8.35,-3.17,9.46,10.08,-12.21,-1.47,7.13,-0.68,54
-6.55,-2.36,20.39,5.42,-5.71,6.05,8.82,-15.1,11.66,2.05,-6.49,-1.95,9.73,10.9,-11.87,6.01,8.74,0.1,54
-4.95,-1.37,21.36,2.54,-8.01,5.52,8.74,-14.85,11.27,0.98,-2.34,1.03,9.85,10.27,-11.37,-0.49,7.81,-1.71,54
-5.34,-1.68,20.84,0.24,0.68,2.15,8.04,-15.18,11.01,-0.1,0.0,0.93,10.67,10.69,-10.97,0.98,6.84,-1.46,54
-5.46,-1.48,20.68,-0.98,-0.15,-0.59,8.42,-15.05,11.44,-1.17,1.37,-1.27,10.45,10.91,-10.93,4.0,1.76,-1.17,54
-5.39,-1.34,20.93,1.86,-2.0,-0.1,9.3,-14.84,11.74,-0.2,-0.2,0.83,10.39,9.81,-10.85,0.34,-1.86,0.49,54
-5.25,-1.07,20.78,2.29,-0.59,0.93,9.3,-14.72,11.91,0.39,-2.15,-2.2,9.77,10.22,-11.39,-0.05,1.95,-0.68,54
10.5,-8.22,17.65,-33.98,-286.67,115.67,10.95,-13.65,15.3,72.46,-45.41,3.17,6.61,11.8,-15.49,-68.65,-114.79,49.37,55
1.76,6.18,13.42,66.99,56.2,-26.32,11.77,-14.85,11.56,10.35,-8.5,8.01,2.46,7.58,-12.37,-12.6,26.56,36.08,55
7.05,-0.88,18.55,5.71,4.88,2.69,11.61,-13.01,11.23,6.05,-9.72,0.0,5.03,10.89,-13.42,-16.21,-3.66,-10.55,55
8.56,-0.01,17.99,-0.63,-3.17,3.42,12.04,-13.55,10.25,-1.66,0.63,5.08,5.84,10.05,-13.7,2.98,5.27,1.22,55
10.09,-1.31,18.57,-4.35,2.78,1.51,15.31,-10.26,9.52,-37.01,38.09,27.0,5.95,10.61,-14.25,3.03,-0.54,-6.59,55
13.19,2.21,17.73,1.32,141.5,-73.19,6.82,-19.33,10.6,3.86,85.94,10.45,12.46,4.73,-10.76,57.57,140.67,-54.2,55
0.12,-8.95,20.36,-51.86,180.91,-68.8,4.73,-15.15,10.7,21.24,25.93,13.33,4.98,10.14,-19.25,6.35,59.28,-33.84,55
-8.07,1.53,18.56,24.46,19.73,-0.24,7.42,-16.34,12.34,-3.61,-5.13,-2.69,9.38,8.68,-11.47,0.93,1.76,-4.0,55
-8.38,-2.96,20.92,-5.47,-6.93,1.27,7.5,-16.16,12.53,0.54,-6.98,-1.56,9.0,9.59,-12.45,-3.42,1.32,-0.83,55
-6.04,-1.7,20.9,1.22,-3.81,0.63,6.29,-15.74,12.01,2.54,-3.32,1.86,9.2,10.44,-12.38,-1.07,2.0,-3.27,55
-6.51,-1.56,20.79,0.88,-2.83,3.61,6.57,-16.17,11.5,-2.2,-1.46,-0.24,9.1,10.49,-12.8,6.01,3.37,-2.1,55
-6.51,-2.4,20.59,-2.88,-6.64,0.83,6.32,-15.55,11.62,2.64,-2.83,-0.34,9.1,10.01,-12.11,1.12,3.42,-2.34,55
-6.34,-2.77,20.41,-1.37,-9.81,1.07,6.74,-15.81,11.84,0.49,3.86,0.63,8.78,10.38,-12.48,0.49,3.17,-0.98,55
-6.17,-2.28,20.71,1.56,-2.78,-0.34,7.1,-16.09,12.24,-1.03,0.93,-1.12,9.27,10.03,-12.05,-0.05,-1.46,0.93,55
-6.03,-2.31,21.01,0.2,-1.76,0.24,8.3,-16.33,12.48,-3.13,-6.49,-2.83,8.92,9.35,-12.3,-0.34,0.49,-0.15,55
-5.35,-2.01,21.17,1.17,-4.83,1.12,6.78,-15.74,11.86,-1.22,-3.96,-0.78,8.59,9.72,-12.67,-2.34,2.59,-0.54,55
-5.86,-2.22,20.76,-0.34,-4.1,1.46,6.87,-15.88,11.79,-0.24,-1.03,-0.34,8.79,10.08,-12.59,1.76,3.03,-0.93,55
-5.48,-2.38,20.99,-0.0,-4.15,1.17,6.56,-15.75,11.59,-1.12,-2.44,-0.93,9.17,10.43,-12.25,1.66,2.78,-0.93,55
-6.13,-1.89,20.43,-0.59,-2.2,-1.71,6.78,-15.99,11.47,0.68,1.61,0.39,10.1,10.17,-11.91,2.64,0.78,-0.05,55
-5.52,-2.55,20.91,-0.78,-1.51,-0.54,6.65,-15.53,11.9,-4.79,-5.03,-5.66,9.64,10.2,-11.9,2.15,0.54,-0.15,55
-0.94,-4.62,14.87,-46.92,-255.62,121.73,9.93,-12.84,12.04,-0.83,0.63,0.24,7.89,14.64,-19.51,-39.11,-120.9,48.68,56
24.41,7.77,16.22,83.25,-43.41,10.74,13.48,-9.66,12.75,-29.15,15.04,25.1,4.72,8.99,-14.71,-4.49,20.21,24.07,56
8.59,-0.37,19.03,8.94,-3.56,0.34,3.9,-17.34,11.94,-84.33,68.36,-43.95,4.47,11.76,-14.79,-15.48,-4.54,-3.17,56
8.83,-0.93,18.93,17.48,-15.53,10.4,2.38,-13.49,9.95,7.37,29.74,12.55,4.26,13.15,-15.51,13.33,13.72,4.69,56
8.38,-1.19,18.06,6.2,-6.2,3.42,6.82,-16.53,14.0,-3.22,-4.3,-0.29,4.15,11.26,-14.68,7.08,8.54,-2.05,56
9.12,-0.08,18.12,0.83,-2.05,15.04,5.62,-16.5,12.61,-8.59,-2.0,-7.03,5.56,10.27,-14.11,2.2,2.05,-1.86,56
12.55,0.36,21.98,-40.43,18.36,-6.64,5.19,-16.3,12.38,-1.66,4.93,3.56,14.21,6.71,-5.23,23.29,47.9,-32.52,56
-5.55,-2.36,18.85,-33.69,247.85,-139.01,5.58,-15.5,12.79,-0.44,-2.73,-0.59,-0.12,19.15,-23.68,99.71,95.61,-17.48,56
-5.34,-1.24,19.51,11.18,6.64,10.55,5.25,-15.89,12.49,1.86,4.59,3.27,11.02,11.0,-12.06,0.59,-4.3,-13.67,56
-7.52,-0.33,20.63,-8.94,-12.06,2.29,5.8,-15.52,12.55,-0.24,-4.74,-4.98,9.42,10.82,-13.36,19.19,-1.22,-2.25,56
-7.37,0.39,19.97,-9.96,-14.45,-8.54,6.35,-16.03,12.77,1.32,5.42,3.08,8.94,8.95,-12.82,1.22,5.86,-4.39,56
-8.76,-0.97,19.69,-1.81,6.3,-2.0,5.9,-15.8,12.66,-0.78,-3.22,1.51,9.52,9.9,-12.65,5.18,1.27,-1.03,56
-7.18,-0.86,20.63,-2.64,-0.59,0.05,7.48,-15.25,13.37,-2.39,0.63,-1.32,8.77,9.56,-13.21,3.32,3.13,-3.03,56
-6.74,-1.44,20.54,-1.76,-2.59,0.83,6.28,-15.87,13.18,-3.56,-2.05,-1.66,8.59,9.44,-12.88,4.0,-0.05,-0.49,56
-7.72,-0.8,19.95,-0.2,-4.1,-1.56,6.78,-15.62,12.66,1.22,-0.44,1.95,9.22,9.16,-12.83,0.05,2.98,0.0,56
-6.98,-1.09,20.87,4.15,0.34,2.78,6.88,-15.59,13.02,0.78,-5.32,-0.83,9.02,9.79,-13.18,2.59,2.05,0.59,56
-7.16,-1.33,20.51,-3.66,-0.68,1.22,5.97,-15.81,12.4,-3.96,-1.03,-0.78,8.62,9.56,-12.91,2.78,3.03,-3.91,56
-6.88,-0.52,20.87,6.1,-2.05,0.63,6.55,-16.36,12.64,2.25,4.79,1.17,8.92,9.43,-13.2,-0.59,2.39,-0.2,56
-7.55,-0.88,20.81,3.17,-2.49,1.76,6.64,-15.94,12.75,-2.54,-0.98,-1.56,9.1,9.2,-13.05,1.07,0.54,-0.2,56
-7.25,-1.89,20.47,-1.12,-0.88,1.56,6.98,-15.72,12.93,1.37,-0.98,1.66,8.29,9.8,-13.24,-0.1,1.9,-2.1,56
4.45,-9.51,15.99,-36.96,-289.5,140.67,7.36,-19.98,9.11,50.44,-58.89,31.54,16.05,9.85,5.14,-59.62,-98.0,13.38,57
4.32,8.67,12.71,44.14,52.05,-28.47,0.48,-16.37,14.61,-11.13,27.25,-3.42,1.47,13.13,-15.5,21.48,11.62,15.77,57
7.65,-0.16,19.38,13.23,-5.47,-3.08,9.05,-13.58,11.94,14.55,-4.35,-7.28,5.43,10.92,-13.41,-0.0,14.6,1.56,57
10.56,-1.6,18.86,12.3,-15.67,6.15,10.38,-13.02,12.46,11.28,-5.57,-1.71,5.31,11.04,-13.78,3.03,6.98,3.81,57
9.56,-0.71,18.51,6.79,-8.2,1.71,10.46,-13.4,12.35,-0.49,-4.69,-4.0,6.24,11.56,-13.03,-3.76,4.25,-2.59,57
8.98,-2.3,17.75,0.88,-5.27,4.35,11.04,-13.63,12.53,4.93,-13.28,0.78,6.35,11.41,-13.58,-4.49,-9.42,-2.78,57
8.35,-1.93,17.2,-10.69,4.54,-5.71,8.74,-13.87,11.64,-8.2,-4.59,-2.0,2.92,13.18,-16.43,29.49,5.37,-9.42,57
12.49,1.9,20.46,-7.72,22.56,1.42,8.88,-13.74,11.01,-42.29,33.3,20.8,9.07,10.48,-5.95,34.13,-12.16,-35.74,57
14.9,3.97,23.53,15.92,58.64,-47.51,4.13,-11.67,6.91,-49.32,162.21,-22.9,2.94,14.82,-24.17,72.56,148.24,-33.84,57
-13.09,-7.7,19.78,-37.06,216.16,-113.67,5.18,-24.42,12.66,-28.03,21.53,2.69,9.89,9.86,-11.63,-4.35,-27.44,-4.54,57
-4.84,-2.7,20.55,13.77,19.97,-1.12,4.23,-16.0,11.94,-5.66,-4.3,-1.81,7.6,9.23,-13.63,2.34,7.32,-4.0,57
-7.93,-0.55,20.79,-1.27,-11.23,1.95,4.56,-17.14,12.21,-2.34,4.39,2.15,9.12,9.46,-12.49,5.86,0.39,0.63,57
