ACC-X-Ring1,ACC-Y-Ring1,ACC-Z-Ring1,GYRO-X-Ring1,GYRO-Y-Ring1,GYRO-Z-Ring1,ACC-X-Ring2,ACC-Y-Ring2,ACC-Z-Ring2,GYRO-X-Ring2,GYRO-Y-Ring2,GYRO-Z-Ring2,ACC-X-Ring3,ACC-Y-Ring3,ACC-Z-Ring3,GYRO-X-Ring3,GYRO-Y-Ring3,GYRO-Z-Ring3,TEST
-8.31,6.03,16.97,80.03,95.8,27.1,3.63,-5.67,20.1,1.07,-2.39,-0.98,-2.0,18.45,5.42,1.22,4.25,22.9,1
-10.52,1.39,12.25,45.31,-246.58,-16.85,3.28,-5.76,19.68,-0.29,-0.34,0.34,-2.95,24.35,3.58,5.22,7.52,-4.54,1
15.41,0.68,22.57,-47.02,249.37,3.91,3.39,-5.7,20.02,-1.27,-0.44,-0.1,-2.95,12.75,4.86,-10.79,2.0,-1.86,1
-13.88,-11.21,11.75,16.45,-78.17,18.55,3.79,-5.57,20.23,0.68,-0.49,-0.73,-2.41,17.5,3.4,9.77,-3.32,9.23,1
31.51,6.27,26.52,15.04,-250.44,3.91,3.41,-5.73,19.82,0.98,-1.37,-0.44,-2.7,18.07,5.19,-24.85,0.05,-24.71,1
-30.6,-12.51,14.19,-102.05,255.81,32.62,2.92,-5.53,19.77,-0.78,-0.78,-0.49,-3.22,16.1,2.67,0.54,1.03,4.35,1
21.01,1.58,24.06,54.3,-420.26,-26.51,3.55,-5.49,20.06,-0.98,0.0,0.44,-2.97,17.26,4.67,-30.91,2.73,-40.33,1
-22.15,-9.19,13.02,-38.82,292.63,49.46,3.44,-5.42,19.86,0.54,0.73,0.1,-3.66,16.65,2.03,10.2,2.88,12.45,1
2.29,1.9,20.82,35.45,-384.86,-24.17,3.34,-5.31,20.05,0.68,-1.22,0.88,-2.14,21.08,5.47,-19.73,1.46,-38.53,1
-2.19,-1.69,10.14,-40.28,343.7,36.62,3.52,-6.07,19.92,-0.0,-0.15,0.05,-2.89,18.75,4.43,13.67,11.57,26.76,1
-11.91,-2.81,7.12,57.42,-316.26,-43.9,3.36,-5.74,19.76,-0.2,-1.03,-0.15,-2.62,21.58,5.95,-12.84,1.56,-24.12,1
1.08,-8.46,17.11,-33.35,212.55,86.57,3.64,-6.09,20.08,-0.34,-2.64,-1.07,-2.93,19.36,4.47,17.58,1.61,11.28,1
-3.67,-0.62,18.93,9.52,-49.32,-1.9,3.55,-5.49,19.88,-2.05,-0.68,0.59,-2.61,19.46,4.6,0.63,-0.88,-4.2,1
6.22,-8.79,22.4,-29.83,10.55,-2.69,3.47,-5.78,19.9,-0.83,-0.83,0.2,-2.7,19.68,4.28,4.49,2.0,1.66,1
3.52,-4.12,20.97,-5.47,7.67,2.69,3.52,-5.62,20.0,-1.42,0.93,0.1,-2.93,18.51,4.1,-0.29,1.66,-5.81,1
0.65,-5.61,20.63,-5.32,10.84,3.66,3.73,-5.8,20.18,-0.24,-1.03,-0.2,-2.78,18.81,4.11,-1.42,1.17,-0.24,1
-1.6,-7.35,20.04,-11.28,4.49,1.86,3.48,-5.41,19.84,0.73,-1.07,-0.1,-2.78,19.17,4.4,2.73,-0.34,-1.46,1
1.93,-5.07,21.52,-1.47,14.31,0.88,3.73,-5.47,20.64,1.07,-0.2,0.15,-2.87,19.47,4.0,4.3,-0.49,0.54,1
1.11,-5.49,20.9,8.11,-9.03,-0.49,3.33,-5.66,19.63,0.88,0.59,-0.1,-2.79,18.99,4.15,0.63,0.2,-2.1,1
1.18,-4.97,20.94,-7.86,1.17,2.44,3.63,-6.12,19.93,-0.24,-3.22,-1.56,-2.71,19.89,4.28,4.2,-0.34,-0.05,1
0.88,-6.77,22.15,-0.15,147.07,30.76,3.9,-10.32,17.6,37.6,15.14,-10.79,-2.13,19.61,4.83,0.29,0.63,8.64,2
-15.1,-7.62,15.65,10.64,-57.57,12.3,4.72,-4.08,18.12,11.72,-18.85,-12.5,-2.76,15.41,2.78,11.96,0.15,6.3,2
38.64,3.74,25.87,15.82,-274.56,-11.57,4.19,-12.47,18.14,-54.98,7.08,1.86,-2.53,17.86,4.19,-14.45,8.01,-19.04,2
-5.87,-6.33,13.86,-8.5,234.42,33.06,5.04,-6.48,17.38,31.35,-18.75,-5.86,-2.65,18.25,3.87,-1.07,7.13,5.66,2
-8.51,-0.28,10.88,54.69,-286.04,-29.88,6.26,-7.57,22.51,-53.52,8.69,12.11,-2.73,23.49,5.26,-4.69,4.0,-14.7,2
7.26,-3.28,15.46,-88.77,301.27,52.64,4.17,-7.21,19.42,14.31,-4.0,-9.03,-3.01,19.89,3.98,16.99,5.47,17.38,2
-15.71,-0.35,9.72,74.51,-236.96,-38.28,5.95,-7.01,23.15,-48.88,10.35,18.75,-2.07,25.11,5.85,2.05,-3.91,-3.61,2
16.18,-0.97,24.3,-85.21,281.93,44.97,2.73,-5.02,18.19,18.21,-14.16,-6.3,-2.96,18.77,4.13,18.75,3.66,22.36,2
-16.11,-5.78,12.46,102.88,-102.44,-16.85,6.35,-4.42,22.14,-43.99,9.38,17.29,-1.69,24.1,6.65,1.46,-8.74,-6.1,2
16.53,-1.34,24.84,-75.24,271.48,24.22,2.84,-7.64,18.01,65.87,-8.4,-4.88,-2.84,14.55,4.15,-0.73,5.13,11.57,2
-11.02,-4.31,10.28,76.03,-13.67,-1.17,7.8,-7.02,21.81,-25.29,6.45,3.52,-2.83,21.99,3.56,7.71,-6.84,5.76,2
39.07,2.24,22.26,-35.16,-62.65,-8.59,2.05,-9.72,17.69,13.48,3.66,-7.32,-3.21,16.68,4.26,-1.37,4.49,2.34,2
-14.19,-1.05,14.38,13.38,144.34,11.82,5.85,-5.02,18.69,35.11,-4.74,20.17,-2.21,20.51,4.51,4.93,2.2,0.05,2
7.67,-0.08,23.06,17.82,-134.62,-18.46,3.55,-8.01,18.33,-3.52,-8.35,0.54,-2.7,17.38,4.48,-1.07,1.42,-4.1,2
-1.65,-10.55,19.17,-48.97,5.13,-0.2,3.83,-6.72,19.56,-7.67,2.49,3.27,-2.85,20.15,4.36,0.98,0.73,-7.28,2
1.08,-5.66,21.7,-6.05,13.82,7.08,3.69,-6.83,19.09,0.78,2.78,1.27,-2.72,19.43,4.68,4.44,0.39,0.59,2
0.77,-6.22,20.28,3.91,1.56,2.39,3.87,-6.57,19.24,3.47,-1.42,0.68,-2.59,18.95,4.23,4.35,0.63,1.32,2
1.72,-5.84,20.39,4.64,-4.59,0.29,3.41,-6.2,19.51,18.7,6.01,-4.25,-2.43,18.78,4.49,3.27,-2.29,7.86,2
0.78,-6.64,20.52,14.16,-8.3,-3.27,3.75,-6.28,19.92,-2.0,-1.56,0.49,-2.58,18.92,3.86,0.88,1.27,-1.17,2
0.33,-5.68,20.85,-4.64,3.96,2.49,3.77,-5.98,19.7,-0.39,0.1,0.05,-2.4,19.37,4.35,3.27,-0.24,-0.29,2
-10.65,4.5,17.55,60.69,172.12,29.74,3.29,-12.84,15.91,-15.58,-1.12,-4.2,-2.59,20.17,3.78,-9.47,12.79,-8.06,3
-15.29,-4.94,9.82,48.53,-160.74,1.71,3.08,-4.32,11.85,48.14,-26.76,-12.06,-2.29,19.28,5.36,3.32,16.31,11.62,3
39.07,4.3,30.1,-18.99,-186.72,-9.23,6.12,-13.27,22.95,-128.91,17.09,7.91,-2.16,24.79,5.55,-1.47,2.83,-6.49,3
-17.99,0.41,10.73,-22.8,264.55,2.39,2.02,-7.75,18.83,65.82,3.13,6.98,-2.87,14.34,3.49,-14.6,1.9,-7.13,3
-4.11,2.01,11.33,125.24,-338.62,-34.81,3.04,-1.44,20.39,0.63,-5.47,5.47,-2.5,16.58,3.63,11.33,-7.03,8.64,3
-2.94,-4.57,4.22,-146.19,364.79,82.67,1.21,-8.52,16.93,51.03,-9.52,-19.58,-2.15,15.43,5.17,-14.4,4.93,-20.56,3
-12.17,-3.93,10.97,81.64,-257.62,-75.68,5.76,-5.81,18.94,1.22,-3.47,-4.1,-3.19,16.22,3.83,0.24,-2.15,2.54,3
13.0,2.77,15.92,-87.84,343.16,37.5,1.33,-10.51,16.02,19.38,-4.1,11.23,-3.72,17.19,4.57,-28.17,8.79,-32.86,3
-13.73,-2.49,7.1,46.97,-261.43,-92.58,6.86,-4.19,20.11,7.03,-8.2,-8.64,-2.81,16.18,3.6,5.32,-0.49,8.4,3
18.45,-0.04,14.47,-25.68,373.44,50.59,1.48,-11.06,16.52,-17.14,8.69,4.3,-1.77,20.28,6.52,-23.29,8.74,-36.28,3
-15.83,-7.56,8.61,0.2,-146.0,-52.93,4.5,-4.51,18.57,26.37,-3.47,-6.15,-2.27,18.89,3.9,15.67,5.03,20.95,3
29.65,-4.44,32.02,-39.16,178.96,22.56,3.3,-10.93,18.99,-15.43,24.22,18.26,-2.33,18.83,6.44,-14.65,7.37,-20.31,3
-3.96,-4.08,15.81,-40.67,1.51,-8.98,6.34,-6.97,21.79,17.53,-9.86,2.98,-2.34,19.23,4.29,0.34,-3.08,4.88,3
4.73,-2.73,20.62,67.77,-32.28,12.16,4.0,-6.4,19.47,2.29,-3.76,-1.61,-2.92,18.87,4.58,3.81,1.95,-4.44,3
3.52,-7.39,20.09,-18.85,5.81,-2.29,3.88,-6.5,20.12,7.13,3.81,-0.49,-2.59,19.78,4.92,6.25,2.64,1.81,3
2.29,-4.71,21.08,8.5,0.73,1.95,3.83,-6.91,19.74,2.1,-1.86,-1.61,-2.54,19.12,4.67,1.03,-0.15,-0.63,3
1.89,-5.66,20.33,13.04,-14.75,-3.03,3.66,-6.19,19.41,0.39,0.83,0.73,-2.51,19.29,4.85,4.64,-0.1,1.71,3
1.22,-5.8,20.8,-4.0,4.0,2.54,3.84,-6.44,19.57,1.51,-1.81,-3.96,-2.56,18.81,4.63,0.73,-2.1,0.59,3
2.55,-5.75,20.81,3.66,-5.96,-3.12,3.94,-6.39,19.73,-3.37,-0.49,1.27,-2.37,19.15,4.53,-0.78,0.98,-1.71,3
0.99,-5.54,20.43,0.54,-3.08,0.93,3.94,-6.65,19.94,-1.17,-2.05,-0.44,-2.24,18.66,5.02,-1.51,-3.61,-6.59,3
-5.61,-9.46,19.3,3.91,180.37,57.42,-0.33,-10.55,17.0,-13.33,4.79,-2.2,-5.57,18.85,3.04,2.69,1.56,-2.88,4
-20.0,-5.95,11.83,-1.86,-31.69,6.84,0.27,-6.81,16.73,10.6,-20.12,-0.98,-5.41,19.24,2.96,3.12,1.07,-0.73,4
26.96,1.98,28.1,-12.65,-310.64,-49.51,4.69,-6.85,25.35,-133.2,1.07,-25.0,-5.66,18.76,2.45,1.66,1.37,1.12,4
-11.22,-4.7,12.37,93.99,283.54,65.53,-1.41,-9.24,21.94,118.02,19.78,12.06,-5.46,19.44,2.72,1.81,1.42,-1.37,4
-17.2,-5.01,7.48,32.76,-326.27,-75.34,-0.22,-8.0,19.26,-16.94,-6.79,-3.52,-5.6,18.82,2.37,1.81,0.63,0.29,4
9.06,-3.53,12.39,-103.86,440.23,80.66,0.81,-10.58,16.17,103.86,26.42,0.88,-5.34,19.13,3.0,1.46,0.49,1.37,4
-18.94,0.53,9.61,39.55,-199.51,-34.47,0.88,-3.85,17.96,15.04,-11.33,3.56,-5.5,18.93,2.42,2.0,1.03,-0.54,4
19.24,-5.44,27.32,-90.33,225.83,22.56,4.34,-15.89,18.44,-34.47,-4.88,5.76,-5.38,19.13,2.73,0.29,1.32,0.44,4
-22.0,-0.68,9.93,73.88,-95.65,2.88,-3.0,-3.43,16.6,26.12,-10.79,-10.64,-5.35,19.33,2.68,1.56,1.03,-1.03,4
39.07,-9.64,25.76,-88.23,-43.99,1.9,5.06,-17.42,18.42,-61.82,2.0,23.44,-5.42,19.09,2.78,2.39,1.42,-0.1,4
-23.68,2.58,9.86,86.08,-16.5,53.47,-0.61,-6.47,16.96,24.61,0.63,1.81,-5.22,19.42,2.84,1.07,0.78,0.78,4
20.42,-3.57,24.38,-45.75,-305.52,-50.2,2.85,-7.93,22.6,-2.54,-0.1,-3.03,-5.41,19.04,2.62,0.2,1.61,-1.07,4
-4.72,-3.89,19.8,0.83,37.45,-4.59,1.11,-6.92,20.12,-4.88,6.74,2.54,-5.36,18.8,2.76,0.24,0.98,0.59,4
-1.3,-6.19,20.35,-2.39,19.09,8.98,0.75,-6.73,19.65,-15.14,-1.76,2.78,-5.08,19.4,3.19,3.12,1.37,0.2,4
-0.5,-6.69,20.42,-3.91,10.25,4.49,0.81,-7.33,19.58,-9.52,0.54,0.98,-5.34,18.9,2.61,1.22,2.05,-2.88,4
0.55,-5.99,20.3,-1.07,9.81,5.32,0.58,-7.57,19.56,4.74,-0.49,0.0,-5.29,19.27,2.77,2.93,0.1,0.39,4
-1.63,-6.48,20.37,12.11,-9.62,1.66,1.17,-7.61,20.16,-4.98,-2.34,0.83,-5.32,18.83,2.69,1.61,0.88,-2.64,4
-0.96,-6.94,20.86,-5.96,2.88,2.59,0.75,-7.45,19.58,2.39,0.78,-0.29,-5.41,18.88,2.69,1.71,0.98,-0.63,4
-1.32,-6.88,20.27,3.27,-2.15,0.39,0.98,-7.35,19.88,3.52,-1.17,-1.07,-5.34,18.95,2.46,1.61,1.22,-2.2,4
-0.55,-6.41,20.7,3.76,-5.57,-0.73,1.07,-7.53,19.92,-6.25,-2.0,1.61,-5.23,19.24,2.78,2.39,0.15,0.2,4
-12.79,-6.71,16.97,55.52,176.22,68.6,-0.04,-11.77,16.91,-30.08,2.39,-1.81,-5.53,17.22,2.22,-17.04,11.08,-4.2,5
-17.08,-2.71,10.9,21.73,-128.91,-19.38,2.74,-4.9,17.78,46.09,-24.66,4.35,-5.99,16.92,1.97,-1.32,-0.93,10.45,5
31.69,-4.9,30.69,-76.66,39.79,-13.67,5.6,-3.95,23.38,-88.04,-3.08,-22.02,-3.61,24.26,3.6,10.25,0.98,0.54,5
-30.62,-9.23,13.02,39.21,63.96,44.63,0.37,-10.27,18.29,98.88,22.36,9.91,-4.94,16.99,4.5,-3.71,4.35,-3.12,5
0.28,0.97,10.76,37.3,-392.24,-65.33,0.64,-7.13,18.47,-16.7,-9.52,-4.49,-5.49,20.81,2.51,11.67,-3.22,12.94,5
-9.16,-17.63,9.4,-37.79,352.29,135.5,3.4,-13.99,16.95,20.8,14.01,4.93,-4.67,17.28,4.5,-14.99,2.05,-6.84,5
-15.02,-1.18,9.93,-12.45,-255.47,-64.01,-3.28,-4.31,20.26,17.87,-1.95,-3.17,-5.73,16.3,1.79,4.88,-3.71,12.21,5
4.22,-9.14,11.67,-74.17,369.92,108.84,5.15,-16.24,18.51,-58.2,-2.15,10.3,-4.21,19.96,4.88,-6.01,-2.25,-13.48,5
-16.45,-0.17,10.67,7.28,-183.5,-49.51,-0.93,-8.26,16.62,18.51,-0.73,-0.39,-6.8,14.25,1.49,-4.15,3.56,3.86,5
19.84,-8.39,28.29,-59.08,241.55,45.41,4.54,-14.49,24.63,-143.41,-5.52,-17.92,-3.51,22.42,4.38,0.63,1.56,-14.79,5
-21.23,-0.05,10.46,37.26,-83.3,3.52,3.68,-7.32,19.3,26.07,-29.98,9.81,-6.25,16.23,1.31,2.69,11.08,-6.59,5
39.07,-9.38,28.72,-55.37,-0.98,-4.44,4.54,-7.58,24.04,-30.66,5.03,-0.49,-4.19,20.68,4.51,-9.33,4.88,-19.09,5
-11.74,0.28,15.11,136.82,-24.46,5.13,-1.63,-5.34,17.64,15.19,5.81,5.86,-5.97,16.68,2.12,0.78,1.27,1.42,5
1.79,-4.89,21.8,-54.49,-8.94,-24.17,0.4,-6.7,21.36,-27.59,-15.28,-1.86,-5.29,19.7,2.83,-0.0,-0.83,-0.68,5
-0.23,-7.48,21.77,3.08,-21.58,-6.84,1.24,-7.77,19.93,-11.43,-3.66,1.17,-5.41,18.96,3.17,1.95,0.98,-3.47,5
-1.74,-7.88,19.83,0.78,-1.61,2.39,0.79,-7.86,19.35,1.07,-2.98,-1.03,-5.7,18.54,2.93,3.86,-0.93,4.83,5
-1.39,-7.28,20.35,13.33,-13.53,-3.56,1.52,-6.61,19.79,16.21,-1.22,-1.32,-5.31,19.55,2.41,2.2,1.76,4.49,5
0.41,-5.87,21.99,7.47,-9.37,-2.44,1.6,-7.13,20.81,-13.18,-2.54,1.81,-5.01,19.57,2.77,-0.83,0.63,-1.27,5
-1.02,-7.23,20.57,3.03,-4.35,0.1,0.99,-6.84,19.72,-1.86,-0.63,-0.34,-5.15,18.72,3.2,1.22,0.83,0.88,5
-1.45,-6.91,20.38,-0.2,-0.39,-2.34,1.38,-7.29,19.92,-2.1,-2.88,0.39,-4.93,19.12,3.29,1.86,1.61,-1.07,5
-8.24,-7.87,16.53,102.29,197.95,84.77,0.79,-11.65,15.43,-55.37,1.42,-0.39,-5.12,21.28,3.09,9.91,13.43,-2.54,6
-22.24,-14.8,10.14,-31.88,-41.21,-1.66,-0.61,-9.36,19.49,143.02,10.74,-8.89,-5.6,18.03,4.32,-10.35,-0.78,24.9,6
26.1,4.97,25.96,8.45,-412.45,-58.3,4.59,-9.76,22.08,-28.32,-19.38,-3.42,-4.5,25.42,1.76,22.36,-5.52,16.75,6
-18.09,-11.64,9.89,54.3,368.99,90.72,-1.08,-9.1,14.17,35.64,34.91,13.96,-5.06,17.24,1.79,-23.24,8.4,-18.12,6
-15.98,-4.31,7.38,21.44,-272.75,-52.44,-2.42,-7.17,14.87,30.57,-1.22,-6.49,-6.32,14.29,2.55,1.42,-7.32,11.91,6
27.01,-4.44,26.92,-134.57,358.25,48.19,6.57,-22.49,28.1,-168.95,-0.68,-25.93,-2.85,23.82,5.57,-0.2,3.66,-8.4,6
-15.68,-0.31,13.11,60.89,-40.58,12.6,-1.43,-5.31,18.7,96.44,7.18,22.8,-5.52,13.69,2.65,-12.84,9.08,-8.01,6
25.36,-1.81,28.22,-1.22,-285.21,-60.64,2.86,-8.75,21.31,-11.33,-14.26,-5.27,-3.53,23.22,3.42,21.87,-7.62,13.77,6
-19.69,-6.65,12.77,108.35,264.36,76.37,2.96,-13.44,15.9,33.15,11.77,8.5,-4.66,16.74,3.76,-24.71,6.3,-14.89,6
-7.26,-1.09,7.65,27.88,-371.39,-89.65,-1.09,-8.74,17.16,13.77,-11.96,-5.27,-5.92,14.08,1.22,9.72,-5.81,22.61,6
6.92,-15.05,17.28,-111.04,397.56,141.89,7.39,-18.63,18.44,-89.45,-4.05,22.27,-3.3,21.22,5.65,-9.62,7.91,-30.62,6
-18.26,-3.28,9.51,1.81,-177.69,-37.01,2.74,-8.53,17.77,26.81,-13.23,13.28,-6.21,13.64,1.33,-2.2,8.84,3.61,6
19.46,-9.32,25.03,-63.57,141.94,22.41,4.35,-10.53,23.38,4.49,23.24,-0.1,-3.2,21.6,5.14,6.79,-2.73,-1.12,6
-1.11,-3.67,19.93,14.31,1.66,-3.08,1.35,-6.56,19.01,8.3,-5.03,-3.37,-4.92,18.16,3.12,-15.38,-18.75,-19.82,6
-3.01,-8.0,19.73,15.48,-8.5,2.64,0.66,-6.87,19.71,-13.77,-5.91,1.56,-5.06,18.69,4.08,3.71,6.45,2.1,6
-1.24,-9.05,20.02,-4.44,-5.32,-1.56,1.24,-7.56,20.11,2.49,0.59,-1.51,-4.88,18.95,3.7,3.66,-0.29,0.39,6
-1.62,-8.53,19.91,3.08,-2.64,1.46,1.07,-6.87,20.03,2.0,-0.49,0.24,-4.9,19.25,3.48,3.81,2.0,0.68,6
-1.85,-8.05,19.88,9.67,-3.91,1.46,1.05,-6.11,19.64,6.69,0.44,-0.63,-4.86,19.24,3.45,3.86,-0.73,1.9,6
-1.71,-8.2,20.66,2.49,-5.03,-1.03,1.28,-6.58,20.19,-5.32,-1.27,0.59,-4.7,19.31,3.4,0.54,1.9,-1.81,6
-1.96,-8.2,20.14,1.51,-2.88,-0.2,0.83,-6.42,19.57,1.17,0.2,-0.54,-4.73,18.64,3.38,1.76,0.88,0.29,6
-17.85,-5.09,11.21,31.3,-122.95,-4.83,2.42,-2.91,18.6,24.9,-17.19,-8.69,-5.22,14.49,4.05,0.93,-2.78,15.23,7
39.07,-4.95,27.6,-77.83,-110.25,-24.41,4.96,-16.9,17.61,-69.78,4.2,12.89,-3.54,22.52,4.46,0.24,8.74,-33.98,7
-28.57,0.97,9.85,51.17,180.22,43.12,0.36,-6.89,16.02,43.55,-11.82,5.22,-5.98,14.44,2.24,6.88,3.71,7.81,7
-6.17,-0.51,7.21,60.45,-372.75,-74.85,6.88,-4.2,25.63,-94.48,-7.52,-19.09,-2.98,25.88,4.61,19.63,-2.93,12.84,7
3.31,-10.09,10.56,-71.58,388.96,109.81,-2.33,-6.81,19.34,106.69,20.56,15.92,-4.68,16.05,4.33,-16.16,-9.13,-13.96,7
-16.9,-5.66,9.2,2.49,-193.8,-22.95,0.78,-11.57,20.68,-28.96,0.34,1.61,-5.6,18.34,3.11,13.72,-7.47,27.25,7
25.97,-4.48,26.67,-47.56,273.34,34.38,2.32,-14.32,16.22,16.41,13.92,8.98,-4.24,18.79,5.0,-8.5,9.91,-22.22,7
-19.07,-2.71,10.69,55.47,-0.49,30.22,-5.05,-3.9,15.55,39.7,-8.15,-16.02,-6.49,15.5,1.44,3.47,5.76,13.18,7
24.08,-8.2,28.58,-23.49,-349.41,-65.09,3.93,-17.05,22.06,-128.42,-4.74,6.88,-2.44,24.36,4.76,2.1,-4.3,-13.82,7
-27.77,-7.25,12.9,76.17,300.05,82.08,2.78,-8.38,18.17,16.6,-9.28,-2.83,-3.76,15.15,5.73,-11.08,-3.52,9.96,7
-4.98,-1.61,9.64,6.64,-394.43,-71.04,5.3,-5.59,23.25,-74.41,9.08,-9.86,-2.81,24.65,5.35,5.18,3.66,-8.89,7
-0.13,-18.02,17.48,-7.81,282.67,129.35,-0.65,-6.97,17.36,32.37,-2.25,28.47,-5.14,17.2,2.96,6.59,13.09,1.32,7
-7.5,0.63,16.56,-33.94,-87.06,-28.37,1.15,-7.36,19.87,-7.81,-8.01,-0.54,-4.58,20.38,4.1,-0.0,-8.84,-7.42,7
-6.45,-11.29,19.53,-50.0,19.63,2.25,1.48,-7.13,19.8,1.46,1.51,-1.22,-4.55,19.12,4.72,5.91,4.49,2.59,7
-2.49,-8.73,19.99,2.59,5.47,1.76,1.17,-6.23,19.61,3.61,2.1,0.1,-4.69,18.82,4.13,4.74,3.52,1.42,7
-2.8,-8.24,19.92,7.62,-0.83,1.71,1.34,-6.23,20.09,8.54,-0.44,-0.73,-4.67,19.01,3.71,5.71,0.2,2.1,7
-2.82,-8.63,19.68,12.06,-7.47,-0.59,1.6,-6.1,20.55,1.81,-1.81,-0.83,-4.52,19.1,3.37,1.61,0.29,1.9,7
-2.41,-8.19,20.22,2.98,-4.35,-0.15,1.1,-6.31,19.9,-2.34,-3.22,-0.93,-4.25,18.76,3.86,-0.05,-0.44,0.88,7
-2.55,-7.94,19.55,-0.39,-3.61,-1.61,1.53,-6.75,20.46,-1.03,-3.17,-0.39,-4.26,19.46,3.79,1.56,1.61,1.12,7
-2.84,-9.73,19.93,-4.25,-1.9,0.0,1.4,-6.05,19.96,-2.73,-3.27,1.22,-4.29,18.96,3.68,0.2,3.37,0.15,7
-9.81,2.65,16.21,33.01,202.39,32.76,0.86,-10.53,18.74,114.89,19.82,7.28,-3.73,18.3,4.81,-2.98,-2.25,8.3,8
-16.46,-3.44,10.9,27.39,-181.15,-8.59,3.08,-7.73,20.56,-10.6,-13.53,0.78,-3.28,19.22,4.72,26.37,-9.08,15.63,8
27.07,-3.97,31.85,-85.84,148.14,-0.59,2.25,-13.62,16.35,-14.21,22.12,12.6,-4.13,18.06,4.05,-18.99,10.45,-34.96,8
-20.46,-0.57,12.77,45.8,55.47,21.63,1.19,-6.57,17.48,32.18,-9.77,14.11,-5.38,16.0,3.3,15.67,-0.29,5.66,8
-6.65,-2.05,11.76,35.3,-314.7,-65.04,4.53,-2.14,23.44,-69.78,-5.52,-14.75,-3.14,24.99,4.37,11.91,-0.2,7.37,8
-1.0,-14.92,11.2,-90.14,336.38,117.68,0.51,-2.56,16.92,62.55,-14.89,15.09,-4.08,18.23,4.74,-1.81,5.22,0.78,8
-12.13,-0.5,9.08,12.35,-274.46,-54.05,3.21,-4.41,20.23,15.58,-4.79,16.02,-5.2,22.06,2.51,17.19,-0.88,9.08,8
18.55,-2.66,18.37,-59.42,351.81,73.58,0.22,-10.45,16.59,80.96,26.51,7.57,-3.92,19.58,3.8,-14.6,2.49,-17.48,8
-18.73,-2.62,12.08,18.41,-76.66,-12.06,1.39,-5.41,16.1,4.98,-7.67,-9.37,-5.53,14.88,3.65,3.22,-5.08,15.28,8
39.07,-2.85,24.57,-40.48,-80.32,-27.69,4.14,-17.33,17.65,17.28,11.23,10.11,-3.49,21.24,4.13,-5.57,4.98,-23.24,8
-24.2,-3.33,10.51,127.69,35.94,57.47,-4.17,-3.96,15.67,19.53,-21.24,-3.91,-5.86,14.05,2.65,2.78,3.08,10.84,8
33.5,-2.0,28.28,-33.94,-378.61,-53.12,3.8,-10.44,21.77,13.13,22.95,5.52,-2.22,22.46,5.33,0.49,3.08,-4.2,8
-20.22,-9.3,16.91,66.31,179.49,53.32,1.64,-2.6,20.1,-1.71,-20.85,-4.64,-4.57,18.43,2.78,10.3,0.24,-5.18,8
0.85,-8.45,21.29,-107.08,-39.75,-29.69,1.46,-5.89,19.98,2.98,-3.22,0.54,-4.13,20.44,3.59,6.54,1.51,-4.05,8
-0.64,-5.92,20.66,10.94,-11.13,-1.22,1.36,-6.38,19.66,2.59,-3.12,-1.86,-4.28,18.61,3.46,1.27,-0.44,0.59,8
-1.39,-6.81,19.93,1.07,-4.0,-0.05,2.64,-5.68,20.63,15.43,-3.32,0.59,-3.93,19.81,3.55,2.59,1.03,3.13,8
0.28,-7.1,20.96,12.3,-19.38,-4.39,1.94,-5.8,20.16,-2.73,1.66,1.42,-4.14,19.2,3.04,0.15,2.54,-3.08,8
0.05,-6.65,20.55,-14.11,10.25,4.83,1.92,-5.63,20.27,0.24,-0.73,-0.54,-3.83,19.85,3.66,2.78,-1.07,-0.2,8
0.45,-6.4,20.95,2.25,-5.18,-1.81,1.91,-6.18,20.33,6.05,-0.44,-1.07,-4.13,18.97,3.19,1.22,0.54,0.29,8
-1.07,-7.65,20.37,-11.08,2.15,-0.49,1.99,-6.09,20.41,-0.24,-2.93,-0.44,-4.04,19.21,3.51,1.86,0.93,0.24,8
-5.75,-11.47,18.52,33.45,203.91,77.69,2.37,-8.89,21.02,-127.83,4.74,-14.7,-3.74,19.81,4.0,-2.93,6.54,-6.84,9
-16.0,-7.12,13.05,15.87,-104.05,-1.61,1.95,-10.08,16.99,57.81,9.13,-3.03,-4.57,17.23,3.52,-5.76,0.2,6.01,9
39.07,-1.73,27.53,-29.88,-217.24,-54.39,1.79,-2.54,21.42,16.75,-20.07,-13.33,-4.75,15.28,3.19,7.67,-7.47,16.7,9
-14.11,-7.24,13.4,3.61,281.84,60.64,4.95,-14.05,22.55,-111.18,3.08,-0.59,-2.9,23.76,3.62,-0.34,11.23,-21.09,9
-15.57,-2.53,8.11,41.55,-253.96,-48.34,0.76,-2.63,16.4,54.49,-11.43,17.29,-4.76,15.33,3.85,0.44,6.15,3.61,9
10.41,-3.54,18.25,-83.11,362.21,61.18,2.97,-2.97,20.67,11.77,-9.96,5.08,-2.37,23.49,5.48,11.77,-4.1,7.13,9
-16.67,-0.62,12.17,21.97,-147.22,-44.92,1.15,-9.08,17.55,107.62,25.83,6.88,-4.25,18.86,3.8,-5.66,4.05,-5.96,9
39.07,-3.55,27.28,22.95,-8.84,-3.08,0.2,-7.96,18.86,-34.42,-1.76,-15.48,-4.95,16.54,3.52,13.96,-6.64,19.29,9
-30.72,-4.19,9.95,73.05,199.66,60.6,5.52,-18.08,17.49,-55.32,0.05,14.31,-3.57,20.33,3.82,-11.82,7.37,-28.52,9
5.18,0.21,10.88,29.05,-419.29,-79.79,-1.58,-7.41,15.73,38.77,-0.63,-3.81,-5.67,14.41,2.31,10.69,-1.03,13.67,9
-7.73,-15.52,8.58,-59.57,390.23,140.53,7.4,-10.73,26.32,-157.18,-3.91,-13.53,-1.53,23.5,5.66,-2.73,2.49,-10.74,9
-14.69,-4.46,8.47,-12.79,-253.42,-39.36,-0.37,-3.87,18.68,85.01,-15.72,19.63,-3.96,16.19,4.55,-5.37,5.86,0.63,9
9.29,-4.69,22.48,-31.1,147.22,10.21,4.76,-7.11,24.92,5.91,-0.39,6.79,-3.44,22.76,4.17,9.52,-0.88,3.71,9
1.72,-6.63,20.26,-19.58,15.48,4.69,1.7,-6.93,19.19,-8.69,0.63,5.22,-4.15,18.61,3.0,0.2,3.61,-6.25,9
1.21,-6.58,20.4,12.35,-12.16,-3.37,1.69,-7.26,19.57,5.71,-1.17,-1.07,-4.19,18.89,3.6,3.71,-0.39,-1.56,9
0.22,-8.39,19.66,-6.59,4.44,4.1,1.67,-7.56,19.29,-3.71,-0.54,2.64,-4.1,18.33,3.54,0.63,2.05,-2.1,9
0.24,-7.53,19.88,0.49,-4.54,-2.73,1.77,-7.75,19.37,9.08,-0.54,-2.44,-3.94,18.86,3.61,2.83,-0.78,3.66,9
2.9,-5.81,21.05,1.12,2.05,0.59,1.71,-6.71,19.77,-2.64,0.73,1.17,-3.53,19.84,3.43,2.44,-1.81,-1.22,9
0.96,-7.0,20.2,1.27,-6.01,-0.39,1.84,-7.13,19.76,1.71,-1.9,-1.17,-3.82,18.86,3.59,-0.1,1.07,0.63,9
0.83,-7.47,20.11,-4.05,0.49,1.9,1.86,-7.42,19.76,-3.52,-2.15,0.54,-3.98,18.95,3.5,1.76,0.98,0.29,9
2.18,-5.54,20.63,-0.54,0.0,0.78,1.8,-6.56,20.0,0.88,-0.2,-0.29,-3.89,19.29,3.48,0.63,1.66,-0.68,10
1.59,-5.77,20.49,1.56,-2.25,0.29,1.92,-6.31,20.18,1.42,-0.63,-0.24,-3.88,19.16,3.12,2.83,1.32,1.12,10
3.22,-5.15,21.55,-7.72,11.52,1.95,1.64,-7.65,20.28,6.45,5.57,7.13,-3.74,19.86,3.08,1.42,1.07,-0.73,10
-5.56,-8.35,18.33,70.02,140.38,63.53,0.15,-7.96,17.87,-73.97,3.61,-8.45,-3.76,21.16,3.83,3.66,8.01,-4.25,10
-17.31,-9.54,14.22,-26.76,-9.67,6.4,1.95,-10.97,19.6,86.47,4.74,-0.78,-3.93,19.34,2.57,-15.33,8.15,-3.86,10
14.14,1.04,21.37,1.03,-369.68,-67.63,2.01,-5.98,17.54,-12.06,-12.84,-9.42,-4.77,16.93,3.1,-3.27,2.88,3.03,10
0.41,-10.52,13.73,27.1,323.0,105.27,4.14,-16.1,18.55,-69.63,7.13,7.08,-2.86,21.61,4.65,7.57,7.57,-2.0,10
-16.03,-5.53,7.54,-7.32,-244.19,-40.48,-0.48,-10.04,17.61,15.23,-8.45,3.96,-5.07,15.43,4.21,-19.34,5.22,-11.77,10
27.1,-2.9,30.41,-53.17,340.87,44.73,6.93,-4.91,27.17,-141.02,-9.03,-30.22,-5.31,19.04,1.84,27.0,-1.56,14.16,10
-16.68,-0.71,12.01,81.05,-115.09,5.22,1.36,-2.02,16.96,56.54,-18.8,21.78,-4.09,16.61,3.84,-22.61,5.52,-18.65,10
39.07,-6.62,22.43,-25.15,-101.61,-13.33,4.59,-4.75,19.64,15.53,-8.3,16.06,-6.37,14.5,1.61,-3.27,-1.46,1.22,10
-29.8,-11.42,12.16,53.52,41.7,54.49,-2.63,-4.25,19.43,125.05,21.48,2.15,-3.25,22.32,4.03,-16.75,5.03,-16.16,10
25.92,-6.56,25.56,-19.68,-315.58,-48.68,-0.45,-13.5,19.85,-34.57,-7.96,18.8,-5.97,13.15,1.6,-4.49,4.25,-1.32,10
-25.49,-7.72,13.06,72.8,352.54,80.47,2.96,-14.7,17.07,26.07,18.02,2.59,-2.14,23.0,5.86,2.93,2.05,-7.57,10
-6.82,-1.65,7.56,23.68,-367.04,-86.13,-1.25,-9.71,17.09,20.61,-15.43,-2.29,-3.63,17.07,4.75,0.34,2.73,6.79,10
-2.49,-8.02,14.81,-62.6,275.44,71.83,3.98,-8.57,21.64,2.73,10.74,5.66,-3.23,22.87,4.16,18.12,-4.49,9.86,10
-3.38,-3.73,19.23,-22.27,2.69,-14.16,0.87,-5.11,17.6,32.23,-2.34,11.43,-4.21,18.31,3.18,0.34,3.08,-7.32,10
-3.16,-8.48,19.96,6.88,-11.96,-1.07,1.57,-6.31,19.91,11.72,-1.95,-0.39,-4.21,19.18,3.23,4.54,-1.37,-5.13,10
-0.97,-8.42,20.37,-7.03,-1.22,1.22,2.1,-6.87,20.45,-2.83,-0.98,1.81,-4.35,18.78,3.71,1.42,-0.63,-1.61,10
-1.05,-7.61,20.52,7.23,-8.3,1.07,1.56,-6.29,20.06,5.08,0.73,0.63,-4.27,19.32,3.45,0.93,1.46,-2.44,10
-7.66,-6.14,15.05,83.5,175.05,68.8,1.94,-12.29,17.04,-43.12,5.81,0.44,-5.08,20.15,2.45,1.07,10.3,-3.32,11
-15.86,-5.04,11.12,28.86,-170.9,-10.4,1.61,-2.85,18.35,58.25,-31.1,8.69,-4.73,17.76,3.22,-0.29,5.08,17.48,11
36.63,-5.15,30.0,-74.76,-9.57,-13.82,3.53,-5.62,22.14,-3.08,-4.1,-2.44,-3.04,23.8,3.43,14.31,2.29,5.71,11
-36.85,-11.9,12.39,-46.97,201.51,63.92,-0.3,-9.96,15.66,59.03,27.25,5.91,-5.5,14.76,1.05,-25.24,6.84,-15.53,11
-1.75,0.5,10.6,41.94,-373.63,-60.69,0.55,-4.49,16.04,36.87,-12.4,1.81,-6.0,14.68,2.77,-1.22,-4.1,16.85,11
2.06,-11.93,6.16,-36.23,396.09,135.6,5.22,-17.08,20.19,-57.13,4.79,6.49,-3.53,24.33,3.7,1.56,8.25,-10.6,11
-14.81,-2.71,8.55,11.62,-235.6,-48.1,-1.44,-7.62,16.57,18.31,-5.71,0.29,-5.66,13.98,1.46,0.05,5.66,4.2,11
17.43,-0.86,25.88,-34.67,323.73,47.71,6.7,-7.62,26.84,-172.9,-12.7,-29.25,-1.64,27.78,4.41,21.14,-0.93,2.1,11
-17.53,-3.18,12.77,26.32,-124.37,-21.0,-0.25,-1.03,17.7,89.45,-8.69,18.99,-3.56,17.25,4.98,-9.03,2.39,0.88,11
39.07,-3.69,25.02,33.94,-108.74,-24.37,3.31,-6.73,18.75,10.74,-6.4,18.55,-4.53,22.74,3.44,19.68,-2.29,11.33,11
-33.0,-8.86,13.3,20.75,255.47,70.31,1.02,-10.76,15.21,37.11,16.85,3.71,-5.06,19.19,1.07,-15.67,8.01,-16.8,11
-7.31,0.99,3.79,75.39,-429.59,-80.22,-1.47,-8.42,16.57,27.64,-20.95,-11.08,-6.11,14.74,1.28,-0.2,3.66,13.72,11
-2.2,-9.64,10.67,-76.56,332.13,103.13,5.07,-10.69,22.97,-12.4,23.97,3.71,-3.19,21.53,4.2,-2.1,1.56,-4.0,11
-4.02,-2.75,19.31,-11.77,-60.01,-21.14,-0.0,-6.85,19.12,18.02,-4.69,21.44,-4.66,17.88,3.13,4.49,-0.29,-2.44,11
-3.84,-10.48,20.11,-23.73,-25.1,-1.37,2.06,-6.43,20.13,12.94,-9.91,-1.86,-4.16,18.72,3.72,4.44,-3.08,-2.69,11
-1.0,-7.02,20.38,4.1,-13.04,-2.34,2.31,-5.63,20.34,10.64,-2.88,0.68,-4.29,19.23,3.39,1.17,-0.15,-1.76,11
0.16,-6.69,20.45,2.69,-3.12,-0.73,2.13,-5.87,20.55,-1.86,-0.88,0.88,-4.38,19.43,3.38,4.1,1.12,-0.1,11
-1.02,-7.43,20.15,-1.27,2.39,2.25,1.67,-5.13,19.62,1.66,-0.2,-0.78,-4.31,18.73,3.11,1.03,0.2,0.44,11
-0.6,-7.64,20.75,7.08,-7.42,-1.17,2.28,-5.18,20.46,4.0,-1.66,0.88,-4.4,19.23,3.18,1.86,-0.88,-0.44,11
-0.67,-6.77,20.42,2.25,0.68,1.95,2.18,-5.02,20.44,0.54,-1.03,-0.49,-4.42,19.25,3.16,3.08,0.2,-0.29,11
-1.55,-12.08,18.57,-38.53,172.75,52.73,3.1,-6.87,20.57,-109.38,5.57,-11.23,-4.38,19.81,3.05,4.54,7.71,-1.9,12
-18.38,-5.83,14.01,16.75,-37.7,12.94,1.77,-10.09,17.15,80.96,13.48,3.66,-4.34,16.64,4.42,-3.86,5.91,8.64,12
27.45,-6.53,29.82,-5.13,-325.0,-77.25,4.93,0.08,19.6,-18.75,-15.72,-16.7,-3.16,22.74,4.03,5.57,0.34,3.71,12
-6.7,-12.61,14.12,-15.14,315.38,105.13,4.56,-14.35,20.43,-85.89,-2.44,1.07,-4.69,17.81,2.18,-13.62,5.86,-16.46,12
-15.49,-6.73,8.52,0.1,-226.66,-37.6,1.89,-6.88,18.11,15.38,-17.77,9.08,-5.49,14.58,3.27,2.25,-3.66,16.99,12
17.06,-2.26,22.13,-58.74,307.86,40.87,4.57,-1.42,23.41,-43.02,-9.62,-14.84,-3.03,21.19,4.12,-12.55,5.03,-9.96,12
-15.09,-1.08,13.97,54.54,-135.69,-29.1,-0.15,-3.14,18.27,86.18,2.88,16.11,-4.85,15.39,2.64,-2.88,2.49,2.73,12
39.07,-7.29,27.96,-10.5,-118.02,-22.22,2.0,-8.86,18.67,3.03,-6.01,14.94,-1.1,26.27,4.88,13.72,-4.83,-8.69,12
-24.73,-5.36,11.64,52.2,46.14,28.52,1.41,-9.37,17.13,86.91,24.46,-0.1,-3.35,16.45,5.37,-12.94,0.44,-3.27,12
25.58,-9.91,27.21,-42.24,-366.75,-56.98,4.69,-0.8,16.03,-23.24,-6.54,-19.73,-3.35,24.05,4.52,10.5,-1.42,10.79,12
-28.92,-9.57,12.92,37.11,317.82,73.78,4.61,-16.88,16.86,-44.53,4.25,16.8,-4.57,17.49,4.15,-14.06,-0.59,-11.91,12
-15.35,-3.12,4.51,34.33,-384.96,-83.79,-0.02,-9.0,17.72,23.53,-3.03,-7.96,-4.67,18.4,2.8,20.02,-1.17,22.9,12
5.47,-1.92,17.66,-69.92,347.41,67.29,6.58,-6.44,24.54,-77.59,0.44,-14.5,-3.26,20.47,3.8,-0.34,5.52,-15.48,12
-9.21,-1.2,16.35,-8.74,-75.1,-26.17,0.41,-5.21,17.68,34.52,3.37,9.91,-5.2,17.11,2.01,0.24,1.51,-1.17,12
-3.97,-9.81,21.16,-19.58,49.51,11.96,2.71,-9.73,21.6,-24.95,-12.16,4.79,-3.8,20.35,3.78,1.71,-0.24,-0.34,12
2.28,-6.39,20.85,-1.9,1.12,2.0,2.2,-6.76,20.08,-7.62,0.15,2.29,-4.2,18.6,3.08,-0.2,0.59,-4.3,12
-0.43,-7.71,20.31,2.78,-4.25,0.83,1.95,-6.4,19.97,-1.86,1.46,1.32,-4.33,18.76,3.21,0.44,-1.61,-3.61,12
-1.92,-7.93,19.67,1.27,-1.42,0.44,1.66,-7.24,19.68,2.05,-2.0,-1.32,-4.35,19.31,3.72,2.64,-0.2,0.63,12
-0.77,-8.06,20.32,2.29,-2.1,0.83,2.08,-7.22,20.04,1.32,-0.59,-0.2,-4.44,18.98,3.31,1.03,2.1,-1.12,12
-1.2,-8.26,20.16,5.66,-2.83,1.66,1.46,-6.62,19.7,5.22,-0.34,0.39,-4.36,19.01,3.19,1.51,-0.68,0.2,12
-14.01,-14.05,16.39,12.94,221.29,84.96,2.12,-5.78,19.92,8.11,-0.15,1.27,-4.71,17.91,3.85,1.81,6.2,17.43,13
-18.49,-6.73,10.99,6.2,-126.37,-0.2,2.11,-5.47,20.35,4.74,-0.24,-2.54,-3.87,25.31,4.15,10.69,-2.73,10.5,13
39.07,-2.91,27.72,-37.99,-128.81,-45.56,1.52,-5.23,20.11,5.62,0.49,-3.91,-5.07,18.99,1.17,-16.89,5.86,-11.72,13
-29.68,-1.52,10.66,63.04,138.92,50.63,1.87,-5.46,20.34,4.78,0.49,-2.2,-5.55,13.95,3.84,2.93,-5.03,18.16,13
-1.72,-1.73,11.41,39.75,-359.42,-75.05,1.87,-5.04,20.34,-0.2,-0.29,-0.44,-3.16,21.63,3.6,-3.91,6.2,-20.65,13
4.0,-10.16,6.22,-75.49,426.66,133.25,1.85,-5.01,20.25,3.71,-0.78,-0.73,-6.25,13.37,1.31,-0.73,2.2,-0.15,13
-14.93,-3.48,6.82,30.86,-273.14,-50.15,2.08,-4.77,20.63,5.81,0.15,0.93,-2.36,28.32,3.24,12.79,5.32,-6.74,13
15.31,0.3,19.26,-58.25,405.32,58.74,1.58,-4.67,20.19,-0.63,0.24,-0.49,-4.83,15.62,4.14,-3.56,3.56,1.95,13
-17.26,-3.03,10.57,32.71,-182.18,-36.52,1.87,-4.64,20.64,0.68,-0.49,-0.39,-2.6,25.88,4.76,14.75,-2.64,7.86,13
39.07,-2.42,22.11,10.35,113.72,23.88,1.64,-4.71,20.41,2.39,-0.34,0.29,-3.67,19.04,4.65,-2.98,0.34,-5.71,13
-29.18,-2.55,11.13,59.33,54.64,43.55,1.84,-4.43,20.61,1.95,-0.15,0.05,-4.91,23.34,2.04,25.78,-0.24,15.09,13
28.44,-9.66,31.05,-22.22,-388.57,-71.73,1.72,-4.37,20.55,1.61,-1.07,-0.49,-4.06,17.14,3.65,-11.82,6.88,-11.33,13
-24.64,1.02,17.01,70.75,204.44,12.74,1.8,-4.42,20.65,-3.66,-0.59,0.2,-4.41,19.64,3.68,12.7,-6.35,5.81,13
1.32,-12.93,21.41,-64.26,-145.17,-29.15,2.02,-4.56,20.59,0.98,-2.69,-0.15,-4.32,19.24,3.75,0.83,-0.39,-2.78,13
-1.11,-8.75,20.49,-5.71,-12.7,-10.35,1.84,-4.47,20.58,0.15,-0.54,-0.73,-4.22,19.12,3.62,4.59,-3.47,-3.12,13
-0.51,-7.96,19.9,2.93,3.03,2.93,1.96,-4.26,20.65,1.32,-0.93,-0.34,-4.81,19.07,2.81,8.15,-4.54,-4.59,13
0.57,-6.35,20.4,20.56,-9.33,-1.37,2.01,-4.27,20.55,1.32,-1.32,0.24,-4.82,18.61,2.75,4.25,0.44,-5.71,13
0.93,-6.13,20.76,6.2,-4.35,-2.34,1.9,-4.12,20.65,3.22,-1.76,-0.39,-4.64,19.39,2.89,3.91,-1.37,-0.29,13
0.25,-5.89,20.36,8.84,-4.54,-4.35,2.02,-3.86,20.53,-1.03,0.63,1.32,-5.02,19.12,2.38,2.34,1.95,-1.32,13
0.41,-6.12,20.81,6.3,-0.98,-1.46,1.72,-4.08,20.45,-2.83,-0.78,-0.29,-5.04,18.9,2.28,1.12,1.95,-0.2,13
-14.15,-5.93,12.78,14.55,203.81,55.86,1.55,-9.94,16.8,56.93,11.18,-3.86,-5.58,21.4,1.17,8.01,7.23,-6.93,14
-17.56,-2.94,7.34,69.92,-262.01,-33.64,-0.27,-1.55,18.87,23.49,-22.46,-11.77,-4.27,16.78,5.08,-12.11,-1.42,4.39,14
38.72,-6.06,31.99,-78.22,87.7,15.19,3.8,-17.59,23.61,-148.29,-5.81,2.64,-4.93,19.29,2.88,15.58,-1.12,15.48,14
-32.15,-1.58,11.03,37.94,90.77,46.0,1.49,-5.22,17.83,39.6,-18.65,12.6,-3.94,23.51,2.26,-1.47,11.82,-27.64,14
12.07,-0.15,17.5,8.11,-412.4,-75.39,3.34,-3.34,24.05,-18.31,-11.62,-5.81,-6.18,15.4,1.91,5.47,5.66,5.91,14
-21.52,-11.26,10.91,-42.97,366.8,97.9,-3.62,-4.96,20.79,109.72,25.44,6.59,-2.72,26.5,5.14,14.36,2.83,1.42,14
-13.44,0.05,7.14,39.75,-358.84,-67.43,-0.01,-9.87,19.28,-30.08,-10.06,4.93,-4.5,16.19,3.88,-12.65,3.52,-0.29,14
10.88,-0.72,13.44,-87.84,421.29,71.97,2.85,-13.64,17.51,37.16,13.18,5.47,-5.73,22.82,1.32,16.36,-0.63,14.89,14
-19.63,-3.34,8.01,30.57,-204.93,-52.34,4.26,1.51,18.09,47.12,-32.57,-7.03,-5.38,15.88,3.51,-22.75,0.05,-14.06,14
32.95,-0.85,32.76,-1.51,257.52,51.37,6.49,-16.77,19.75,-92.09,-4.88,14.16,-5.56,15.42,3.1,9.77,-0.98,15.23,14
-25.32,-7.44,10.82,46.97,-96.73,2.83,1.09,-7.87,18.33,23.73,-8.2,-0.49,-3.77,19.63,3.46,-21.29,8.54,-28.42,14
39.07,-6.97,29.24,-5.81,-371.97,-57.08,5.69,-7.09,24.69,-17.53,17.77,-7.32,-6.07,15.35,1.59,3.52,5.62,12.79,14
-21.81,-9.95,19.92,-5.57,176.56,60.5,1.79,-0.99,21.64,37.26,-8.84,33.5,-3.04,21.34,4.12,-10.5,3.71,-18.75,14
-2.57,-6.86,20.51,-57.96,-71.04,-10.84,1.52,-6.24,20.73,4.54,-13.09,-3.96,-5.38,17.63,1.88,0.1,0.98,-4.54,14
-0.18,-6.85,21.33,-12.7,-21.92,-8.3,1.84,-5.72,20.27,1.71,1.76,0.24,-4.91,19.99,3.22,6.2,-4.98,-0.24,14
-0.84,-6.31,20.48,0.68,-1.81,1.66,1.78,-4.98,20.42,2.29,-0.49,0.29,-4.86,19.14,3.09,2.69,0.05,-2.54,14
-0.52,-6.02,20.64,4.69,-4.69,-1.27,1.68,-5.31,20.25,-0.1,-0.88,-0.68,-5.15,18.97,2.38,1.9,-0.59,-1.32,14
-0.22,-6.56,20.6,-0.68,-1.03,-0.1,1.78,-5.19,20.61,2.34,-0.98,-0.54,-4.99,18.97,2.95,1.37,-1.32,-0.1,14
0.1,-6.22,21.02,8.06,-4.49,-0.93,1.84,-5.22,20.54,1.17,-0.83,0.15,-4.88,19.25,2.83,2.39,-4.35,0.59,14
-0.14,-6.37,20.9,5.32,-2.88,0.34,1.72,-4.67,20.42,1.76,-0.39,-0.2,-4.95,19.36,2.88,2.59,2.49,-0.44,14
-18.2,-3.98,13.23,31.54,138.09,46.24,0.5,-7.69,21.29,-132.42,5.91,-13.28,-4.65,18.8,1.93,-3.56,0.54,-8.98,15
-7.3,1.33,5.76,78.42,-439.84,-63.67,0.08,-11.1,15.6,66.16,7.37,-1.22,-4.57,18.89,3.87,0.73,-1.42,-0.93,15
14.38,-9.46,10.38,-137.74,460.5,124.07,1.34,-1.05,18.86,29.64,-22.17,-4.1,-4.65,18.76,3.39,1.9,-0.88,-0.54,15
-19.81,-5.26,10.62,9.33,-149.07,-6.2,8.46,-15.65,18.91,-88.48,2.1,17.09,-4.78,18.96,3.0,1.95,0.93,0.63,15
38.94,0.97,29.12,-25.0,-220.02,-60.4,-0.44,-2.25,15.61,70.95,-15.14,17.68,-4.65,19.66,3.06,2.64,0.1,-0.1,15
-32.31,-8.48,9.35,83.5,121.09,66.75,3.22,2.9,22.93,-28.91,-5.91,-6.74,-4.63,18.65,3.11,0.83,-0.39,-0.83,15
11.03,1.77,15.03,10.45,-425.59,-67.97,-5.19,-5.57,20.91,137.5,34.08,12.79,-4.48,19.75,3.54,4.64,-0.78,1.07,15
-0.69,-5.97,6.53,-78.27,425.73,104.0,1.32,-10.67,19.4,-32.37,-11.18,8.45,-4.57,19.09,2.99,2.2,1.76,0.05,15
-14.13,-1.13,4.4,50.68,-330.71,-65.19,2.92,-16.08,16.7,36.87,19.43,7.62,-4.52,19.47,2.98,0.83,0.83,-0.93,15
20.06,0.23,20.46,-67.63,411.67,62.45,0.87,-5.33,15.8,43.95,-40.82,-12.89,-4.53,19.08,3.12,0.83,-0.59,-2.15,15
-18.23,-4.68,11.37,29.88,-72.71,-4.79,6.1,-19.23,22.89,-155.96,-2.0,8.25,-4.51,19.47,3.26,1.17,0.2,-1.07,15
26.92,-0.68,27.43,17.24,-332.96,-77.98,-4.92,-1.51,19.55,129.39,5.52,6.49,-4.65,19.25,3.14,1.71,0.24,-0.59,15
-8.31,-5.69,19.02,2.39,119.09,25.54,1.99,-8.12,21.63,-0.98,1.81,11.96,-4.63,19.32,3.22,2.49,-0.78,-1.17,15
-0.26,-5.85,20.07,19.43,-28.86,-0.54,0.56,-3.51,18.46,36.67,-6.98,8.59,-4.8,18.8,3.12,0.93,0.73,-0.34,15
0.85,-6.07,20.72,-13.77,12.06,2.88,2.08,-5.89,20.34,11.91,-8.94,-2.25,-4.68,19.28,3.02,2.64,0.59,-1.03,15
0.58,-5.76,20.51,4.39,-4.3,1.12,1.61,-5.97,19.92,3.37,-0.59,-0.39,-4.57,18.91,3.02,0.15,0.44,0.24,15
0.96,-6.03,20.87,10.99,-9.57,-2.05,2.07,-5.58,20.31,5.66,-2.54,-0.34,-4.66,19.06,3.34,1.9,-0.39,0.2,15
0.15,-6.17,20.66,-21.39,20.21,6.15,2.13,-4.85,20.46,3.91,1.03,0.44,-4.51,19.3,3.06,2.0,0.34,-1.61,15
0.86,-5.83,20.48,8.89,-10.45,-1.66,1.62,-5.93,20.02,3.03,-0.29,-0.88,-4.64,19.08,3.01,1.56,0.39,-0.59,15
0.19,-7.02,20.27,-1.76,-2.69,0.39,2.02,-5.36,20.42,-3.86,-0.54,-0.68,-4.53,19.15,3.01,2.59,0.59,-0.34,15
-19.27,-8.92,13.66,-46.0,281.69,60.99,2.03,-2.76,22.9,-142.48,-5.08,-5.22,-4.67,16.69,2.76,-5.42,3.52,5.27,16
-19.16,-4.8,6.93,38.77,-224.56,-3.42,1.16,-10.24,16.1,68.99,10.21,-3.47,-4.8,15.29,3.53,-3.17,0.78,9.77,16
38.78,-3.83,35.09,-57.91,187.7,27.78,1.58,-7.86,17.8,49.46,-12.99,-22.9,-1.61,24.82,4.87,16.45,10.06,-16.75,16
-33.92,-3.79,10.41,6.2,119.43,32.81,5.24,-16.98,19.26,-87.5,-3.32,17.77,-4.72,14.72,3.75,-10.69,2.49,2.83,16
2.58,1.18,11.51,57.52,-398.88,-77.93,1.22,-3.88,16.97,40.97,-18.12,12.16,-3.98,23.92,3.08,15.48,-3.76,13.23,16
-8.15,-7.2,9.32,-38.28,393.65,101.86,4.58,1.0,24.45,-30.52,-13.62,-5.76,-4.51,16.19,2.69,-21.24,5.52,-22.8,16
-16.22,-3.9,8.16,51.76,-248.1,-40.87,0.67,-8.96,17.39,105.71,27.98,9.72,-6.41,14.2,1.04,-0.63,-5.62,7.71,16
33.49,0.75,30.61,-34.96,246.78,44.78,0.58,-7.5,19.77,-24.85,-1.46,-12.84,-3.59,22.99,2.83,-6.64,9.13,-16.36,16
-18.42,-5.07,13.09,37.94,-63.87,-13.33,4.28,-15.22,17.76,-13.28,3.61,6.69,-5.37,15.27,2.0,0.98,3.42,6.45,16
37.84,-8.37,29.16,34.96,-281.2,-74.56,-3.72,-4.3,16.69,27.0,-3.96,-18.75,-2.41,24.79,5.62,16.31,-0.39,0.2,16
-32.8,-11.91,14.11,-39.6,306.49,72.02,7.02,-13.46,25.29,-196.09,-10.84,-20.17,-4.37,17.81,4.55,-2.3,-2.49,-4.1,16
-9.56,1.77,2.55,34.23,-480.42,-97.27,-2.52,-1.42,19.5,101.07,-11.77,11.96,-5.5,20.98,2.45,28.56,-0.73,21.34,16
8.51,0.71,13.13,-77.2,358.3,53.32,3.61,-6.02,21.88,-16.11,-1.46,28.66,-3.52,19.77,2.78,-3.47,6.2,-12.35,16
-10.45,-6.21,16.66,-13.18,10.74,-17.97,1.29,-9.47,18.6,2.93,12.16,6.05,-5.26,17.28,2.14,2.93,-3.22,-3.56,16
-3.89,-7.42,20.17,5.32,-1.71,-1.32,2.0,-5.98,20.15,8.79,-9.81,0.05,-4.9,18.51,2.99,-1.12,1.12,-1.07,16
0.03,-7.85,20.0,32.91,-30.57,-7.47,1.51,-3.84,18.65,20.36,-0.88,1.42,-4.29,19.61,3.29,1.03,-0.2,-0.78,16
-1.51,-7.11,20.69,-6.98,-1.07,2.49,2.22,-4.8,20.63,1.17,-0.59,1.07,-4.59,19.13,2.78,2.54,-0.34,-2.69,16
-1.74,-7.89,19.68,-4.59,-5.71,-0.68,1.67,-4.63,19.78,-1.22,-2.78,1.61,-4.4,19.3,3.44,2.49,-1.17,-0.83,16
-0.67,-7.75,20.2,0.34,-2.39,0.49,2.06,-5.24,20.4,-0.63,-1.37,0.29,-4.54,19.25,2.71,3.12,1.46,0.63,16
-1.27,-7.36,20.57,7.18,-10.11,0.59,2.25,-4.84,20.48,6.01,-3.08,-0.68,-4.46,19.06,2.72,0.54,0.78,-0.54,16
-3.67,-11.04,18.28,-17.29,180.32,54.35,2.19,-9.84,19.15,-95.31,3.86,-1.22,-4.15,20.14,3.28,0.59,4.64,-6.2,17
-17.89,-6.63,12.84,5.66,-23.54,16.55,2.15,-11.14,18.7,87.89,13.28,2.25,-4.17,16.61,6.12,-3.13,-2.1,0.88,17
19.02,2.07,24.25,11.72,-373.78,-79.69,1.6,-7.98,20.14,-38.72,-17.19,5.03,-4.55,21.07,2.82,22.9,-0.24,18.41,17
-11.45,-10.65,10.95,-15.48,392.48,121.97,4.11,-15.17,17.72,-28.81,23.93,2.69,-3.5,22.39,2.77,-3.32,10.4,-26.22,17
-13.13,-4.86,9.26,1.03,-210.89,-30.32,-1.02,-5.47,16.92,11.52,-6.64,-5.57,-5.38,14.39,2.8,-0.98,1.32,9.38,17
23.89,-3.95,28.7,-67.09,291.85,44.24,6.79,-4.97,27.5,-204.93,-11.72,-20.75,-2.39,26.6,5.34,17.68,3.56,-0.59,17
-21.75,-2.25,9.63,9.72,-116.7,-31.2,-2.53,-0.68,17.0,59.37,-11.23,15.33,-5.17,16.22,3.22,-11.33,4.54,-11.91,17
36.96,-3.62,21.69,93.85,-318.8,-40.87,-2.93,-5.15,16.51,8.06,-10.79,11.18,-5.62,20.62,2.55,30.47,-3.27,17.87,17
-37.52,-12.07,14.93,-8.59,320.75,74.61,1.96,-11.8,17.22,83.54,20.9,4.0,-4.88,18.19,3.27,-19.63,3.71,-19.78,17
-2.77,-1.59,10.17,21.68,-382.18,-87.4,3.47,5.06,17.83,26.56,-14.6,-13.67,-5.71,13.59,3.08,-6.84,-4.15,16.31,17
6.94,-7.42,6.3,-60.35,439.7,141.46,5.82,-17.5,18.18,-47.75,3.47,22.36,-2.57,22.07,4.09,-6.84,10.94,-25.39,17
-15.89,-2.02,6.17,3.12,-336.13,-65.43,-5.46,-4.39,13.6,50.54,5.66,-19.58,-5.3,14.15,2.44,-4.64,10.35,2.88,17
20.74,1.71,25.56,3.61,364.55,54.79,5.32,-15.29,24.75,-130.86,13.87,-10.69,-2.0,24.49,5.77,-1.76,2.78,-9.33,17
-12.05,-4.16,14.1,20.21,-67.68,-31.74,1.58,-5.19,18.47,68.46,-4.59,41.06,-4.89,17.78,2.96,3.56,6.15,-8.54,17
8.22,-9.18,20.83,-14.5,-48.68,-27.05,3.22,-7.11,21.35,4.93,-11.23,-1.27,-4.67,20.58,3.55,9.86,-9.77,-5.37,17
2.56,-5.66,21.48,16.65,-16.16,-4.0,1.98,-5.02,19.57,-16.11,2.93,1.22,-4.74,19.21,3.21,0.39,3.66,-2.34,17
-0.73,-9.38,19.88,-19.78,6.93,0.83,2.06,-6.21,19.98,-3.22,4.83,0.98,-4.92,19.15,3.26,1.95,-1.51,-3.52,17
-0.78,-8.37,19.71,0.78,-1.42,-0.24,1.66,-6.13,19.54,1.95,1.37,-0.88,-4.99,18.61,3.52,1.56,-0.15,-0.63,17
0.02,-8.69,20.11,1.37,-4.1,0.0,1.96,-5.99,20.07,3.71,-0.44,-0.15,-4.86,19.33,3.37,3.61,0.83,0.49,17
0.24,-7.1,20.62,5.37,-2.69,0.15,1.89,-5.85,20.08,-0.34,-0.15,-0.34,-4.78,19.3,3.24,1.07,0.39,-0.63,17
-10.44,2.4,15.05,77.64,228.81,56.54,3.22,-14.13,18.42,-74.51,1.66,6.01,-3.13,25.1,6.56,25.24,-4.0,13.13,18
-15.01,-1.43,9.11,28.47,-218.7,-43.6,0.87,-0.63,17.61,71.63,-29.3,-0.39,-5.58,12.69,1.98,-35.16,16.6,-39.6,18
38.59,-8.32,33.47,-62.94,287.79,43.7,5.24,-5.34,23.23,-12.01,-5.81,1.66,-6.72,13.37,1.85,12.16,-0.54,20.65,18
-25.71,-9.59,6.89,-17.87,0.39,-0.1,-0.52,-9.69,14.67,81.1,38.53,2.78,-2.65,29.67,3.55,17.28,9.62,-10.25,18
1.08,2.08,11.26,68.7,-350.93,-70.36,2.08,-8.22,15.11,32.32,-22.12,-7.08,-5.71,14.74,2.36,4.54,-7.18,1.56,18
-3.51,-10.71,13.87,-60.4,373.83,109.52,6.19,-17.27,23.58,-135.11,2.39,2.78,-5.94,21.99,3.16,23.73,-19.68,10.89,18
-14.27,-1.32,9.87,13.48,-213.38,-36.72,-0.79,-1.22,15.59,50.15,-21.39,15.23,-3.67,15.89,3.47,-27.44,-4.35,-34.18,18
39.06,-5.36,31.3,-13.97,45.36,19.43,3.0,-7.33,23.41,13.38,-14.99,6.3,-6.38,16.61,2.56,10.01,-8.15,31.59,18
-34.05,-12.74,8.73,-18.12,99.8,20.36,1.7,-12.69,14.1,70.41,24.61,6.74,-0.98,28.64,5.09,16.85,-6.98,-20.41,18
14.48,-6.89,19.75,51.81,-415.48,-107.91,4.3,-10.67,17.82,8.94,-32.57,-6.69,-4.81,12.71,4.03,-16.06,3.71,0.49,18
-13.41,-10.72,7.02,-135.69,432.62,125.73,6.95,-20.41,21.57,-116.46,5.13,20.12,-3.88,27.59,3.12,21.29,-3.37,11.47,18
-11.47,-0.61,5.11,62.74,-314.84,-69.78,1.33,-5.75,17.49,21.04,-12.45,-20.02,-4.26,15.05,4.75,-12.74,-0.29,-0.59,18
18.74,-0.41,20.97,-60.3,385.11,73.1,6.12,0.46,26.37,-136.04,-1.86,-25.0,-5.55,20.55,3.35,28.12,-6.88,25.54,18
-19.94,-2.24,5.98,50.63,-195.7,-57.76,-4.9,0.22,19.35,119.38,8.25,7.32,-4.44,18.38,2.58,-8.79,4.64,-10.45,18
23.6,-2.55,23.96,80.18,39.11,18.21,3.92,-9.0,25.01,4.69,-6.49,7.91,-5.03,18.31,3.12,0.78,1.12,-4.74,18
4.55,-15.38,19.94,-78.52,8.15,-6.98,3.46,-8.78,19.42,-10.35,3.27,6.01,-5.09,18.8,3.37,3.91,-0.15,3.13,18
1.64,-7.97,19.38,-6.64,12.84,6.79,2.23,-8.42,18.72,-4.35,5.32,2.49,-4.75,19.28,3.41,-0.59,2.25,-0.15,18
0.09,-9.32,19.1,-1.9,3.52,2.29,2.52,-9.53,19.18,4.54,0.54,-0.68,-4.98,18.88,2.79,2.34,1.76,1.37,18
0.26,-9.02,19.93,-8.79,11.82,7.81,2.72,-9.66,19.67,-0.34,1.22,1.32,-4.7,19.39,3.35,2.2,0.29,1.03,18
0.14,-8.17,19.63,-0.15,-3.12,-0.05,1.7,-8.27,19.09,7.62,-0.39,-1.46,-4.82,18.89,2.97,0.54,1.03,-0.49,18
4.15,-8.99,17.58,-98.05,199.61,38.43,3.43,-5.2,21.29,-101.56,2.78,2.34,-3.27,20.55,2.51,-3.91,3.03,-4.98,19
-21.17,-5.1,11.72,53.27,-44.58,31.05,1.08,-6.9,20.72,119.68,21.39,7.96,-4.61,16.17,4.41,-18.16,3.61,-11.91,19
39.07,-3.75,30.78,39.6,-310.89,-61.91,2.56,-8.0,22.97,-20.51,-2.98,10.45,-4.84,15.69,2.63,10.94,-1.66,23.34,19
-16.25,-4.09,12.15,-5.96,328.76,56.05,2.37,-13.15,17.89,-15.04,19.19,10.84,-3.77,24.48,0.24,-1.07,17.97,-28.32,19
-14.02,0.67,5.37,82.57,-327.1,-54.74,-4.23,0.14,14.7,31.64,-5.66,-12.4,-4.69,15.74,2.43,7.28,1.76,17.29,19
12.44,0.07,19.64,-101.9,371.92,43.51,5.75,-2.21,25.81,-102.93,-7.76,-19.53,-2.19,26.63,3.37,12.6,-0.78,5.42,19
-15.17,-0.88,10.61,62.3,-130.03,-24.66,-1.09,-0.38,17.06,54.2,-13.62,6.54,-4.98,15.63,2.54,-10.74,2.1,-8.89,19
39.07,2.7,22.69,30.66,-60.99,-2.98,1.69,-8.98,15.97,1.17,-2.25,10.16,-4.29,19.3,3.37,21.53,-11.62,23.58,19
-35.75,-14.18,14.69,-23.58,199.8,62.35,-0.26,-9.68,17.09,93.6,26.56,10.94,-3.21,21.04,3.05,-11.18,4.3,-29.88,19
5.16,-3.68,15.93,6.49,-341.5,-69.68,2.8,-1.35,21.17,18.6,-21.97,-12.45,-5.2,16.71,0.93,3.61,-0.68,13.57,19
-1.86,-6.84,5.76,-116.65,402.88,128.96,4.42,-14.25,20.55,-105.13,-0.05,16.06,-1.53,23.76,5.03,-5.42,2.69,-24.22,19
-15.59,-2.6,6.35,29.78,-280.08,-44.73,1.16,-7.2,19.46,7.76,-15.43,-0.34,-4.92,15.7,3.19,-0.54,4.59,10.4,19
30.42,-0.75,30.39,-24.17,208.3,44.68,4.81,-4.13,23.79,-6.15,-6.1,-3.12,-4.54,24.26,2.47,12.3,7.28,9.42,19
-16.49,-4.65,14.5,14.06,9.91,0.83,-2.17,-5.92,17.72,64.26,7.03,19.87,-4.44,16.64,3.33,-2.98,5.76,-10.25,19
11.44,-8.3,21.16,39.45,-97.9,-41.75,1.71,-4.47,21.18,6.35,-7.32,-3.12,-5.19,18.19,1.71,11.62,-6.1,12.21,19
2.45,-6.8,21.28,10.89,-30.57,-6.59,3.52,-4.45,21.12,8.06,-4.54,-2.69,-4.01,19.74,2.88,0.29,-1.37,1.81,19
1.13,-6.36,20.24,3.03,0.49,3.47,1.79,-4.02,19.8,6.35,0.59,0.05,-4.27,18.75,2.44,-0.44,-0.15,-2.29,19
1.73,-4.86,20.13,9.08,-8.74,-2.73,2.63,-4.44,20.71,8.2,-5.47,-0.54,-4.28,18.96,2.56,2.34,-1.95,4.74,19
4.81,-2.54,21.6,-5.91,9.23,2.88,3.03,-4.74,21.17,-10.21,1.46,1.03,-3.83,20.49,2.86,3.32,0.54,-0.34,19
2.22,-3.97,20.2,2.93,-2.49,1.9,2.12,-3.91,20.09,1.76,-2.15,-0.49,-4.27,18.44,2.34,0.63,0.24,0.34,19
3.37,-4.22,20.83,6.1,0.29,-0.29,2.82,-3.03,20.46,-37.94,21.19,-5.71,-4.45,19.41,2.89,-4.69,1.32,-5.76,20
9.67,-11.43,20.57,-53.17,221.48,68.26,3.29,-14.73,18.65,-65.87,6.74,1.17,-4.93,19.64,1.91,-15.92,14.26,-20.31,20
-17.2,-2.83,10.27,33.4,-160.06,-0.34,0.87,-5.33,17.69,23.73,-18.95,-0.05,-5.54,16.24,2.79,6.64,9.77,29.59,20
39.07,-3.32,28.5,-19.09,-100.88,-4.54,6.34,3.22,24.69,-60.16,-1.95,-17.58,-1.08,25.3,5.88,4.44,4.88,-7.96,20
-36.32,-0.18,9.85,16.21,230.71,40.19,-3.65,-5.31,20.87,129.88,42.87,15.23,-4.78,13.69,3.26,-6.2,0.54,-3.52,20
-0.46,0.24,9.33,45.56,-419.53,-86.18,-1.42,-13.17,20.89,-35.94,-2.59,-2.34,-4.06,24.62,2.33,31.15,-8.15,17.48,20
4.55,-4.37,8.05,-121.19,410.69,93.7,3.26,-13.95,18.03,-6.54,4.69,6.69,-4.0,17.47,3.06,-25.24,3.96,-26.66,20
-15.18,-0.32,7.21,49.95,-252.73,-35.94,1.34,-1.66,18.03,44.48,-24.95,-11.87,-6.02,13.82,1.36,1.86,-6.25,10.74,20
22.73,0.37,27.3,-34.57,307.67,43.8,5.38,-14.22,23.38,-135.79,-1.56,4.74,-3.83,21.68,2.84,-17.58,13.92,-22.46,20
-20.42,-3.89,7.92,51.37,-152.49,-37.84,-2.14,-6.19,13.99,23.53,-10.11,-18.21,-6.32,14.75,0.08,3.61,7.08,14.55,20
39.07,0.97,26.71,45.8,-138.48,-20.95,5.45,6.72,22.45,-40.19,-9.23,-15.38,-1.87,26.3,5.69,12.11,-1.81,3.81,20
-38.36,-8.16,9.76,-17.38,285.55,56.01,0.65,-8.91,16.53,118.26,15.28,12.89,-3.6,15.71,5.46,-3.08,-8.5,3.13,20
2.41,1.24,9.91,15.92,-405.96,-82.18,0.44,-12.87,22.94,-37.01,5.81,-0.24,-4.07,23.68,3.7,26.07,-2.98,11.08,20
-3.74,-8.4,17.1,-41.26,235.3,77.0,1.01,-10.24,19.46,15.09,10.11,20.17,-3.62,19.15,3.45,-4.0,7.47,-21.44,20
-5.1,-7.64,15.26,-1.32,-71.58,-14.7,1.55,-3.77,19.61,35.69,-9.96,4.15,-5.1,18.15,2.37,7.47,-1.32,0.44,20
1.49,-1.61,21.34,10.25,-9.28,0.0,2.66,-3.19,20.37,2.49,-5.18,-2.1,-4.42,19.86,2.63,2.83,-4.39,1.76,20
1.36,-5.17,21.29,6.84,1.51,0.44,2.37,-5.17,20.55,-5.32,-1.9,0.2,-4.51,18.89,3.01,-0.83,-1.37,-1.32,20
0.13,-6.48,19.95,12.5,-9.77,0.39,2.3,-4.17,20.13,3.66,-1.66,0.44,-4.56,19.2,2.93,3.71,-0.15,2.2,20
0.6,-6.92,20.82,2.39,-3.81,0.49,2.77,-3.94,20.68,6.64,-0.98,1.86,-4.49,19.41,2.56,3.22,1.46,-1.61,20
0.9,-5.3,20.66,8.2,-4.39,1.32,2.48,-3.63,20.32,0.63,-2.83,-0.78,-4.43,19.26,2.6,2.69,-1.17,1.37,20
3.1,-5.11,21.32,6.84,3.71,-1.71,1.82,-3.84,20.03,-63.97,28.17,-5.91,-4.4,18.98,2.6,3.08,1.95,-0.15,21
0.25,-14.49,20.6,-34.91,216.16,77.59,3.89,-13.07,18.19,-69.97,10.3,-1.56,-4.13,19.47,2.75,-1.03,-1.86,-6.79,21
-18.94,-0.6,11.16,-7.76,-117.63,-16.26,1.32,-1.79,17.56,80.47,-18.7,9.03,-5.48,17.66,1.9,-12.65,1.95,-10.55,21
39.07,-4.32,23.89,7.37,-165.53,-20.56,4.11,-1.88,23.87,-13.18,-2.0,-6.93,-5.19,15.22,2.74,-0.1,0.39,23.44,21
-23.91,-6.84,14.07,60.25,248.19,59.52,0.76,-8.63,15.71,100.93,33.35,21.97,-3.17,25.17,1.29,8.89,16.6,-26.32,21
-7.57,0.78,5.87,54.49,-378.17,-97.61,3.87,2.73,23.0,13.87,-17.68,-17.87,-5.14,14.42,3.03,-0.2,1.46,3.76,21
9.86,-1.23,10.75,-106.59,446.34,90.28,5.72,-15.67,20.75,-82.03,2.64,5.57,-3.22,23.71,4.09,7.47,0.73,9.47,21
-14.56,-2.31,7.99,49.56,-216.02,-29.88,-1.94,-6.07,18.52,26.76,-3.03,-21.97,-4.92,15.05,3.82,-12.11,-3.71,-8.89,21
39.07,2.17,26.52,77.05,-90.38,-9.86,5.02,-2.22,24.41,-27.05,-12.79,-6.88,-4.75,17.99,3.36,18.36,-8.69,29.2,21
-31.53,-5.26,11.69,17.97,212.94,25.54,-1.92,-5.86,19.4,129.93,27.2,11.77,-3.45,23.39,2.01,-10.25,12.3,-33.64,21
10.24,-8.65,15.88,-1.66,-420.26,-81.64,-0.97,-13.59,23.06,-52.83,8.25,9.62,-5.84,15.04,0.56,7.03,7.62,8.98,21
-4.0,-3.32,0.74,-117.68,436.08,112.26,3.65,-14.65,16.94,2.34,8.94,14.06,-1.57,26.72,5.49,10.74,-0.49,3.22,21
-16.39,-2.15,4.73,45.51,-338.53,-67.82,-1.93,-3.91,16.17,38.23,-28.96,-11.87,-3.16,13.51,6.13,-13.77,1.46,-7.42,21
18.93,1.28,27.01,-12.4,213.18,36.96,3.62,-8.64,21.98,-15.58,1.37,9.42,-4.16,24.2,3.06,34.23,0.15,17.09,21
-1.47,-10.04,17.84,-20.17,-20.95,-13.82,1.36,-6.72,19.54,11.82,-10.94,4.54,-4.11,17.56,2.25,-8.11,4.79,-12.11,21
1.59,-6.75,20.36,30.03,-30.42,-6.49,2.43,-5.33,20.1,3.56,-5.37,-0.93,-4.42,18.94,3.16,3.71,-3.71,4.79,21
1.14,-7.0,20.56,5.03,-2.2,0.73,2.82,-4.86,20.3,5.62,-0.73,-1.17,-4.21,19.46,2.94,3.91,-1.27,1.71,21
1.35,-5.82,20.82,5.71,0.1,1.22,2.57,-5.08,20.26,1.07,2.34,-0.49,-4.22,19.37,2.4,0.05,-0.15,-0.24,21
1.01,-6.44,20.26,2.73,0.49,0.39,2.2,-5.23,20.07,3.42,-0.49,-0.2,-4.29,18.84,2.9,0.93,0.2,-0.73,21
1.48,-6.04,20.56,6.2,-7.23,-0.05,2.51,-4.73,20.27,3.76,-0.39,0.39,-4.16,18.97,3.1,2.1,1.42,0.49,21
-2.56,-3.37,18.57,23.44,212.55,17.09,-2.98,-9.46,18.19,40.87,-7.03,12.45,-6.64,15.51,4.04,-22.27,1.32,-5.81,22
-19.32,-4.01,7.34,44.48,-298.83,10.69,1.56,-8.86,20.78,-9.52,-16.5,-9.91,-6.46,21.05,4.44,22.75,-14.16,24.46,22
19.17,0.58,26.94,-44.24,271.0,-11.67,-0.92,-14.46,18.46,-71.48,45.12,-0.88,-5.91,20.78,1.84,-20.9,19.82,-42.58,22
-21.97,-5.9,8.54,8.98,-6.54,11.04,-5.83,-9.09,14.46,21.48,-6.98,-9.67,-9.26,13.56,0.72,2.78,-5.42,11.82,22
20.08,1.76,21.62,39.94,-325.29,1.46,3.22,-10.25,22.8,-11.72,-2.64,-2.73,-4.15,26.14,4.68,4.88,7.81,3.27,22
-11.57,-7.0,8.68,-76.22,379.3,30.52,-2.86,-8.69,16.87,29.88,-6.2,9.96,-7.73,15.71,1.49,-10.64,1.95,-3.86,22
-7.72,1.08,6.24,34.62,-415.28,-11.28,-1.16,-13.11,19.37,-21.0,3.56,-4.59,-7.84,25.9,3.59,26.17,-4.93,26.95,22
8.8,-1.98,11.04,-63.04,439.01,11.72,-4.96,-12.25,15.3,53.08,9.86,24.51,-7.19,11.3,2.47,-25.88,7.76,-33.54,22
-28.43,-2.58,3.15,38.38,-310.55,-22.66,0.61,-8.26,18.79,15.92,-17.87,-18.99,-8.13,20.81,2.78,22.95,-12.79,53.13,22
16.94,-0.42,30.47,-16.46,338.72,5.52,0.38,-17.15,18.02,9.57,11.23,27.49,-4.88,16.6,4.32,-33.69,18.65,-55.18,22
-19.23,0.03,4.57,22.66,-117.63,-5.52,-4.38,-6.85,17.74,63.18,-25.93,18.21,-9.21,14.53,2.86,7.37,1.46,5.47,22
34.5,-1.1,23.62,4.05,-36.33,6.74,-0.16,-10.53,18.64,9.62,9.28,1.46,-6.66,19.18,2.46,-7.96,8.64,-23.34,22
-0.71,-8.43,19.62,-18.85,-10.25,-4.98,-2.73,-13.12,19.18,-50.2,-4.49,0.05,-8.01,18.79,2.1,6.59,-2.54,2.93,22
-6.29,-3.55,19.73,-22.46,24.61,-3.17,-1.53,-10.46,18.26,5.81,-1.51,-0.88,-7.75,17.98,3.12,2.49,-1.76,1.12,22
-1.68,-3.69,21.07,16.99,-10.99,1.07,-1.06,-10.24,18.95,3.27,-3.27,1.03,-7.36,18.83,2.54,2.15,-0.34,-1.95,22
-2.59,-5.22,20.64,-0.98,-7.71,0.83,-0.94,-10.21,18.98,4.54,-1.86,-0.39,-8.0,18.19,3.24,-0.2,-5.62,-4.2,22
-1.49,-5.31,21.27,-5.71,-3.47,-1.42,-1.27,-10.29,18.63,-1.66,-0.73,0.29,-8.04,18.52,3.06,4.3,2.25,3.22,22
-2.26,-5.06,20.68,-6.45,-0.24,0.49,-1.07,-9.81,18.93,0.2,-1.46,0.2,-7.8,18.53,2.65,1.12,2.0,1.12,22
-1.41,-4.26,21.22,6.3,-4.35,1.12,-1.01,-10.15,18.8,1.03,0.44,-0.44,-7.86,18.25,2.64,1.22,0.93,-0.63,22
-1.44,-4.73,21.21,4.05,-2.25,0.24,-1.35,-9.93,18.58,-0.44,0.68,0.68,-7.85,18.68,3.0,2.2,2.44,-1.03,22
-16.73,1.44,8.32,-25.44,-307.71,7.57,-1.58,-10.08,18.77,37.65,-14.6,5.91,-7.58,18.34,3.61,1.61,0.15,0.73,23
20.56,-3.28,28.87,6.74,212.21,-3.27,0.92,-11.61,20.26,-6.79,-3.03,-8.25,-7.49,18.34,3.56,1.27,2.1,-1.03,23
-29.73,-4.0,10.33,-32.23,83.54,-0.83,-0.46,-13.52,16.93,-34.28,18.6,14.16,-7.39,18.83,3.15,1.51,1.03,0.78,23
16.57,-2.53,18.41,-23.73,-415.04,-20.61,-7.16,-10.16,13.07,35.89,-4.1,-7.47,-7.41,18.52,3.66,0.49,0.63,-1.03,23
-15.52,-9.71,13.55,11.96,361.72,57.13,3.75,-12.58,22.95,-35.6,-1.86,-6.59,-7.57,18.28,3.09,1.71,1.56,-1.42,23
-16.16,0.57,8.18,-25.83,-326.37,2.59,-3.1,-9.88,17.68,13.62,1.12,8.74,-7.45,18.86,3.6,2.2,0.68,-1.03,23
14.68,-2.92,16.62,4.49,414.65,3.13,-1.83,-11.24,19.71,-5.76,-3.81,-8.59,-7.58,18.12,3.42,0.63,1.17,-1.46,23
-14.62,-2.74,7.48,-0.88,-182.57,10.6,-6.35,-7.22,16.67,62.06,8.5,14.75,-7.57,18.53,3.38,2.0,2.34,0.05,23
32.67,-5.1,30.19,-7.03,171.24,-16.99,-2.45,-8.95,18.76,9.37,-12.4,-13.13,-7.43,18.91,3.02,1.76,1.51,0.68,23
-25.43,0.68,10.14,17.58,-38.62,19.63,-0.64,-16.99,19.02,-24.32,11.67,15.19,-7.38,18.58,3.66,1.37,0.54,-1.07,23
22.4,-10.03,24.66,-35.06,-424.61,-28.22,-8.56,-6.86,6.54,42.24,-8.69,-4.79,-7.56,18.17,3.36,2.15,1.07,-0.49,23
-39.19,-2.09,12.11,66.21,345.46,12.16,3.72,-17.43,23.86,-88.04,20.07,1.37,-7.33,18.92,3.33,1.22,1.66,-0.59,23
-6.48,-0.97,16.68,-33.4,-230.91,0.44,-4.37,-9.94,16.14,27.88,-12.99,22.85,-7.46,18.47,3.52,2.0,0.83,-0.29,23
-6.29,-5.01,20.96,-45.02,23.24,-0.78,-1.98,-14.01,20.28,-31.88,-6.3,-1.81,-7.47,18.16,3.19,1.56,1.37,0.2,23
-2.11,-4.4,23.29,-4.49,24.8,1.17,-2.74,-9.67,17.71,-14.16,5.62,4.15,-7.23,18.86,3.3,0.59,1.61,-0.05,23
-6.64,-1.33,19.97,22.7,10.45,4.3,-1.89,-5.9,15.68,15.87,7.91,7.23,-7.48,18.52,3.25,1.46,0.83,-0.68,23
-5.57,-3.46,21.1,-20.9,19.48,-1.56,-2.17,-12.05,18.8,-11.87,-0.63,0.44,-7.32,18.53,3.62,0.39,1.42,-0.1,23
-4.08,-3.93,20.79,12.79,-10.69,3.61,-2.08,-10.4,18.55,6.54,-1.42,0.29,-7.36,18.44,3.24,1.27,0.68,0.49,23
-4.32,-5.54,20.79,4.54,-7.08,2.25,-1.77,-10.73,18.78,5.27,-1.27,0.29,-7.31,18.59,3.42,1.17,2.39,-1.37,23
-3.94,-4.7,21.22,6.98,-8.2,1.27,-1.6,-10.0,19.03,6.88,-1.27,0.39,-7.25,18.62,3.38,1.46,0.78,0.63,23
1.17,-4.23,19.42,30.62,172.9,7.96,-2.56,-10.21,17.3,55.27,-1.95,6.4,-6.2,15.77,4.88,14.89,-7.13,18.12,24
-16.97,-3.25,13.85,43.07,-90.28,31.84,0.35,-8.64,18.79,21.34,-25.49,-0.68,-5.33,21.33,2.39,-4.44,13.72,-22.66,24
21.43,-6.41,21.43,-69.82,-378.32,-48.49,1.04,-13.64,20.52,-55.76,22.75,-0.63,-7.16,16.47,3.61,5.76,1.66,5.42,24
-4.55,-12.36,12.08,0.54,374.41,59.62,-2.96,-10.23,16.24,10.5,1.07,-2.69,-4.85,26.2,5.53,8.11,-2.59,10.79,24
-16.42,-1.6,10.97,-4.15,-196.14,3.96,1.98,-7.59,22.41,-28.03,-6.05,-5.62,-7.11,17.05,3.22,7.71,5.66,0.1,24
13.29,-8.0,25.58,-38.53,336.52,24.95,-2.74,-10.39,17.37,6.69,-7.08,9.33,-6.56,25.5,3.47,32.81,-9.23,37.16,24
-17.77,3.24,9.15,20.85,-212.7,-1.71,-0.75,-11.93,19.11,-11.67,-2.44,-11.52,-5.94,15.23,3.06,-21.78,4.25,-32.28,24
39.07,-6.71,30.83,12.35,75.93,-7.57,-4.77,-8.23,15.79,78.17,15.23,15.48,-8.09,10.49,4.5,-5.66,-8.64,29.98,24
-27.11,-4.56,9.86,18.21,-4.35,22.85,-1.76,-4.82,17.86,26.46,-12.74,-16.16,-5.02,20.56,2.82,-10.55,14.99,-39.26,24
37.65,-5.75,29.11,-17.38,-322.31,-30.47,1.18,-18.5,17.7,-42.58,18.07,15.58,-8.12,16.28,1.72,5.62,2.44,4.74,24
-28.1,-11.31,12.42,81.05,324.66,23.49,-5.36,-11.56,16.08,18.7,1.51,-3.76,-3.12,28.8,6.97,23.34,-1.12,2.98,24
-23.27,-1.08,5.67,-19.34,-303.66,1.27,2.63,-13.31,22.54,-36.82,2.15,2.44,-7.42,16.31,1.26,1.95,4.1,-1.81,24
9.71,-4.72,20.13,-1.37,385.99,33.45,-4.7,-8.22,16.51,7.62,-5.32,-0.83,-6.26,19.77,4.74,8.84,-5.81,12.4,24
-12.46,1.19,13.81,3.03,-61.91,-10.64,-0.17,-9.02,16.96,8.11,-19.19,-6.15,-6.06,18.72,3.78,2.34,4.05,-3.17,24
1.08,-3.84,22.02,-33.74,-25.34,-2.93,-0.94,-10.63,18.76,2.1,-0.73,3.32,-6.26,18.43,2.94,1.66,-0.05,0.44,24
-1.93,-8.55,21.56,2.83,-21.53,1.51,-1.53,-10.13,18.49,-2.59,-1.71,0.0,-6.12,19.08,4.02,0.63,0.24,-1.07,24
-3.18,-5.17,20.38,-1.03,0.15,1.07,-1.16,-11.01,18.55,4.64,-1.76,1.17,-6.22,19.24,3.35,2.73,0.24,3.17,24
-2.98,-6.23,21.14,4.25,-6.45,1.76,-1.31,-10.92,19.2,-0.1,-1.71,0.15,-6.14,18.44,3.3,-0.44,1.46,-1.66,24
-2.62,-4.23,20.59,15.33,-8.4,1.37,-1.04,-10.34,18.73,-0.68,-1.51,0.68,-6.11,19.29,3.73,2.29,1.37,-1.32,24
-1.96,-5.97,20.9,-12.01,3.66,0.63,-1.12,-10.59,18.66,-1.27,0.68,0.78,-6.31,18.7,3.16,1.81,0.0,0.44,24
-19.35,0.56,15.19,29.88,180.91,7.76,-1.48,-10.95,18.52,-0.44,0.39,-0.39,-6.54,17.74,2.24,-10.94,6.25,-10.11,25
-19.3,1.43,8.81,8.69,-198.24,2.83,-1.4,-10.44,18.69,2.59,-0.98,0.29,-7.05,16.96,3.04,3.52,0.29,14.79,25
34.2,-6.27,31.87,-22.07,199.66,3.03,-1.67,-10.3,18.54,1.27,-0.15,-0.05,-3.39,24.58,6.79,-7.62,8.2,-18.16,25
-26.17,2.53,10.24,33.45,60.45,16.94,-1.34,-10.67,18.87,-0.63,-2.25,-1.22,-7.45,14.34,2.23,2.44,2.88,-2.78,25
10.98,-5.7,18.45,-35.35,-412.45,-32.76,-1.59,-10.36,18.54,-0.0,-0.05,0.44,-7.43,20.24,3.4,21.63,-7.28,40.43,25
-7.38,-10.64,7.57,49.85,366.36,33.45,-1.28,-10.37,18.82,2.25,-1.71,-0.83,-5.63,19.52,2.97,-7.28,11.38,-24.07,25
-15.26,-0.87,9.95,-63.57,-271.83,-8.54,-1.47,-10.65,18.54,-1.03,-0.54,-0.24,-7.76,13.81,2.57,-0.0,-6.25,7.23,25
6.33,-7.07,18.8,-10.5,393.9,60.21,-1.52,-10.3,18.6,0.98,-0.83,0.15,-4.09,23.29,3.98,-6.49,9.81,-31.88,25
-20.62,-0.68,7.21,-20.41,-162.21,-3.22,-1.48,-10.17,18.69,-1.22,-0.49,0.05,-8.0,16.36,1.91,9.03,-2.73,6.1,25
38.93,-7.73,30.29,-7.18,127.0,3.91,-1.52,-10.38,18.61,0.1,-0.44,-0.78,-4.2,27.58,5.46,15.23,-4.0,18.75,25
-28.84,-0.96,9.52,59.03,14.36,32.18,-1.55,-10.35,18.58,1.37,-1.03,0.24,-7.12,17.36,2.62,0.29,6.45,-1.66,25
23.11,-10.87,26.88,-34.03,-390.58,-42.19,-1.3,-10.09,19.04,2.64,-1.51,0.59,-6.41,27.69,3.82,22.56,-0.49,29.54,25
-25.24,3.6,16.72,137.11,98.93,29.79,-1.48,-10.17,18.48,0.24,-1.17,-0.44,-7.37,14.98,3.5,0.68,12.55,-3.81,25
1.03,-1.33,21.55,-58.59,-33.59,-27.83,-1.34,-9.93,18.87,-0.44,-0.83,0.39,-6.6,19.62,4.2,7.13,-7.67,12.94,25
-3.36,-6.68,20.89,-37.5,-17.92,-8.3,-1.41,-10.09,18.81,-2.25,-1.27,0.1,-6.47,18.86,3.64,0.24,1.22,-0.29,25
-2.06,-4.2,21.63,3.08,2.2,2.88,-1.34,-10.01,18.68,-0.68,-0.49,0.44,-6.09,18.62,3.82,0.88,-2.64,-2.59,25
-2.37,-5.16,21.04,-1.22,0.34,0.88,-1.41,-10.05,18.64,-0.93,-1.17,0.44,-6.48,18.93,3.74,2.69,-0.73,-1.86,25
-2.66,-4.98,20.81,2.69,0.29,0.59,-1.28,-10.02,18.97,-0.1,-1.07,-0.54,-6.53,18.62,3.49,2.29,-1.42,-1.32,25
-2.41,-5.05,21.04,-2.44,0.39,-0.2,-1.36,-10.27,18.77,1.71,-0.93,0.0,-6.64,18.59,3.58,1.32,0.83,-1.66,25
-2.82,-5.12,20.56,2.93,-3.71,1.46,-1.21,-9.97,18.93,0.54,-0.2,0.68,-6.52,18.93,3.64,2.88,0.39,-0.54,25
-16.67,6.72,11.58,-21.88,246.88,-42.92,-1.6,-12.74,17.45,-23.68,11.43,-1.17,-5.72,18.3,2.44,-20.02,5.37,-18.26,26
-20.42,0.4,7.73,22.31,-330.81,15.14,-3.88,-13.31,16.2,22.22,-5.62,-3.96,-7.5,16.09,3.54,0.24,-0.15,12.26,26
22.85,-6.81,31.03,-19.82,281.88,14.99,3.03,-10.93,21.36,-12.94,-1.42,-2.25,-3.5,26.27,5.26,-9.62,4.64,-21.58,26
-21.13,1.99,11.76,-8.3,28.76,0.05,-4.12,-10.09,15.17,53.95,5.62,14.11,-7.26,12.53,2.67,-13.97,2.25,-17.92,26
10.5,-2.72,22.04,-17.77,-361.96,-12.84,-4.12,-6.63,15.86,32.32,-10.06,-10.84,-7.91,16.5,3.07,9.13,-7.81,36.91,26
-31.4,-1.78,12.32,86.72,338.33,-12.35,-0.05,-18.9,18.28,-21.24,20.75,8.15,-5.45,19.65,3.45,-5.57,6.35,-31.84,26
-12.08,-0.76,6.02,-40.09,-361.52,-17.24,-4.66,-10.53,13.32,33.45,-13.43,-7.37,-7.82,15.07,2.32,4.2,-6.49,10.6,26
13.34,-5.54,19.03,-9.81,391.8,45.36,3.94,-9.93,22.19,-38.13,1.66,-2.0,-3.62,24.43,5.69,-4.44,11.23,-20.46,26
-20.11,0.74,7.24,-23.58,-131.01,-9.86,-2.17,-9.92,16.31,8.45,-16.06,8.5,-7.99,15.68,1.86,8.25,2.83,8.45,26
39.07,-7.73,27.36,-5.96,-14.75,-19.92,-1.19,-13.57,18.84,-1.66,-7.47,-10.35,-5.16,25.99,5.56,21.04,-8.84,23.97,26
-38.37,-1.95,11.06,86.03,194.09,41.75,-3.4,-12.77,15.19,68.21,11.43,13.04,-6.0,15.34,3.07,-23.0,3.96,-32.28,26
-1.02,-1.63,8.15,-59.72,-451.86,-14.84,-2.93,-20.42,15.56,31.98,-35.79,-4.98,-8.07,13.44,3.49,-4.15,-8.06,24.71,26
-1.7,-6.9,15.13,6.84,227.44,45.95,-0.05,-13.31,18.77,3.76,9.77,6.79,-6.05,19.73,3.63,7.52,10.79,-12.21,26
-0.47,-6.64,20.13,-51.03,-19.58,-2.69,-2.32,-10.26,18.08,-8.35,0.1,-1.37,-7.05,17.33,2.96,5.81,-3.71,-0.54,26
-2.84,-7.74,20.77,-9.47,-11.96,-3.76,-1.11,-11.38,18.59,-0.88,-2.98,0.93,-6.58,18.95,4.51,1.66,0.05,1.76,26
-2.45,-6.88,20.66,2.49,-0.83,3.27,-1.51,-10.0,18.44,0.93,0.15,1.46,-6.69,18.65,3.05,1.81,1.22,-0.88,26
-2.4,-6.46,20.81,-3.27,2.54,-0.73,-1.28,-11.37,18.59,0.88,0.1,-1.03,-6.48,19.18,3.94,0.44,-0.1,-0.98,26
-2.59,-6.64,20.21,-2.44,-0.63,2.73,-1.78,-10.7,18.06,3.42,0.15,0.78,-6.86,18.45,3.63,2.1,1.03,-2.69,26
-2.71,-6.25,20.47,2.0,-4.49,-0.39,-1.09,-10.56,18.89,0.78,-2.64,-0.93,-6.53,19.03,3.57,1.12,0.73,2.44,26
-2.03,-6.19,20.85,-1.81,-0.44,0.2,-1.45,-11.1,18.41,0.44,-0.24,-0.2,-6.44,18.79,3.77,1.66,0.59,-0.78,26
-13.65,2.87,14.92,148.58,113.09,23.24,-1.68,-14.03,17.0,26.42,-2.59,9.13,-7.18,20.74,2.66,2.1,14.4,-2.93,27
-17.28,-2.04,11.13,-22.46,-191.5,-0.59,-3.46,-11.51,15.36,38.62,-18.55,0.83,-6.96,18.15,3.75,7.08,1.22,14.36,27
33.11,-7.34,33.65,-27.88,163.04,2.49,5.07,-11.81,24.05,-86.43,10.45,-9.47,-3.93,28.31,4.51,19.53,-1.22,10.3,27
-26.42,3.38,10.45,46.73,93.55,4.39,-3.63,-9.38,16.76,17.43,-8.15,18.31,-6.67,14.39,2.85,-7.18,2.59,-25.88,27
1.63,-4.31,12.03,-45.75,-417.09,-30.37,-2.41,-11.07,18.11,-11.82,-7.81,-12.11,-7.56,12.39,4.92,-6.1,-8.35,25.39,27
4.1,-7.44,12.14,-26.9,395.12,60.99,-1.06,-15.66,17.27,10.89,16.21,10.4,-3.6,22.5,4.94,-13.48,12.5,-21.97,27
-22.66,1.72,6.91,-5.91,-219.48,-15.28,-4.01,-12.83,14.38,-1.47,-34.52,1.27,-7.88,15.98,1.86,4.44,3.81,1.32,27
26.21,-5.57,32.32,40.04,329.05,29.74,3.5,-20.21,22.19,-89.21,18.46,-7.52,-3.02,28.27,6.76,18.02,-1.27,6.69,27
-20.48,-0.98,8.54,10.06,-133.54,2.1,-4.95,-10.62,15.2,14.01,10.5,15.09,-7.42,15.38,2.9,3.17,4.0,2.25,27
39.07,-10.29,30.23,-2.34,-276.32,-48.93,2.24,-11.73,21.07,-30.18,-9.37,-6.01,-7.49,24.55,2.86,34.52,-7.86,37.21,27
-39.98,-3.66,13.18,71.09,248.83,26.66,-3.14,-7.92,16.4,30.03,-10.64,5.62,-6.62,16.05,3.36,-17.82,4.49,-25.0,27
2.0,-3.43,11.02,-55.71,-430.76,-23.73,0.28,-12.83,19.9,-10.4,-3.56,-10.16,-8.05,13.1,3.89,-6.45,-5.62,21.29,27
-4.14,-10.96,16.72,5.42,196.19,43.46,-2.52,-11.23,16.95,8.01,7.71,6.35,-5.3,19.59,4.71,-5.27,6.79,-12.26,27
-0.33,1.56,21.38,-5.66,22.66,-23.19,-2.03,-10.57,18.22,9.33,-6.88,-2.83,-6.61,19.31,2.32,8.01,0.63,1.86,27
-3.49,-8.65,20.49,-11.77,-22.22,-6.49,-1.32,-11.34,18.69,-3.17,-0.73,-0.68,-6.4,19.22,4.49,2.69,-1.95,1.32,27
-3.0,-7.13,20.48,-3.03,3.91,2.34,-1.95,-10.47,17.92,1.76,-0.63,1.86,-6.71,18.12,3.46,-0.39,1.81,-3.03,27
-3.08,-6.41,20.27,6.59,-8.5,-0.15,-1.03,-10.54,18.89,1.51,-1.66,-0.68,-6.36,19.12,3.75,2.34,0.1,3.08,27
-0.6,-4.86,21.12,-1.47,7.91,1.46,-1.6,-10.61,18.25,0.63,0.2,0.68,-6.27,19.12,3.92,1.86,1.51,-2.1,27
-2.79,-6.0,20.24,7.42,-3.66,1.32,-1.41,-11.04,18.42,0.29,-2.1,-1.32,-6.56,18.36,3.84,0.93,0.49,1.51,27
-1.86,-6.79,20.94,0.83,-4.93,0.68,-1.34,-10.78,18.53,-2.98,-0.2,0.49,-6.33,19.01,3.75,1.17,1.32,-0.15,27
-19.13,-0.46,13.22,-5.91,93.46,-10.06,-0.27,-11.26,18.32,27.93,-20.12,2.98,-5.93,17.72,6.62,3.86,-7.32,8.59,28
-7.11,1.22,7.5,-51.95,-409.28,-19.43,0.43,-13.01,20.39,-21.05,0.0,-6.54,-6.22,20.78,3.48,21.44,-7.08,40.97,28
16.73,-7.84,21.27,-7.81,357.52,47.75,-2.81,-14.42,16.24,-14.7,29.15,11.72,-6.05,20.67,2.57,-7.08,11.13,-37.84,28
-21.51,0.57,10.42,-22.71,7.42,-0.44,-5.52,-11.69,14.1,21.09,0.49,-0.59,-8.02,16.6,2.96,10.64,-0.49,7.32,28
22.94,-6.21,25.15,-43.95,-363.33,-26.17,4.15,-12.25,22.92,-46.09,-5.08,-6.69,-3.24,25.53,6.83,6.3,-1.37,5.76,28
-31.56,-3.45,13.25,117.33,300.15,31.59,-2.54,-10.58,17.62,4.88,-7.86,2.54,-7.05,15.91,2.56,0.59,5.32,-6.25,28
-7.64,-0.39,9.33,-76.81,-382.96,-31.05,0.95,-13.85,20.36,-16.55,-6.35,-4.74,-7.43,21.32,3.26,29.39,-8.5,30.71,28
3.28,-8.55,9.92,-9.96,418.99,82.42,-4.33,-7.3,14.97,61.08,8.89,14.6,-6.2,16.06,4.17,-17.38,5.27,-36.91,28
-20.56,-0.07,6.81,-24.56,-224.61,-14.4,-4.71,-7.51,16.59,25.49,-5.91,-19.97,-7.66,12.99,4.27,0.44,-8.2,16.02,28
24.03,-6.34,29.1,5.37,286.47,19.48,0.47,-16.47,17.98,-34.77,22.12,17.63,-5.13,19.49,3.88,-27.88,10.25,-41.36,28
-28.88,2.38,8.91,43.12,-64.06,10.11,-5.06,-12.43,12.99,32.18,-9.13,-15.58,-7.92,15.35,2.4,3.08,3.27,9.47,28
19.16,-8.01,21.38,-52.1,-436.52,-46.24,1.4,-15.23,20.84,-2.83,6.4,1.37,-3.9,23.8,7.65,2.1,-1.46,-3.22,28
-7.53,-6.32,18.67,13.82,172.41,14.26,-4.03,-10.18,16.07,0.59,2.39,3.86,-7.29,15.9,2.21,11.57,2.25,-5.81,28
-5.42,1.27,18.9,-24.22,42.97,-26.22,-2.26,-9.53,17.78,32.37,-14.6,-4.1,-6.12,17.05,4.79,-7.72,-17.14,-5.66,28
-1.04,-9.62,20.55,17.38,-48.58,-6.54,-1.32,-10.78,18.93,-3.47,-2.73,0.88,-6.8,19.29,3.92,4.3,7.32,5.47,28
-1.37,-5.61,21.38,-11.96,9.77,3.32,-1.68,-10.11,18.46,-1.51,-0.49,0.0,-6.77,18.0,3.28,0.39,0.44,-1.12,28
-2.37,-4.94,20.61,-0.1,0.49,0.1,-1.36,-11.08,18.58,-1.9,-1.12,1.22,-6.66,18.49,4.15,-1.76,0.1,-5.81,28
-2.1,-6.55,20.44,2.05,-1.76,1.9,-1.55,-10.47,18.49,-1.37,-2.69,-0.24,-6.8,18.54,3.57,2.73,1.81,2.1,28
-2.41,-6.67,20.7,-0.1,-2.78,1.32,-1.41,-10.77,18.5,0.73,-0.78,0.15,-6.67,18.76,3.71,1.37,1.07,-0.63,28
-2.23,-6.6,20.64,2.98,-2.93,0.39,-1.3,-11.08,18.6,0.24,-0.2,-0.44,-6.81,18.33,3.67,0.88,1.27,-1.12,28
-5.87,-2.68,18.0,99.95,140.58,24.61,-1.8,-10.72,16.87,42.48,-10.21,10.4,-5.82,17.9,5.95,3.81,-4.49,8.45,29
-15.94,-2.02,13.76,8.25,-150.73,8.59,0.66,-13.08,19.75,-18.16,-2.1,-5.86,-5.89,23.71,5.35,30.76,-4.64,37.21,29
39.07,-11.82,26.57,-30.42,-96.09,-17.63,-1.29,-16.68,15.39,-21.88,33.98,13.13,-5.86,18.67,3.6,-4.83,11.96,-40.77,29
-27.5,2.23,10.87,115.87,257.86,3.66,-4.64,-11.85,15.36,16.26,-0.78,1.07,-7.85,15.36,3.45,2.0,-2.39,6.98,29
-13.9,-2.28,7.55,-29.2,-328.76,-31.4,3.66,-11.25,21.5,-38.77,-10.4,-6.93,-2.82,24.61,8.19,-1.9,1.07,-6.2,29
7.85,-7.25,12.64,-8.59,412.79,74.95,-3.06,-7.41,14.96,36.08,-13.13,12.7,-7.3,15.65,3.22,-0.2,0.98,-3.81,29
-17.22,-0.87,10.23,-26.27,-128.17,-16.41,-1.32,-11.13,17.2,-3.91,-1.56,-10.4,-7.88,19.81,2.87,35.16,-7.13,37.06,29
39.07,-9.47,27.58,1.61,-149.56,-39.4,-1.47,-16.35,15.38,8.89,23.1,21.88,-6.04,15.94,3.75,-25.2,7.71,-46.78,29
-34.8,1.18,9.96,70.02,155.76,21.97,-8.04,-9.0,11.77,39.16,-23.49,2.59,-8.95,13.3,2.56,6.1,-8.5,8.35,29
2.55,-3.12,11.1,-42.24,-429.69,-38.87,5.54,-21.26,24.42,-103.17,20.41,1.27,-4.02,22.15,4.92,-20.31,16.6,-29.3,29
6.02,-11.59,8.69,-3.66,438.38,95.61,-2.46,-9.82,18.15,-7.28,-14.99,15.09,-7.84,14.98,3.31,-1.86,-4.39,1.61,29
-21.12,-1.26,5.06,-38.48,-189.01,-5.18,-0.64,-14.1,20.19,-28.03,3.56,3.47,-6.05,28.42,6.66,31.84,-11.08,30.13,29
38.07,-12.25,28.7,7.67,149.76,11.62,-3.34,-9.44,15.32,20.9,16.06,7.03,-7.44,15.39,2.74,-6.74,12.6,-11.67,29
-9.71,2.31,16.61,94.87,-14.65,27.44,-1.64,-12.27,18.23,5.18,-17.04,15.38,-7.41,19.64,2.77,0.83,-9.96,7.67,29
-6.54,-1.1,19.38,-19.53,9.03,-27.1,-0.63,-12.31,18.54,9.18,-8.84,0.73,-6.56,19.11,4.06,5.91,-2.78,3.47,29
-1.93,-11.64,20.38,-31.69,-27.34,-10.79,-1.53,-11.04,17.76,0.59,-0.73,0.98,-6.77,17.98,3.18,-0.88,1.95,-2.0,29
-4.03,-6.35,20.36,-10.01,5.42,2.15,-1.04,-11.84,18.19,1.46,-3.86,-0.44,-6.49,19.05,3.94,2.73,-1.17,1.81,29
-3.65,-6.86,20.51,0.39,-7.57,0.24,-1.54,-11.19,17.63,-0.24,-0.34,-0.05,-6.56,18.42,3.54,0.68,1.42,-0.78,29
-3.07,-5.57,20.42,3.81,0.88,1.71,-0.96,-11.67,18.31,-2.83,-1.71,0.05,-6.53,18.63,3.74,-0.49,0.34,0.0,29
-3.34,-6.16,20.67,5.27,-4.35,1.03,-1.08,-11.72,18.11,0.88,-0.78,-0.05,-6.45,18.33,3.99,0.49,1.12,-0.63,29
-10.1,4.79,17.5,121.19,123.83,13.18,-1.83,-10.14,16.79,42.97,-18.02,2.0,-7.14,21.13,2.79,6.2,4.25,0.73,30
-17.16,0.69,10.33,6.79,-205.57,5.76,-0.79,-15.07,19.08,-17.38,-6.59,-6.64,-6.61,18.49,4.86,6.35,1.07,13.82,30
31.38,-8.69,32.13,-20.9,159.77,-6.59,-3.75,-12.91,13.91,10.5,32.62,15.82,-4.7,27.03,4.98,19.09,-4.3,16.85,30
-22.28,7.09,11.3,48.24,57.76,4.0,-6.11,-12.02,11.21,24.37,-0.29,-3.37,-6.01,16.8,2.65,-7.81,3.42,-28.56,30
-2.69,-2.7,9.66,-46.24,-394.34,-38.18,3.83,-13.24,23.65,-59.08,0.15,-8.01,-7.65,14.64,4.59,2.69,-10.45,14.65,30
1.1,-10.85,8.27,14.26,407.96,72.41,-2.66,-13.11,17.61,-10.16,-2.88,11.96,-4.28,20.25,4.89,-19.04,10.21,-28.66,30
-17.39,0.25,7.76,-39.11,-271.34,-22.12,-0.37,-11.05,17.38,8.84,-9.13,-3.47,-7.84,15.52,2.58,4.59,2.78,-4.35,30
13.12,-5.14,22.77,8.94,409.77,53.37,-4.05,-6.04,15.49,62.06,4.49,4.54,-4.16,27.4,6.6,17.09,-3.66,16.02,30
-17.79,-0.48,10.71,13.82,-180.13,-11.43,-6.31,-10.35,17.68,3.52,-0.1,-21.73,-7.57,16.9,2.6,3.81,2.44,0.63,30
39.07,-11.04,27.43,-33.84,-85.79,-38.62,-0.39,-18.8,15.28,-10.64,19.43,14.06,-6.83,24.35,4.26,26.42,-9.42,24.46,30
-35.27,0.76,10.1,80.13,112.89,25.68,-7.39,-10.69,13.44,35.69,1.66,-7.08,-6.47,16.82,3.63,-12.65,5.42,-27.73,30
4.84,-4.67,14.34,-50.63,-431.2,-46.14,0.3,-12.68,19.86,3.32,5.08,-0.15,-7.99,14.43,3.31,-0.2,-5.47,13.87,30
-1.12,-9.84,17.94,26.86,228.52,37.01,-3.4,-12.09,15.75,3.47,-2.1,11.62,-5.06,20.3,4.99,-7.23,6.1,-13.23,30
-7.77,1.85,18.97,-8.2,-40.58,-21.58,-0.73,-12.63,18.72,5.13,-13.43,-6.49,-7.68,17.32,2.6,5.81,-1.17,-1.46,30
-5.14,-11.56,19.75,-30.08,-12.6,1.61,-1.07,-11.71,18.5,-8.45,-3.08,2.78,-6.52,19.23,4.47,1.71,-3.27,2.93,30
-4.36,-7.12,20.44,-28.03,18.46,4.39,-1.74,-11.63,17.68,-1.03,-0.63,-1.37,-6.62,18.74,3.18,0.73,4.3,-4.74,30
-4.66,-5.79,19.91,-5.76,6.01,0.54,-1.16,-11.99,18.03,1.61,-5.18,-0.15,-6.68,18.57,3.56,0.15,0.39,0.39,30
-3.66,-6.64,19.97,5.03,-9.23,1.71,-1.43,-11.62,17.79,-1.03,-1.46,0.2,-6.55,18.96,4.04,1.86,1.17,0.98,30
-4.32,-7.27,19.83,-3.22,2.69,2.83,-1.15,-11.69,18.03,-0.15,-2.25,0.1,-6.66,18.55,3.69,1.56,1.37,0.59,30
-3.67,-7.81,20.18,-0.88,-2.29,1.22,-0.91,-11.8,18.23,-1.56,-0.54,0.05,-6.52,18.83,3.8,1.37,0.15,0.15,30
-16.71,1.27,14.36,48.68,76.37,3.81,-1.95,-13.64,16.57,12.89,-0.29,-0.59,-6.82,17.41,3.0,-12.65,1.95,-3.96,31
-18.67,-0.36,10.93,-14.01,-254.54,-6.49,-1.61,-14.46,15.73,13.77,-14.16,7.81,-7.02,14.8,2.78,0.54,1.27,1.46,31
20.47,-6.31,29.69,-6.79,293.85,27.93,3.68,-9.86,23.8,-57.81,7.71,-8.3,-3.06,24.94,6.33,-0.68,11.04,-20.75,31
-17.38,2.28,9.19,14.84,-41.06,-1.71,-2.73,-10.02,16.59,19.38,-12.65,7.86,-7.67,15.43,3.28,6.15,1.86,-7.67,31
22.67,-6.43,21.91,-53.32,-399.17,-44.53,-1.3,-13.68,17.3,-17.04,-6.88,-10.6,-7.78,22.04,3.08,32.42,-6.35,40.87,31
-16.05,-9.06,8.07,63.04,382.03,44.29,-0.99,-16.36,17.22,31.54,15.67,17.09,-6.51,16.03,3.69,-18.8,5.22,-32.13,31
-8.49,-1.57,7.96,-72.56,-354.35,-27.73,-2.3,-16.96,15.99,-25.54,-32.23,2.78,-8.31,14.34,3.51,5.22,-10.01,8.59,31
3.72,-6.92,10.64,-24.27,425.68,80.81,1.56,-18.08,20.56,-50.0,15.67,3.81,-4.81,22.08,4.24,-19.97,12.65,-25.59,31
-19.52,1.7,6.11,-10.94,-255.03,-24.07,-6.72,-10.71,14.26,23.39,7.62,-3.22,-8.81,14.76,1.49,5.08,3.52,0.98,31
34.8,-8.36,29.98,35.25,307.81,27.73,0.65,-14.48,21.39,-17.43,-5.57,-4.39,-3.51,25.87,7.07,7.32,3.61,-1.46,31
-26.66,-4.24,10.27,52.44,9.28,31.35,-1.77,-8.97,16.82,18.9,-17.09,-2.34,-7.39,15.56,3.12,-0.49,-0.1,-7.28,31
39.07,-16.29,31.27,-53.81,-311.23,-50.98,0.93,-12.12,19.19,-2.59,-2.59,-3.91,-6.23,25.78,5.33,23.34,-12.3,31.84,31
-30.3,-0.07,16.44,146.19,131.45,38.87,-4.12,-9.83,15.18,38.18,12.65,4.74,-7.2,16.83,3.44,-5.08,6.98,-7.96,31
3.52,-4.75,22.42,-28.66,-40.53,-12.11,-1.7,-12.31,17.42,-0.54,-16.5,12.16,-6.94,19.33,4.27,23.34,-4.88,13.28,31
-7.93,-11.33,19.21,-121.44,-11.52,-27.54,-0.87,-10.4,18.25,26.22,-14.06,3.37,-6.9,17.51,3.27,-3.47,1.42,-5.13,31
-3.36,-2.96,20.48,22.02,-7.67,5.37,-1.67,-10.91,17.73,1.71,-1.46,0.2,-7.17,17.77,3.23,-0.39,2.29,-1.86,31
-4.07,-6.62,20.42,8.2,-10.6,-0.44,-0.85,-10.83,18.37,4.44,-2.0,-0.1,-6.67,19.11,3.96,1.12,-1.07,1.42,31
-3.57,-6.52,20.73,-4.44,3.27,1.32,-1.39,-11.05,18.03,0.05,1.51,0.59,-6.92,18.2,3.46,0.73,1.22,-2.15,31
-3.72,-5.73,20.19,2.0,-3.32,1.32,-1.17,-11.46,18.32,1.9,-2.0,-0.68,-6.81,18.63,4.04,1.17,0.68,1.17,31
-3.58,-5.73,20.6,6.35,-3.42,2.49,-1.3,-10.96,18.27,0.73,-1.27,-0.98,-6.78,18.68,3.61,2.25,-0.24,1.42,31
-12.68,-8.71,15.17,75.0,199.9,44.82,-0.59,-16.3,17.0,-47.17,15.48,3.56,-6.98,17.64,4.03,-5.18,8.2,-10.06,32
-21.88,-2.8,9.08,-64.65,-204.59,-15.28,-1.88,-11.91,17.76,17.68,-2.59,-0.68,-7.28,17.08,3.94,4.15,1.9,8.84,32
31.41,-8.94,31.71,37.99,241.16,26.32,1.18,-14.28,19.28,-9.62,-0.63,-6.98,-4.56,27.38,6.28,18.02,-1.42,9.77,32
-33.12,7.28,8.7,51.03,136.13,-4.74,-3.24,-11.41,14.86,60.55,16.11,5.71,-7.66,13.27,3.18,-17.63,4.15,-18.51,32
2.33,-3.62,15.01,-26.61,-376.37,-37.01,-2.8,-13.33,14.67,-2.34,-19.97,-3.17,-8.38,14.11,4.41,6.98,-5.37,23.68,32
-22.4,-11.6,5.33,23.97,411.04,51.95,2.1,-17.43,19.29,-36.87,18.8,17.38,-6.2,20.86,3.08,-10.55,10.64,-32.37,32
-11.72,-1.64,6.67,-58.89,-362.74,-18.75,-4.67,-9.59,13.8,22.12,-0.2,3.56,-8.42,14.2,2.2,2.59,-5.42,5.13,32
11.93,-3.97,20.67,-12.5,447.56,74.51,3.43,-12.79,22.73,-67.53,-2.73,-6.59,-3.04,26.0,5.82,-7.23,10.25,-17.63,32
-16.73,1.15,9.5,8.15,-175.34,-20.21,-2.51,-10.1,16.93,-2.34,-2.69,12.35,-8.16,14.71,2.12,0.68,5.76,-3.12,32
38.88,-9.96,25.15,14.84,105.37,10.79,-0.69,-11.94,18.65,-2.93,-12.74,-2.54,-5.23,23.63,6.89,12.84,1.76,12.01,32
-26.48,2.15,9.64,62.45,16.41,15.97,-3.2,-11.81,15.76,67.68,9.81,1.61,-7.62,16.4,2.3,-7.32,6.64,-11.43,32
-1.83,-2.33,11.06,-48.49,-460.55,-36.72,-0.77,-10.87,15.73,22.7,-35.4,3.52,-8.21,12.18,4.38,-2.78,-6.2,26.12,32
0.57,-6.98,16.9,-22.75,242.72,42.24,1.67,-14.54,20.06,-3.37,3.86,6.01,-5.88,19.74,3.74,-7.03,9.62,-15.77,32
-2.83,-0.51,20.38,19.09,21.29,-6.88,-3.35,-11.04,17.34,8.35,-10.45,19.78,-7.67,18.26,2.85,5.13,-6.05,-8.74,32
-6.1,-9.7,19.05,-13.18,-12.35,-5.13,-1.63,-11.74,17.62,16.85,-10.69,-3.76,-6.67,17.86,5.1,-3.81,-11.18,-1.71,32
-0.85,-7.29,21.47,-2.1,-10.55,2.1,-1.19,-12.3,18.35,-9.28,0.24,1.37,-7.01,19.12,3.76,5.57,7.96,2.83,32
-3.51,-7.11,20.06,8.59,-4.05,1.17,-1.27,-11.5,18.0,-1.12,-0.05,-0.29,-6.51,18.79,4.15,2.39,2.2,2.73,32
-3.26,-7.43,20.56,3.81,-2.98,1.12,-1.32,-11.62,17.95,0.98,-0.63,0.1,-6.75,18.37,4.21,0.44,1.56,-0.78,32
-3.51,-7.2,20.32,3.22,-3.12,0.0,-1.23,-11.42,18.09,4.54,-0.98,-0.54,-6.71,18.5,4.02,1.51,1.61,0.39,32
-2.63,-6.13,20.61,5.32,-6.01,0.93,-0.94,-11.08,18.56,0.68,-2.78,0.63,-6.53,18.92,3.83,0.54,2.05,0.34,32
-18.19,-1.37,13.36,-10.16,222.17,-10.16,-0.18,-4.11,18.89,23.78,2.98,-1.12,-4.4,15.25,3.99,-17.48,6.2,6.25,33
-21.85,-2.38,7.29,38.87,-233.69,26.03,-3.41,8.43,18.53,45.41,-22.61,11.38,-4.06,14.9,4.35,-3.03,-2.34,19.14,33
21.22,4.92,27.71,34.13,289.06,-25.44,0.87,-3.52,21.37,-100.05,6.74,0.1,-1.41,19.6,5.78,-19.34,27.69,-47.36,33
-22.84,-8.66,5.5,-76.47,-16.75,-37.21,-3.12,-0.54,16.37,33.74,-7.47,0.83,-4.48,14.86,5.72,16.89,-16.21,25.63,33
39.07,3.04,22.03,53.52,-145.56,-24.76,7.29,2.48,30.44,-57.18,-5.71,-9.91,2.82,27.61,9.12,0.88,-3.42,-25.73,33
-23.08,0.12,14.47,-69.34,194.92,8.54,-3.7,0.12,16.25,82.32,15.09,1.86,-5.4,12.67,5.44,5.08,-3.86,3.66,33
3.32,-4.05,13.91,49.61,-467.97,-12.94,3.96,-0.96,27.14,-38.92,-27.88,-3.17,-0.47,27.7,7.35,36.57,-31.05,39.21,33
2.12,3.49,13.35,-48.63,363.33,8.2,0.23,-8.15,17.01,-17.29,17.24,16.55,-4.66,12.49,4.07,-29.1,37.99,-46.53,33
-20.86,-3.51,3.69,79.78,-233.59,-10.11,-1.82,0.2,18.26,32.67,-21.34,-1.81,-4.39,16.55,5.34,5.71,-20.41,44.82,33
16.16,3.78,32.57,-24.95,221.97,-22.41,4.73,-4.03,25.05,-120.95,-0.93,16.65,0.19,24.86,6.07,-22.61,34.42,-57.52,33
-25.46,-9.7,7.45,-42.48,55.18,-24.61,-4.14,0.73,14.7,34.13,-15.33,-3.81,-6.01,13.73,4.4,16.31,-4.59,19.14,33
28.94,3.18,19.27,57.62,-465.43,-2.05,7.91,-2.3,28.73,-33.2,5.13,1.9,2.25,31.02,8.85,23.93,-14.7,24.56,33
-6.99,3.3,19.83,-38.48,226.03,15.04,-2.27,-0.5,15.93,13.62,12.55,-3.56,-5.66,12.16,3.64,-3.61,13.53,-15.14,33
-7.14,-2.29,16.31,49.12,-26.9,-9.72,2.24,-1.4,22.68,5.66,-13.87,-2.05,-2.27,21.59,5.52,12.06,-16.41,19.43,33
-1.41,0.55,23.87,-4.05,-51.32,16.85,1.27,-1.24,21.02,10.01,4.25,-2.98,-2.53,19.08,5.06,3.03,3.47,-7.32,33
-1.08,-1.34,20.87,-6.88,24.71,1.46,1.05,-0.76,20.66,2.34,-0.44,-1.03,-3.21,19.15,4.57,2.73,0.05,0.88,33
-1.0,-1.31,21.57,9.13,-8.35,-1.42,1.65,-1.58,21.26,6.74,0.1,4.25,-2.8,18.67,5.39,0.63,1.42,-1.56,33
-2.12,-2.62,21.43,-0.34,1.37,-0.68,1.25,-1.95,20.91,-4.0,-1.12,2.0,-2.83,19.84,4.79,4.93,0.68,-1.46,33
-3.39,-3.48,20.9,-1.12,-6.1,-0.83,1.72,-1.06,21.41,3.76,-2.1,-0.93,-2.89,19.45,4.74,2.29,0.34,3.91,33
-0.35,-0.85,22.22,11.08,2.34,0.24,0.78,-1.37,20.27,5.42,1.86,-1.42,-3.07,18.04,4.77,-1.51,2.0,-2.73,33
-16.53,-3.65,12.62,8.69,-4.39,17.97,0.49,-5.8,18.25,-15.82,1.37,-3.91,-4.5,15.1,4.0,-16.16,11.08,-3.76,34
19.39,-1.04,22.76,3.27,-467.63,22.02,1.01,-2.43,19.83,6.2,-10.16,6.2,-3.28,18.72,3.99,4.44,-2.88,9.28,34
-1.26,1.02,15.36,19.09,354.0,5.91,5.44,-0.17,24.36,-44.19,14.7,-1.61,-0.1,23.26,6.82,-0.34,26.81,-41.41,34
-17.79,-2.85,6.65,49.56,-183.98,2.73,-1.67,-2.46,16.9,78.86,19.29,3.42,-5.5,14.34,3.62,6.64,-5.62,5.81,34
15.93,3.4,31.56,4.25,249.95,-7.76,3.55,1.54,25.1,-16.55,-19.29,0.68,-2.15,28.95,4.05,32.28,-15.87,27.0,34
-23.45,-9.17,5.52,-70.17,-55.96,-11.38,0.2,-7.96,17.94,-9.33,17.72,4.44,-5.69,12.04,3.38,-39.4,22.51,-40.14,34
39.07,4.66,22.88,47.95,-252.34,-25.63,-3.57,2.82,20.7,47.9,-23.49,0.24,-4.98,15.39,4.83,10.4,-20.85,36.72,34
-27.0,-2.06,11.7,-36.77,405.86,12.01,5.12,-2.71,24.34,-122.51,2.54,-5.03,0.35,21.22,5.98,-24.22,29.39,-63.92,34
-4.8,-1.89,4.79,54.05,-448.88,-18.46,-3.68,0.37,14.72,27.29,-12.84,-3.32,-5.73,13.05,5.05,8.15,-15.48,34.08,34
8.68,-0.69,16.55,-35.6,388.23,48.05,8.22,-1.72,33.16,-44.97,-1.07,5.76,3.57,31.96,9.57,20.9,-2.83,-10.25,34
-24.04,-8.26,1.45,26.27,-183.59,-1.03,-2.38,-7.67,14.35,101.37,27.83,5.52,-7.33,8.54,3.68,-24.37,18.12,-27.93,34
39.07,0.19,32.19,14.16,-15.04,-29.79,3.93,-0.63,21.37,21.53,-31.35,1.27,-3.86,20.21,5.2,28.61,-30.22,64.79,34
-9.84,-1.85,14.21,-33.3,154.2,-9.77,0.45,-1.42,19.36,-31.01,17.97,5.52,-3.92,14.65,4.5,-27.15,37.79,-49.61,34
-0.89,-2.74,19.18,31.74,-60.55,1.07,-2.03,-1.9,19.57,-8.35,-26.22,11.13,-5.6,16.82,4.55,14.79,-20.95,32.71,34
0.23,-2.09,23.38,-3.66,-1.12,-4.35,2.18,-0.87,21.51,10.45,4.1,-5.52,-2.28,19.55,6.15,-1.17,2.2,-7.03,34
-4.14,-5.08,20.02,2.69,-20.61,-4.39,0.68,-1.01,19.93,10.4,-2.1,-2.59,-3.8,18.09,5.11,2.15,-2.73,4.1,34
-1.42,-3.32,22.11,-10.45,3.76,0.59,2.05,-2.06,21.45,-1.61,-0.73,-0.93,-2.72,19.34,5.69,2.15,0.59,-0.63,34
-2.65,-2.41,20.47,2.29,-3.08,-2.83,1.26,-2.17,20.34,-2.59,-1.61,-0.63,-3.13,18.2,5.24,-2.1,0.88,-0.29,34
-1.89,-3.89,21.09,1.66,-6.74,0.44,1.57,-1.83,20.83,5.76,-0.05,-1.51,-2.81,18.79,5.87,2.98,-1.95,0.49,34
-2.19,-3.0,21.19,1.71,0.1,2.88,1.68,-1.52,20.84,-4.44,-1.12,3.81,-3.06,18.61,5.26,0.98,3.37,-2.2,34
-7.02,-0.69,17.18,43.12,175.24,10.45,0.53,-5.38,18.58,36.62,7.28,-1.27,-3.74,17.63,4.84,-8.4,13.43,-11.87,35
-16.91,-2.05,10.78,14.65,-160.4,8.3,-2.15,1.35,14.57,59.91,-4.98,1.27,-2.69,18.42,6.53,9.18,-5.13,13.67,35
39.07,-3.3,36.61,18.85,157.91,-6.01,0.03,-2.68,21.26,-92.24,12.99,-2.0,-2.89,21.66,4.35,25.63,-9.42,19.19,35
-26.2,2.65,6.55,-36.47,204.39,-27.44,-1.17,0.47,17.94,71.14,-0.29,2.44,-3.92,17.7,3.64,-9.86,23.73,-43.46,35
-4.56,-2.13,9.09,55.08,-434.23,-15.62,3.96,-4.06,25.33,-38.67,-9.72,-6.2,-3.87,19.02,5.02,19.14,-14.99,30.62,35
8.08,-1.48,10.54,-28.47,407.76,34.91,-2.25,-6.29,14.73,67.58,24.56,5.47,0.4,26.81,6.71,4.0,18.99,-37.45,35
-19.33,-3.21,1.63,16.85,-287.3,-34.37,6.01,-0.76,23.68,6.05,-41.99,15.23,-5.89,12.69,3.62,4.2,-9.47,6.2,35
37.74,-0.05,40.7,19.14,200.93,-1.46,0.36,-1.2,17.43,-68.46,18.21,11.13,0.4,29.0,7.66,45.12,-25.15,37.94,35
-26.87,-6.07,4.54,-20.26,72.51,-2.34,-2.05,-5.08,17.21,12.11,-23.1,-3.66,-5.77,10.71,2.91,-26.07,23.54,-43.51,35
20.86,-0.1,23.41,44.09,-447.12,-22.12,8.47,-2.91,30.25,-34.42,10.64,11.62,-3.15,17.79,5.97,10.74,-29.59,49.95,35
-1.89,-2.71,7.75,-25.54,415.48,52.64,-4.25,-4.14,12.04,83.64,25.59,-1.27,1.03,22.92,6.42,-31.93,36.52,-75.2,35
-22.7,-0.43,1.8,29.74,-273.14,-18.95,0.59,4.9,22.01,26.81,-33.54,2.39,-5.88,11.98,4.52,10.99,-15.97,29.25,35
32.94,-4.46,38.03,12.11,153.37,20.65,0.03,-0.3,18.37,-2.15,29.2,5.57,1.05,30.83,7.86,32.57,-25.39,39.99,35
-9.38,-6.95,13.07,-27.69,99.51,-2.44,-1.47,-1.49,18.58,8.4,-14.01,-1.03,-5.38,11.92,3.47,-11.82,20.8,-26.61,35
-0.42,-4.04,21.6,1.46,-41.85,-4.49,5.01,-0.94,19.28,2.15,1.86,12.06,-2.91,20.52,5.27,8.89,-14.31,24.8,35
4.72,-6.43,21.2,0.83,-8.4,-5.32,1.3,-2.44,20.32,-6.64,-1.27,1.27,-2.75,18.72,4.7,-0.98,5.03,-7.67,35
-1.0,-3.79,21.08,1.32,3.76,-2.83,1.69,-2.37,20.49,-4.3,-1.81,0.73,-2.84,19.75,4.9,4.88,-1.95,0.15,35
-2.09,-5.47,20.87,-5.18,2.83,4.3,1.77,-2.15,20.94,-1.9,-0.24,-0.54,-2.71,18.99,5.07,0.44,1.27,0.05,35
-0.42,-4.13,21.4,-2.59,1.32,-1.9,1.54,-3.25,20.64,1.81,0.34,-0.83,-2.92,18.44,5.22,-1.17,0.39,-2.2,35
-1.71,-5.03,20.78,6.54,-8.79,2.1,1.79,-2.08,20.92,2.2,-0.15,0.24,-2.76,18.75,5.14,1.81,0.83,0.44,35
-15.7,0.09,10.81,9.72,-169.14,18.95,2.15,-5.17,19.55,-38.04,-3.27,-7.62,-3.75,17.13,3.91,-5.86,2.44,-3.71,36
35.01,-3.31,36.01,28.56,127.54,-5.42,0.7,-1.78,19.09,32.18,-4.35,13.77,-3.95,15.4,3.35,-4.69,-3.96,17.09,36
-31.29,-3.2,8.63,-87.16,117.43,-13.57,6.24,-1.21,26.68,-18.9,7.37,7.57,0.66,21.89,7.93,-3.56,15.67,-41.26,36
-0.82,-1.21,11.58,32.47,-428.52,-15.09,-1.88,-2.86,15.1,69.24,20.9,1.76,-3.58,13.89,7.01,6.69,-13.48,12.06,36
-3.08,-4.86,12.61,-17.53,386.28,44.34,4.22,-0.7,22.89,9.42,-24.76,9.03,-0.4,30.26,6.73,25.83,-5.62,34.08,36
-16.5,-3.44,2.68,4.59,-327.88,-31.49,2.79,-8.89,18.28,-55.66,7.76,8.54,-5.03,12.44,3.56,-27.2,8.5,-28.66,36
21.44,1.15,27.25,-36.91,336.57,14.65,-1.78,-4.75,16.83,43.41,-20.26,-6.1,-2.5,15.25,6.89,11.67,-23.97,51.22,36
-24.91,-4.59,4.08,-23.14,-18.95,0.34,5.33,4.09,27.39,-40.67,18.9,-4.39,-2.42,16.51,4.11,-38.23,45.02,-70.21,36
39.07,-1.26,21.62,31.84,-350.0,-29.2,-5.07,5.46,12.65,73.53,2.64,-2.25,-4.76,13.89,4.44,8.06,-20.17,43.7,36
-20.49,-5.79,12.4,-9.52,372.9,49.8,6.46,-2.95,31.19,-53.61,-10.89,2.93,3.84,34.44,8.2,28.42,0.05,-18.9,36
-10.04,-2.19,0.65,26.81,-424.76,-22.95,-1.17,-11.02,14.52,0.54,19.73,9.86,-7.07,9.83,3.74,-7.13,3.61,-10.55,36
19.57,-1.38,25.52,13.57,224.56,30.22,-1.24,1.76,7.73,60.79,-23.24,-7.32,-2.43,23.19,6.39,24.02,-24.02,58.15,36
-12.17,-1.85,11.84,-20.22,48.68,-47.51,4.47,-0.64,21.3,6.05,31.05,0.63,-3.69,12.84,4.86,-27.05,39.45,-48.58,36
-3.03,-6.22,22.85,10.64,-31.45,4.59,-2.39,-0.01,16.21,-5.27,-12.45,-1.42,-3.32,19.67,4.93,17.04,-16.55,26.56,36
1.34,-3.97,20.48,-11.96,26.27,3.96,5.98,0.81,24.48,15.67,-4.2,-14.84,-2.04,18.44,5.43,-3.61,7.08,-9.67,36
-2.14,-6.58,20.0,-0.73,-1.9,-1.51,2.34,-2.9,20.64,-25.68,-5.52,2.73,-2.81,18.33,5.33,-1.32,0.15,-3.47,36
-1.22,-6.57,20.96,-5.81,2.39,3.66,1.64,-3.6,20.35,-1.86,-2.64,-0.39,-2.32,19.33,5.46,6.74,0.54,1.86,36
0.04,-4.1,21.15,1.32,-2.49,-2.15,1.89,-3.54,20.9,0.49,-1.81,0.98,-2.7,18.73,4.99,2.44,1.61,-0.24,36
-0.97,-4.8,20.83,4.49,-2.49,-0.98,2.15,-3.53,20.84,-5.37,-1.66,2.05,-2.55,18.5,5.31,-0.29,1.51,-1.17,36
-1.02,-5.76,20.92,3.27,-5.27,0.0,1.52,-3.6,20.67,-1.03,-2.05,-1.42,-2.44,19.06,5.28,3.17,-0.2,1.17,36
-14.73,-1.93,15.85,23.49,134.33,2.88,0.39,-0.05,20.41,43.21,1.76,6.93,-2.24,18.92,6.43,9.96,-1.22,12.6,37
-17.85,-2.73,8.83,21.97,-267.72,-1.42,5.73,-3.07,29.29,-25.0,2.88,10.74,-1.52,27.74,6.98,13.87,-2.83,14.55,37
20.03,-0.76,23.06,-19.43,339.55,22.85,-1.95,-4.92,15.21,57.71,21.0,-0.49,-4.55,12.64,3.93,-19.82,12.21,-22.85,37
-22.96,-2.92,6.14,-30.27,15.33,-24.41,-0.21,6.12,22.31,32.28,-15.04,-4.93,-3.56,17.92,5.31,8.25,-11.77,26.17,37
33.75,-2.25,28.43,5.13,-335.01,-29.44,2.43,-6.9,19.81,-61.13,7.37,10.74,-1.76,16.84,4.52,-32.23,20.02,-49.02,37
-30.31,-4.85,14.67,-3.03,285.01,47.56,-1.89,-7.43,17.97,34.33,-12.74,-10.25,-4.94,15.82,4.17,7.81,-10.6,31.15,37
0.33,-2.42,12.23,14.06,-426.12,-32.28,6.01,-0.01,27.98,-49.02,14.84,-5.96,1.44,28.35,6.71,-0.39,13.43,-36.77,37
12.22,-2.67,14.59,-50.0,396.44,49.46,-3.45,2.74,14.74,49.32,-3.66,-8.45,-4.97,13.57,4.67,12.26,-7.86,3.03,37
-20.76,-0.37,1.86,47.22,-240.58,-36.28,7.44,-5.87,31.35,-43.55,-12.89,20.26,-0.39,32.35,6.41,44.04,-21.04,45.51,37
21.18,-0.06,33.12,-6.15,299.22,18.9,-2.66,-6.99,12.81,52.34,29.44,4.05,-5.71,10.86,3.37,-27.49,29.2,-47.61,37
-27.28,-3.13,4.79,14.75,44.58,-25.54,-0.44,-3.43,19.9,63.82,-17.33,-7.08,-4.7,17.98,3.89,11.38,-22.51,45.51,37
3.42,-2.44,11.63,-9.67,-477.2,-5.66,1.79,6.03,19.85,12.84,29.54,3.86,1.9,24.33,7.04,-9.03,20.46,-48.93,37
4.45,-2.5,17.75,-47.41,239.84,57.76,-1.45,-0.68,17.16,21.09,-6.93,-2.88,-4.77,16.28,4.22,12.21,-7.62,13.92,37
-5.4,-3.96,16.27,36.82,11.08,-27.39,2.79,-3.2,22.35,3.27,-0.59,-1.37,-2.07,20.64,5.45,0.83,-0.59,0.93,37
1.49,-6.75,23.16,2.69,-19.97,-2.0,0.67,-2.9,19.62,1.03,-0.59,0.98,-3.15,18.27,4.56,0.93,1.81,-3.71,37
-2.19,-5.38,19.79,2.0,1.03,0.39,1.99,-3.95,21.06,-4.25,-1.42,-0.24,-2.63,19.29,5.28,2.59,0.98,-0.2,37
-0.77,-5.57,21.29,-2.44,-1.81,-0.29,1.41,-3.34,20.6,2.54,-0.78,-0.34,-2.93,18.95,4.77,3.52,0.83,1.12,37
-0.87,-5.35,20.91,6.98,-8.54,-1.17,1.51,-3.42,20.37,-3.32,-1.12,1.12,-2.68,19.04,5.03,1.17,1.27,-0.05,37
-1.6,-5.71,20.5,-4.15,1.22,2.59,1.64,-3.59,20.7,1.32,-0.68,-0.05,-2.54,19.11,4.75,-0.34,1.76,-2.15,37
-1.46,-5.77,20.86,1.71,-3.86,0.59,1.88,-3.53,20.8,-1.32,-1.07,-0.1,-3.03,18.36,4.57,0.39,2.1,-0.68,37
-17.77,-6.86,15.1,39.26,153.47,36.43,1.54,-8.03,19.5,-43.16,0.83,-8.2,-3.98,14.42,5.03,-16.36,25.34,-30.42,38
-17.69,-2.12,10.61,-7.28,-227.93,-6.25,1.25,-1.39,20.81,48.0,6.64,12.3,-4.18,19.23,5.43,7.57,-9.33,14.36,38
15.73,-2.57,25.08,-10.16,261.28,20.36,3.65,-3.24,25.81,-25.49,1.22,14.31,-2.72,19.46,5.75,3.86,3.52,-2.83,38
-19.15,-2.15,9.78,-21.09,-10.5,-20.36,-1.31,-4.0,16.92,48.68,15.28,-0.59,-3.48,18.94,5.42,3.03,-1.86,1.51,38
33.22,-5.07,24.45,3.86,-280.57,-16.41,0.77,1.56,23.73,-2.34,-17.92,-0.39,-3.13,18.95,5.45,4.05,0.24,0.05,38
-31.58,-5.75,14.49,-25.2,279.54,28.32,2.22,-8.18,20.03,-47.71,8.2,4.69,-2.98,19.32,5.35,0.88,2.54,-1.46,38
7.26,-7.48,16.06,0.78,-448.44,-24.76,-3.98,-5.28,18.72,11.62,-19.63,-10.4,-2.73,19.62,5.6,2.78,-0.83,0.1,38
1.05,-3.17,12.57,-33.69,389.36,75.05,2.88,2.06,24.76,-49.37,14.99,-8.69,-3.18,18.68,5.05,0.39,2.0,-0.63,38
-21.09,-1.49,2.64,31.69,-249.61,-49.46,-5.97,-1.48,15.85,2.54,-5.27,-7.67,-3.2,18.83,5.12,0.88,0.78,-0.05,38
20.07,-5.82,35.54,-18.95,289.31,14.5,9.32,-6.54,30.67,-46.58,-14.45,23.54,-3.23,18.83,4.9,2.64,1.56,-0.34,38
-27.24,-1.07,5.52,23.78,31.74,-10.3,-2.38,-8.05,13.53,70.8,31.4,3.81,-3.01,18.82,5.23,-0.0,1.37,-1.07,38
15.92,-2.63,23.92,-11.23,-412.55,-15.23,0.58,-0.86,20.69,40.23,-23.34,-9.72,-3.02,18.83,5.05,0.73,1.81,-0.1,38
3.99,-5.75,21.42,-3.61,149.46,40.58,2.37,-2.83,20.88,0.44,23.05,5.52,-2.91,18.57,5.22,1.12,-0.29,2.88,38
-7.73,-4.1,17.26,-25.59,32.13,-17.09,-0.31,-1.51,17.72,-18.95,-14.01,15.67,-3.04,18.97,4.82,0.83,3.32,-3.76,38
0.23,-5.66,22.57,-3.27,-8.79,-1.95,2.12,-3.81,22.35,-6.74,-3.17,0.49,-2.87,19.33,5.1,0.88,-0.29,-0.24,38
-2.26,-5.26,20.39,-2.0,6.1,-0.1,0.5,-2.94,20.28,-3.71,-2.69,-0.73,-2.98,18.43,5.0,1.76,0.83,-0.2,38
-1.54,-6.29,21.12,0.54,-3.42,1.86,1.41,-3.68,20.78,1.46,-1.07,-0.05,-2.83,19.04,4.87,2.69,0.49,-1.03,38
-1.75,-5.79,20.9,4.74,-0.59,-0.39,1.16,-3.25,20.57,1.07,-0.15,0.68,-3.08,18.93,4.91,2.44,-0.39,1.61,38
-1.29,-5.88,20.86,-0.98,-3.56,0.88,1.63,-3.7,21.03,-0.39,-0.73,-1.27,-2.93,18.99,4.67,2.2,1.95,0.24,38
-1.24,-5.54,20.79,2.44,-1.42,-0.2,1.22,-3.44,20.51,-1.22,0.05,0.78,-2.7,19.16,4.89,-0.1,2.15,-2.2,38
0.87,-8.14,20.46,22.36,179.64,37.26,0.76,-5.06,18.76,35.4,6.4,-0.68,-3.76,18.13,4.2,4.3,6.79,-4.39,39
-15.17,-4.59,15.11,-17.09,-57.86,2.05,-2.7,4.04,18.86,38.09,-5.22,2.93,-2.91,18.03,5.39,1.46,3.32,9.18,39
33.29,-3.31,25.34,-22.56,-348.0,-27.15,1.71,0.14,22.24,-59.28,9.28,-2.44,-0.4,24.18,5.95,4.35,9.72,-31.25,39
-10.84,-3.71,12.44,57.32,265.82,45.07,-0.77,-1.28,18.21,6.25,-12.26,2.29,-4.69,15.18,4.69,-2.34,-0.68,-2.49,39
-14.47,0.06,4.68,-1.51,-352.93,-26.03,6.4,-6.91,29.02,-43.9,-4.35,7.81,-2.35,24.15,5.41,31.54,-15.04,31.98,39
13.25,-2.79,16.89,-31.01,347.9,45.36,-1.48,-2.73,15.69,67.92,25.0,3.03,-3.67,14.97,3.55,-26.9,13.57,-42.48,39
-21.3,-3.8,6.79,3.42,-96.73,-27.39,4.92,1.33,23.37,6.64,-29.35,0.68,-3.96,15.85,5.09,8.69,-17.82,30.86,39
39.07,-2.21,26.48,4.93,-26.46,-2.83,1.4,-7.24,19.5,-71.34,12.79,13.62,-0.21,23.83,5.42,-21.39,21.83,-61.13,39
-26.4,-2.21,8.93,27.69,188.04,-21.92,-3.01,-7.15,15.74,22.22,-22.41,-8.4,-5.5,11.99,5.24,-4.0,-9.57,20.51,39
6.35,-3.05,13.92,-19.34,-461.47,16.36,4.04,-2.01,25.5,-9.52,16.41,1.12,0.34,31.84,9.29,39.99,-8.79,26.81,39
13.59,-3.4,16.73,-57.52,420.95,87.55,-2.32,-2.71,13.2,96.63,18.21,-0.2,-6.55,12.0,1.92,-22.56,25.54,-44.24,39
-22.02,-2.51,4.08,61.03,-149.95,-21.19,8.94,-2.21,27.16,11.47,-48.68,8.98,-4.83,16.33,4.97,4.78,-20.02,43.85,39
36.95,-10.42,32.47,-8.5,2.59,-4.79,0.76,-3.96,20.33,-19.43,22.17,5.91,-1.48,20.83,4.98,-23.34,27.64,-47.02,39
-6.3,-6.58,15.45,10.69,115.58,4.54,0.88,-3.49,20.5,-0.63,-17.82,2.15,-4.32,15.35,5.61,14.99,-10.11,19.63,39
-2.14,3.43,20.75,-48.19,-1.56,-18.36,2.07,-3.21,21.02,11.67,5.18,3.56,-2.3,18.82,5.87,-8.3,0.15,-4.83,39
4.79,-3.14,21.53,24.07,-8.79,6.98,1.2,-2.41,20.07,1.07,-1.86,0.24,-3.58,18.27,4.52,5.62,2.49,-1.42,39
0.37,-4.35,20.49,6.05,-1.66,-3.52,1.97,-3.62,20.81,1.32,-2.1,0.68,-2.86,18.89,5.28,0.83,0.44,-0.1,39
0.94,-5.83,20.79,2.25,-5.18,1.95,1.77,-3.3,20.59,-1.56,-1.37,0.34,-3.09,18.89,4.97,5.22,-0.29,0.05,39
0.65,-5.53,20.63,0.39,-0.49,0.0,2.15,-3.48,20.6,-5.18,-4.25,1.07,-3.02,19.05,4.95,3.22,1.27,0.0,39
1.01,-5.38,20.77,-3.13,2.64,1.42,2.35,-4.03,20.76,-6.84,-5.42,0.98,-2.7,19.3,5.21,1.71,0.54,0.15,39
-2.42,-3.53,19.33,59.91,218.55,21.83,1.77,-7.19,19.45,-34.72,15.14,-6.2,-1.83,20.54,5.93,-1.95,6.88,-19.73,40
-17.18,-6.08,12.47,6.4,-72.36,15.28,-0.69,-0.57,19.59,65.33,0.59,6.54,-3.6,13.96,6.14,-1.61,-1.32,2.64,40
39.07,-7.89,21.05,3.17,-437.5,-33.64,4.72,-1.18,26.63,-49.8,-6.88,6.74,-2.49,15.12,5.74,8.06,-8.98,35.01,40
-8.45,0.27,11.63,30.27,367.68,18.7,1.47,-7.34,16.81,-14.36,19.92,6.3,-1.14,19.36,4.17,-11.28,24.85,-52.0,40
-18.16,-5.43,3.89,32.81,-296.29,-15.14,-1.89,-3.36,18.25,52.49,-11.04,-6.69,-3.68,14.66,5.19,5.42,-15.43,24.07,40
13.23,-2.63,25.56,-30.42,338.09,10.55,3.47,-3.11,24.45,-82.81,12.16,-0.68,2.03,28.75,8.08,10.3,-4.3,-2.83,40
-20.14,-4.65,5.86,-12.6,-103.76,-32.08,-2.85,-1.24,14.72,17.53,-13.87,-18.99,-5.77,11.58,3.42,-5.66,6.88,-6.15,40
39.07,1.87,21.49,26.07,-135.6,-43.31,6.0,-4.76,26.13,-30.91,-5.22,22.31,-1.98,26.66,4.89,35.25,-15.33,38.13,40
-29.47,-6.66,13.91,13.33,179.25,-12.35,-1.84,-3.39,15.84,74.56,19.48,4.2,-3.52,15.6,3.49,-26.07,25.73,-48.97,40
1.42,-1.44,10.88,7.47,-455.96,2.25,5.83,-0.04,25.89,16.36,-30.71,-3.42,-3.98,15.02,4.8,10.64,-22.8,38.13,40
9.63,-5.25,18.12,-27.78,386.52,77.34,3.06,-8.27,19.06,-80.42,6.59,13.96,-0.63,23.62,3.97,-18.46,30.32,-52.83,40
-23.01,-1.18,1.57,51.37,-269.48,-28.76,-2.82,-5.52,14.98,39.01,-17.77,-2.29,-4.99,11.91,4.65,-0.83,-6.59,21.88,40
18.88,-3.61,29.65,-7.42,184.52,-4.74,5.12,-2.65,24.76,4.83,26.51,0.83,1.58,29.93,9.82,28.22,-15.33,31.4,40
-10.03,-8.06,13.47,-15.58,128.86,-7.37,-2.77,-1.29,15.13,15.77,3.22,-2.49,-4.59,13.04,3.96,-5.42,14.06,-22.85,40
0.14,-1.23,21.82,-42.77,-22.41,-16.06,0.49,-12.6,23.64,-32.08,-16.02,1.32,-2.35,22.12,5.53,10.6,-8.94,18.8,40
4.52,-2.68,21.94,23.0,-15.43,-5.62,1.24,-2.42,20.28,-7.42,-0.39,4.15,-2.15,19.37,5.12,7.03,3.03,-4.54,40
-2.69,-5.09,20.86,-11.28,12.94,0.88,1.82,-2.98,20.82,-5.52,-3.71,-0.2,-2.56,19.3,4.48,1.66,-0.39,1.27,40
-0.33,-4.99,20.97,-2.49,3.56,1.51,1.69,-2.67,20.42,-0.54,0.44,-0.49,-2.32,19.16,4.64,1.86,0.49,-0.24,40
-0.31,-5.04,20.9,-5.96,7.28,1.9,1.46,-3.42,20.12,-3.22,-2.0,1.51,-2.35,19.11,4.64,1.46,1.51,-0.34,40
-0.5,-4.77,21.32,9.81,-8.11,-1.95,2.1,-3.15,21.04,-0.05,-0.05,0.78,-2.03,19.86,4.88,6.64,-4.64,0.1,40
-16.1,11.26,13.42,42.97,117.04,-17.04,0.02,-5.63,17.88,10.4,9.96,1.86,-3.62,14.17,3.98,-18.26,6.98,-10.21,41
-17.71,-0.11,6.42,0.73,-345.75,-10.35,-0.39,-6.49,17.88,30.91,-10.25,0.68,-3.23,17.13,3.84,2.59,-1.71,20.21,41
19.97,-0.98,21.39,-33.5,325.88,31.59,5.47,-0.56,28.18,-5.37,15.14,-3.08,-0.27,23.27,4.6,-16.7,12.6,-42.53,41
-17.84,-5.06,8.56,-1.27,-25.98,-21.04,-2.67,1.48,15.74,55.76,11.13,-0.44,-4.69,14.94,4.76,2.83,-6.35,11.67,41
25.53,-4.41,28.45,2.93,-270.51,-26.76,4.74,-1.93,26.34,-18.51,-18.8,0.39,-1.3,27.45,4.78,29.59,-4.69,20.26,41
-16.78,-5.38,14.55,35.99,272.61,58.5,1.83,-6.96,17.91,-31.74,5.22,10.69,-3.34,14.74,3.78,-15.14,14.21,-22.66,41
-3.96,-0.44,8.4,15.72,-405.76,-30.18,-1.55,-1.34,18.07,44.09,-17.29,4.39,-3.82,16.33,5.3,5.13,-15.23,29.98,41
7.91,-2.08,14.22,-47.51,360.01,50.39,3.84,-3.96,22.74,-30.22,17.38,5.42,-1.88,17.85,3.5,-31.01,25.05,-51.46,41
-18.9,-1.89,6.68,34.62,-180.96,-49.95,-2.58,-3.5,17.32,-0.98,-16.02,-7.08,-4.3,15.36,4.72,6.01,-11.13,28.71,41
34.86,-3.98,32.34,-14.89,115.53,5.76,5.87,-7.29,26.84,-32.81,-5.47,6.25,1.14,28.66,6.68,11.23,0.49,-5.03,41
-24.45,-2.3,9.9,25.54,120.65,-8.3,-1.3,-5.94,15.04,38.38,16.16,3.86,-5.77,13.62,3.7,-13.18,8.98,-7.47,41
10.14,-6.41,16.8,-15.43,-499.41,2.78,-1.03,5.41,18.66,38.09,-34.37,9.67,-2.26,19.89,5.33,17.14,-17.19,46.0,41
2.17,-2.16,18.67,-52.05,251.22,49.66,3.68,-1.61,20.61,-5.71,23.0,4.83,-3.18,15.64,4.57,-18.55,24.27,-35.84,41
-7.58,-2.19,16.05,20.8,45.41,-37.06,-1.85,-5.1,18.55,-7.13,-9.72,-2.25,-3.54,17.88,5.14,7.91,-7.62,18.55,41
-0.99,-7.17,22.88,4.59,-16.36,1.17,2.93,2.23,22.67,8.69,0.63,1.56,-1.85,19.8,5.66,1.81,2.29,-5.71,41
-2.41,-5.1,20.22,-7.81,14.4,0.63,0.9,-2.7,20.13,-3.27,-1.71,1.17,-2.83,18.86,4.73,3.66,-1.76,1.51,41
-0.86,-6.11,21.16,-7.72,1.51,2.2,1.25,-3.99,21.08,-3.66,-3.22,2.69,-2.41,19.03,4.88,2.39,3.03,-1.32,41
-0.69,-5.28,20.91,2.59,-3.37,0.05,1.82,-2.79,21.0,1.76,-1.27,0.68,-2.71,19.59,4.49,4.98,1.71,-0.24,41
-1.12,-4.85,20.92,2.44,-2.49,0.93,1.7,-2.93,20.53,-3.76,-0.93,0.73,-2.42,19.05,4.76,-0.39,0.63,-0.1,41
-0.67,-5.33,21.07,4.3,-3.17,-0.24,1.77,-3.0,20.79,1.42,0.2,0.1,-2.59,19.18,4.49,2.54,0.93,-1.32,41
-13.4,0.17,15.85,40.77,123.44,10.55,1.06,-3.1,19.58,16.45,-5.96,3.91,-3.44,17.13,3.82,-7.96,5.96,-6.2,42
-15.92,-2.1,10.51,-12.94,-185.5,-9.13,5.92,-3.91,27.21,-19.19,5.18,10.89,-2.85,18.27,3.93,2.59,1.66,15.53,42
22.69,-2.43,30.67,-1.61,237.21,7.23,-2.65,-1.84,14.77,77.49,19.48,0.05,-0.65,25.59,4.67,-0.39,10.69,-32.81,42
-21.3,0.29,6.96,6.4,9.96,-19.53,5.17,0.83,21.71,12.79,-24.46,5.32,-4.54,14.5,4.65,3.56,-6.84,12.4,42
25.69,-6.92,27.57,-9.38,-398.93,-29.74,1.36,-7.14,19.3,-49.61,11.18,9.91,-1.59,28.13,5.87,17.24,-5.71,16.06,42
-9.09,-4.88,10.58,0.05,373.1,85.45,-2.93,1.89,15.64,47.85,-14.06,3.71,-4.32,14.95,3.4,-15.58,17.29,-36.13,42
-11.28,-1.31,2.33,14.16,-389.16,-38.53,4.34,6.88,27.1,-4.05,17.24,3.61,-3.78,16.54,5.63,8.5,-25.49,36.72,42
22.59,-1.78,21.79,-44.87,338.18,29.93,-3.47,1.97,15.03,68.12,4.0,-2.25,-1.55,19.66,3.24,-25.0,28.32,-54.98,42
-21.3,-3.32,5.72,41.7,-68.99,-25.63,2.64,-1.84,29.98,-36.67,-9.42,-10.4,-4.55,13.32,5.11,5.13,-9.28,28.03,42
39.07,-0.43,20.21,-22.71,-226.86,-12.74,-0.31,-7.61,16.27,-25.54,14.31,11.62,1.38,31.21,8.09,17.28,-6.15,7.71,42
-20.28,-4.0,11.36,4.3,274.41,11.72,0.48,-8.21,18.55,-5.37,-19.63,-1.66,-6.38,12.81,2.47,-15.72,16.46,-19.58,42
-21.07,0.26,4.24,35.4,-313.57,4.98,6.18,-6.85,25.13,-8.59,20.12,4.83,-3.7,18.04,5.35,3.37,-13.87,27.1,42
16.55,-0.56,21.61,26.03,168.9,14.99,-1.64,-1.69,17.09,11.96,2.2,-3.61,-1.8,21.11,5.84,-7.72,27.0,-40.33,42
-2.79,-7.44,15.4,23.88,104.49,-36.82,2.2,0.35,22.92,3.66,-7.42,4.15,-4.29,16.84,4.87,11.57,-7.23,11.91,42
-0.42,-3.98,21.84,-43.7,-6.2,0.1,0.67,-2.68,20.02,-6.45,-3.76,2.93,-2.51,20.55,5.32,1.46,0.05,-0.93,42
-1.01,-4.94,20.44,-0.98,7.13,2.05,1.64,-3.37,20.7,-0.49,-1.17,1.03,-3.6,18.98,4.54,4.93,-0.83,0.98,42
-1.74,-5.94,20.87,4.93,-9.08,-0.73,1.31,-3.15,20.41,0.98,-1.71,1.61,-3.06,19.35,5.12,3.86,0.78,0.0,42
-1.19,-5.61,21.07,0.29,-1.86,3.32,1.57,-3.34,20.75,-1.9,-0.1,0.15,-3.32,18.69,4.66,1.07,0.49,-0.78,42
-1.13,-5.69,21.13,-0.15,-0.63,1.03,1.41,-3.4,20.77,2.88,-2.69,-0.78,-3.29,19.08,4.56,2.15,0.73,-0.39,42
-1.59,-5.49,20.5,2.59,-3.47,0.54,1.65,-3.18,20.45,-3.66,-0.59,1.9,-3.02,19.29,4.81,3.12,0.63,1.37,42
-3.16,-4.7,20.16,12.26,71.34,17.48,1.71,-3.96,21.27,40.38,12.79,8.64,-2.16,19.39,4.48,-10.11,-1.42,-7.76,43
-11.66,2.63,9.41,-24.9,-282.42,-18.65,4.24,0.36,24.76,-1.61,-14.79,-2.73,-4.33,14.09,2.5,-4.59,1.61,8.01,43
17.6,0.85,23.78,18.41,212.11,19.48,1.55,-1.19,21.18,-53.71,9.81,-4.93,-3.29,21.31,2.79,-3.91,16.89,-22.56,43
-26.56,-5.02,12.65,39.06,119.87,0.1,-1.96,-7.14,15.22,33.98,-5.66,-5.76,-2.84,15.32,6.76,-3.22,-1.07,-4.15,43
39.07,-11.92,20.97,-43.8,-170.41,-33.06,4.0,2.16,25.83,-11.04,16.6,-19.19,-2.42,28.18,5.33,36.52,1.37,30.81,43
-26.01,-2.8,11.42,54.39,157.91,18.31,-2.96,-3.0,15.02,0.2,-11.28,-0.24,-4.53,11.94,3.94,-11.96,7.23,-18.95,43
28.49,-2.13,28.3,-0.63,-353.66,-9.37,8.06,-6.66,29.32,-34.23,-5.32,0.59,-1.69,25.46,5.37,34.91,-13.57,37.99,43
-8.89,-11.52,18.45,-20.7,258.64,72.02,-2.49,0.35,16.7,60.64,11.33,0.98,-3.3,14.21,4.63,-15.97,12.65,-35.84,43
-11.1,1.3,2.53,9.47,-384.08,-38.18,3.82,0.31,26.08,-38.72,-18.21,-2.39,-4.13,15.01,4.66,7.62,-17.53,34.03,43
15.36,-5.61,20.27,-47.07,332.18,51.9,0.92,-8.75,17.85,-30.81,14.94,11.43,-0.57,21.43,3.12,-18.26,21.14,-46.78,43
-23.18,-1.06,4.16,37.45,-159.72,-36.87,-1.71,3.3,15.81,50.88,-26.61,-10.3,-4.56,13.07,4.4,-0.44,-4.79,22.02,43
33.8,-7.7,30.04,-34.62,200.98,8.94,3.42,-3.41,21.18,-28.32,21.73,4.59,1.01,29.98,5.56,2.15,10.01,-23.0,43
-15.73,-0.32,12.44,42.97,122.8,0.15,-2.2,-2.72,17.73,10.5,-12.79,-5.18,-5.14,12.72,3.8,-4.83,7.42,-7.76,43
1.27,1.28,22.46,-3.03,-45.85,-10.21,4.92,4.46,25.88,3.47,-8.15,11.18,-1.37,23.59,6.09,20.61,-1.37,14.65,43
0.77,-8.07,21.16,-8.74,-9.81,0.15,1.13,-2.37,19.74,5.66,-3.76,-0.44,-2.82,17.85,4.63,1.42,0.68,-1.76,43
-0.58,-4.89,20.99,2.44,-5.42,-2.05,2.05,-2.71,20.89,2.69,-0.49,-1.46,-2.32,19.57,4.78,2.29,-0.29,1.76,43
-0.86,-4.52,20.64,4.64,-6.79,0.2,2.07,-2.67,21.53,-3.32,-1.32,-2.2,-2.46,19.19,4.28,2.39,0.44,2.1,43
-0.8,-4.83,21.6,-1.17,4.74,0.29,1.75,-3.17,20.39,-3.32,-1.17,1.27,-2.49,18.61,4.38,-1.07,2.49,-3.37,43
-0.76,-4.98,20.83,4.64,-2.73,-0.44,2.18,-2.91,20.99,0.15,-0.2,0.68,-2.2,19.6,4.62,1.76,1.56,0.05,43
-1.11,-5.38,21.13,4.39,-2.05,-0.39,2.06,-3.04,20.91,-3.13,0.1,1.76,-2.36,19.05,4.37,1.17,1.07,-2.59,43
-10.24,0.02,17.44,47.22,56.05,17.72,1.05,-0.82,20.38,32.81,-8.4,2.59,-2.7,17.84,5.78,-4.44,-1.76,-1.46,44
0.93,-2.93,16.66,-29.0,-345.8,-10.6,4.5,-2.14,25.17,-31.1,3.66,11.67,-1.19,22.55,6.15,21.73,-5.37,22.46,44
9.78,-4.7,23.0,-10.25,275.0,18.55,0.22,-5.45,17.96,5.27,15.58,-0.2,-2.74,17.67,3.34,-12.11,15.33,-36.67,44
-17.78,-1.44,9.65,-8.3,-110.55,-6.93,-1.98,1.09,19.01,42.04,-39.4,10.6,-4.14,14.33,4.56,-1.81,-4.49,20.46,44
38.74,-6.98,32.07,27.93,93.8,13.18,4.11,2.19,22.35,-48.78,19.48,4.2,-0.32,27.34,4.74,2.34,8.45,-24.56,44
-23.39,-2.9,10.47,19.53,102.49,-11.67,-3.13,-6.94,15.05,18.65,-15.87,-8.89,-4.77,13.4,4.81,-2.64,0.59,3.08,44
37.6,-3.56,21.68,0.49,-363.33,14.55,6.43,-5.61,28.59,-13.82,10.89,-5.18,-0.69,31.02,6.45,26.51,-4.2,20.26,44
-2.58,-9.3,13.86,-81.49,371.14,87.4,-4.13,0.91,15.0,56.98,16.16,3.03,-4.98,13.15,3.31,-20.46,12.3,-37.35,44
-16.51,1.9,1.62,22.66,-348.49,-25.29,3.34,-2.68,26.53,-6.15,-21.09,-16.89,-4.6,15.06,6.64,10.11,-20.9,40.23,44
21.46,0.81,21.3,-20.26,354.3,16.89,1.2,-8.41,17.63,-56.93,14.26,14.7,-1.62,19.01,4.35,-24.66,24.9,-53.86,44
-19.9,-2.17,6.89,17.04,-14.01,-26.37,-1.68,-8.04,16.35,27.78,-16.65,-8.35,-5.0,13.22,5.34,2.29,-5.18,20.8,44
39.07,-3.15,19.86,6.35,-296.04,-6.54,5.29,-6.07,25.69,-4.15,15.04,-5.08,0.88,29.45,9.32,15.77,-9.96,22.22,44
-3.44,-6.74,18.46,-30.47,240.43,53.13,-2.15,-2.61,16.81,-6.25,-6.35,-1.07,-5.28,13.65,3.63,3.08,14.16,-11.04,44
-4.12,-3.17,18.39,4.2,-20.36,-8.64,4.6,-7.36,21.94,-26.9,-14.36,0.34,-2.71,20.99,5.76,4.69,-2.88,9.03,44
1.69,-5.43,21.75,17.92,-13.92,1.56,1.07,-2.93,20.93,-16.85,-4.25,3.61,-3.24,18.58,3.93,2.83,2.73,-3.56,44
-2.83,-6.49,20.67,-11.43,14.75,-1.03,1.71,-4.25,20.95,-6.84,-3.76,-0.34,-3.05,18.9,5.15,0.73,-0.49,1.17,44
-0.97,-6.21,20.89,1.22,-2.44,3.47,1.64,-3.18,20.88,0.83,-1.9,0.88,-3.06,19.4,4.51,3.17,1.42,-0.54,44
0.14,-4.46,21.35,3.56,-1.27,-0.98,1.39,-3.72,20.81,-3.08,0.15,-0.83,-2.96,19.19,4.55,0.83,0.83,-1.76,44
-1.26,-5.57,20.31,4.39,-5.76,0.73,2.12,-3.04,20.68,8.54,-1.61,-0.83,-2.96,18.98,4.77,1.42,0.88,2.2,44
0.33,-4.24,21.64,3.95,-1.56,-0.83,1.39,-3.02,20.5,-1.9,-0.29,0.05,-2.98,19.23,4.14,0.88,0.78,-1.81,44
-12.89,-1.05,15.72,17.14,18.07,12.16,0.14,-0.07,20.46,41.8,10.74,4.39,-2.73,17.43,4.85,0.63,5.71,1.37,45
32.73,-3.92,21.2,-16.89,-355.71,-37.99,4.69,0.91,24.46,-14.06,-9.57,2.39,-2.1,27.95,4.26,13.04,8.06,0.29,45
0.04,-8.26,17.39,-7.86,330.57,69.87,0.08,-4.39,17.27,-14.8,11.04,-0.54,-3.83,15.87,3.25,-11.82,1.07,-9.08,45
-16.48,-4.43,8.08,-6.2,-253.52,-7.91,-2.32,-2.42,19.3,46.09,-8.25,-4.74,-2.91,16.63,6.79,7.81,-5.18,19.48,45
18.06,0.3,23.69,-24.37,276.76,11.38,2.93,-1.9,22.05,-37.45,14.55,5.08,-3.41,16.91,2.84,-25.93,14.11,-33.11,45
-19.03,-1.56,8.59,49.27,-90.19,-13.62,-2.46,-4.06,16.7,3.52,-12.06,-3.08,-4.23,15.91,4.15,6.35,-8.5,24.85,45
39.07,-4.4,21.76,-17.82,-126.51,-1.27,5.75,-6.85,27.41,-31.74,1.86,10.25,-1.2,25.05,3.78,-4.74,12.89,-29.1,45
-17.28,-4.0,11.88,55.57,172.51,24.37,-2.65,-0.5,16.66,26.71,5.22,-0.88,-4.63,13.24,4.21,-1.71,0.49,9.28,45
19.11,-3.98,23.37,-4.59,-376.42,-13.43,4.7,-0.66,25.84,-29.35,-13.04,9.23,-0.51,31.2,6.1,19.24,-1.95,13.48,45
-8.2,-9.02,14.98,13.92,331.69,90.38,0.64,-8.16,17.12,-15.48,13.43,6.54,-4.87,13.06,4.04,-6.69,3.17,-15.72,45
-16.78,-0.58,4.38,4.74,-355.81,-32.67,-3.05,2.73,17.31,54.83,-26.81,-5.52,-3.71,17.67,6.0,6.45,-13.09,36.43,45
22.06,-1.74,27.91,12.11,234.62,15.09,3.59,-0.02,22.71,-11.47,18.12,5.18,-2.64,16.4,3.68,-20.7,21.68,-39.55,45
-14.54,-2.11,11.89,29.69,37.94,-17.92,-1.73,-2.26,18.02,17.77,-9.77,-2.44,-4.9,19.0,5.38,13.77,-5.57,21.97,45
4.81,-1.24,24.56,-14.94,-77.54,-1.86,2.12,1.41,22.14,28.56,0.68,1.9,-2.94,19.97,3.56,1.17,5.18,-9.47,45
-3.26,-5.01,19.93,-26.12,28.61,-0.05,0.36,-2.81,20.0,-4.79,-3.17,-0.39,-3.8,18.58,4.63,2.59,-2.98,4.2,45
0.01,-4.8,21.25,0.05,-2.54,-8.89,1.75,-3.69,21.33,-6.49,0.1,-0.88,-3.15,19.71,4.13,3.03,2.29,-1.51,45
-2.03,-5.59,20.56,-1.76,1.27,3.42,1.06,-2.85,20.84,-3.47,-2.05,0.39,-3.18,19.69,4.54,3.32,0.1,0.44,45
-1.53,-5.95,20.45,-4.79,2.88,0.49,0.83,-3.11,20.26,2.98,-1.86,-1.86,-3.12,19.43,4.24,3.12,-1.42,-0.34,45
-0.3,-5.69,21.49,2.88,-6.1,1.32,1.28,-2.77,20.93,-1.56,-0.05,0.63,-3.3,18.82,4.08,-0.49,2.78,-1.22,45
-1.09,-5.34,20.44,-2.05,0.05,0.93,1.37,-3.3,21.05,1.61,-1.12,-0.39,-2.86,19.55,4.33,1.27,1.61,-0.15,45
-14.94,-0.69,13.56,-5.37,-15.87,8.64,1.63,-6.06,20.22,42.19,8.01,4.69,-3.76,16.02,3.29,2.25,8.01,10.55,46
39.07,-2.4,21.3,-7.47,-295.95,-34.37,3.56,0.02,21.74,25.88,-23.29,0.93,-1.85,22.32,3.57,-9.42,10.64,-26.66,46
-9.56,-6.79,12.38,46.73,278.22,60.21,1.94,-4.58,20.95,-67.63,7.67,-0.88,-4.26,15.9,4.63,-1.17,-0.83,-2.69,46
-16.0,-1.47,7.15,-10.01,-296.48,-11.47,-0.73,-5.63,18.14,3.47,-9.13,-6.4,-2.27,24.69,4.94,39.99,-6.98,27.2,46
15.51,1.58,21.43,-19.53,315.63,14.36,5.92,-6.87,28.0,-12.01,9.08,2.93,-3.96,13.86,3.31,-21.88,7.42,-33.06,46
-20.85,-1.9,6.82,40.97,-90.19,-22.27,-3.68,0.83,15.36,48.93,6.15,-4.59,-4.06,16.37,4.5,6.74,-15.58,31.84,46
39.07,-6.7,28.26,-27.34,-2.25,-8.06,4.93,1.5,24.08,-37.89,-8.06,-7.52,-1.11,20.32,4.06,-24.95,14.45,-48.44,46
-24.16,-4.09,10.55,40.72,217.68,1.03,1.25,-8.05,16.45,10.11,15.72,6.1,-4.68,13.42,4.99,3.08,-0.44,24.07,46
4.38,-1.98,14.88,-10.4,-396.04,-12.4,-1.26,3.64,20.25,30.52,-23.14,1.71,0.44,30.91,6.14,17.58,1.86,-4.88,46
5.37,-6.71,18.15,-27.0,331.15,81.88,2.35,1.3,21.46,-47.07,20.8,2.98,-5.6,13.49,2.54,-3.22,6.45,-15.04,46
-22.97,-1.02,4.71,23.73,-193.55,-29.0,-1.52,0.25,18.21,16.02,-12.74,-6.93,-3.19,16.95,6.34,0.54,-17.77,32.52,46
39.07,-9.17,34.6,21.73,171.44,9.52,6.97,-3.8,27.18,-52.54,0.68,13.53,-3.0,15.61,3.66,-23.63,22.75,-47.36,46
-12.0,-0.89,10.15,29.44,186.18,-17.77,-1.62,-2.57,15.69,6.93,14.16,-1.27,-3.92,17.11,5.02,12.65,-8.64,27.59,46
-1.14,-1.92,22.21,-9.81,-41.8,-3.37,3.65,-3.56,23.02,8.15,-14.99,3.13,-2.6,19.21,4.09,-4.93,4.54,-9.28,46
-0.5,-4.45,19.77,33.15,-1.86,2.83,0.8,-2.17,19.42,11.18,3.91,1.66,-3.24,19.33,4.12,2.34,-0.49,1.07,46
-2.01,-5.17,20.96,-1.81,-2.0,-2.73,1.68,-3.16,21.07,0.05,-1.76,-1.12,-3.24,18.53,4.11,1.51,2.15,-1.76,46
-2.03,-5.03,20.58,1.9,-0.73,1.22,1.2,-3.06,20.3,0.68,-0.63,-0.05,-3.23,18.52,3.94,4.49,-0.15,3.81,46
-0.96,-4.32,21.58,4.88,-3.66,-1.17,1.87,-2.73,21.43,4.98,0.29,-2.0,-2.82,19.1,4.28,-0.83,1.9,-2.44,46
-3.02,-5.6,20.22,-7.23,4.64,1.61,1.25,-2.93,20.32,0.98,-0.78,-0.54,-2.3,20.56,4.92,4.44,2.05,1.12,46
-1.05,-4.49,21.85,-3.17,2.83,1.42,1.8,-2.91,21.28,-4.2,0.34,1.71,-3.06,18.51,3.92,-0.2,0.1,-1.12,46
12.02,-5.45,16.23,-8.5,-468.16,-25.59,6.29,-5.6,26.13,-24.85,8.15,10.35,-1.63,26.02,4.65,-1.12,13.67,-16.02,47
1.32,-3.84,12.93,-73.44,377.64,52.98,-1.23,-3.56,16.95,56.93,16.36,0.93,-5.02,14.68,4.11,-8.4,-3.22,-3.08,47
-20.48,-3.95,8.52,20.17,-129.35,-21.39,5.99,-3.16,23.52,4.88,-30.08,8.25,-3.43,16.48,5.65,7.86,-7.76,30.62,47
39.07,-6.43,29.38,26.71,33.11,16.21,0.81,-3.78,20.36,-45.07,16.55,3.52,-3.3,18.29,1.66,-19.19,18.31,-35.99,47
-23.01,-3.71,10.3,12.35,137.3,-15.72,-2.12,-7.38,16.73,43.12,-17.04,-11.04,-4.71,14.13,4.38,0.68,-10.25,21.04,47
26.69,-4.55,20.68,-5.52,-428.52,5.57,4.91,-4.21,26.21,-3.52,12.35,-4.39,-2.35,25.18,1.9,-0.0,15.82,-25.59,47
6.64,-2.48,14.81,-64.99,357.86,51.46,-2.4,0.08,16.57,38.48,2.34,-1.03,-4.91,14.97,4.77,1.17,2.2,1.37,47
-18.29,3.04,3.25,78.08,-293.21,-37.26,5.27,1.02,26.2,-24.22,-13.48,-1.86,-1.63,27.97,6.53,36.18,-7.91,24.02,47
22.81,-1.33,25.32,1.46,276.81,18.07,1.52,-5.46,18.01,-26.27,11.18,9.77,-4.58,14.3,3.2,-22.02,8.89,-30.62,47
-23.08,-3.65,8.15,32.47,18.16,-8.79,1.77,-1.65,18.45,36.03,-39.75,-6.05,-4.37,16.36,5.76,11.67,-14.06,37.3,47
39.07,-7.87,17.85,-29.0,-197.95,1.86,1.39,-0.29,21.78,5.62,28.22,-1.22,-1.54,18.68,4.53,-23.54,16.21,-42.24,47
-4.42,-6.14,16.23,25.34,227.05,55.37,-1.88,-2.26,17.5,14.99,-10.79,-5.91,-4.65,16.25,4.32,7.81,-8.2,18.85,47
-3.01,-0.45,18.58,13.28,-58.54,-13.13,2.89,3.66,18.44,13.87,1.95,-0.49,-2.37,20.56,4.32,3.42,2.05,-3.08,47
0.42,-8.32,21.29,-40.82,-40.19,3.91,0.57,-3.37,21.76,-18.65,-3.76,2.44,-3.25,19.66,4.06,3.71,-0.98,-0.34,47
-1.23,-4.89,20.82,-13.82,16.65,-1.07,1.55,-3.35,20.87,-7.72,-0.49,-2.44,-2.99,19.38,4.36,2.44,0.78,-0.83,47
-2.26,-6.66,20.4,-9.57,5.22,0.54,1.65,-3.29,20.81,0.49,-1.32,1.32,-3.06,19.17,4.05,1.9,1.81,-0.54,47
-1.15,-5.18,21.07,2.98,-1.42,-0.29,1.68,-3.36,20.76,-1.76,-2.34,0.54,-2.95,19.2,4.31,1.03,1.03,-1.03,47
-0.29,-5.2,21.15,-2.0,-1.71,0.73,1.51,-3.79,20.65,0.39,-1.27,-0.24,-3.15,19.02,4.0,2.15,0.78,-0.63,47
-1.43,-5.65,20.94,3.17,-3.22,0.05,1.67,-3.79,20.79,0.29,-0.44,-0.93,-2.94,19.57,4.07,3.66,-0.15,0.59,47
-1.69,-6.14,20.92,-0.29,2.29,1.37,1.65,-3.73,20.42,1.07,-0.78,-0.15,-3.28,18.65,3.93,0.54,0.63,-0.39,47
-10.23,-2.44,17.94,50.63,-45.21,21.39,0.86,-2.16,20.48,14.6,4.39,1.32,-2.63,18.88,5.73,-2.44,0.98,-5.13,48
36.07,-2.51,19.55,46.09,-148.78,-16.7,3.06,0.56,23.28,-9.77,-4.35,1.76,-2.02,20.75,5.92,17.77,-8.45,19.92,48
-9.09,-3.45,9.95,27.0,371.78,43.7,1.87,-8.15,18.59,-33.84,11.52,0.68,-3.61,19.68,1.89,-8.45,19.29,-31.74,48
-13.6,-0.01,0.4,-8.64,-409.86,-37.11,-3.49,-8.82,22.86,14.99,-34.67,-25.0,-4.62,14.18,4.01,-2.39,-3.08,21.88,48
26.0,3.24,22.85,-14.8,358.06,23.39,3.71,1.01,25.94,6.1,13.82,-15.97,-1.25,27.26,4.52,2.2,15.28,-15.82,48
-25.66,-3.5,4.2,46.09,-88.82,-12.26,-3.78,3.32,14.17,33.25,-2.78,-2.98,-4.7,12.18,4.04,-10.35,2.78,-11.28,48
39.07,-4.22,15.72,-15.87,-281.35,-3.03,4.98,0.28,26.08,-41.11,-2.44,7.13,-2.54,25.04,5.99,34.57,-15.14,31.88,48
-14.27,-6.2,7.94,-14.06,350.0,44.34,0.57,-7.71,17.45,-11.28,15.43,6.79,-3.97,15.5,2.37,-29.39,20.07,-44.29,48
2.62,0.34,6.95,7.28,-499.66,-21.58,0.67,-3.26,19.51,16.85,-58.35,18.6,-4.82,13.52,4.56,7.57,-17.72,36.87,48
18.96,-1.08,15.24,-38.23,425.29,33.54,6.02,2.44,22.88,-28.37,25.54,-0.24,-0.0,27.79,4.76,-1.95,11.62,-31.15,48
-21.9,-2.68,5.36,42.82,-88.28,-29.2,-4.85,6.94,16.41,19.14,-17.72,-12.21,-5.35,14.19,4.01,5.18,-0.78,2.78,48
39.07,-15.48,23.45,-65.87,-110.35,15.67,6.12,-2.75,27.79,-34.42,10.21,25.78,-1.56,26.65,6.93,23.63,-11.47,24.46,48
-5.91,-0.68,12.6,73.19,197.36,25.39,-0.8,-3.45,15.42,17.38,19.24,-0.88,-3.44,15.91,3.99,-5.27,20.9,-36.18,48
-0.02,1.04,19.1,25.2,-56.1,-0.29,3.11,-5.52,23.63,1.37,-21.04,4.1,-3.47,18.44,5.53,19.73,-20.17,42.58,48
4.01,-8.88,24.91,-61.38,-37.89,-10.35,1.75,-3.09,20.45,-2.59,3.81,6.01,-1.88,19.92,3.55,-3.27,-0.39,-15.14,48
-0.14,-3.82,20.06,-6.98,3.03,-4.88,2.11,-3.14,21.11,-10.6,-6.59,-3.76,-3.06,19.1,4.09,2.34,-2.34,4.79,48
-0.85,-6.19,21.07,-2.0,-0.49,1.9,1.65,-2.83,20.51,-1.22,0.15,1.56,-2.63,18.64,4.26,2.15,2.2,-0.98,48
-0.58,-5.04,21.16,-7.76,8.2,0.73,2.09,-3.12,20.56,-2.0,-1.61,-0.05,-2.53,19.44,3.99,0.98,1.86,-0.83,48
-0.73,-5.37,20.85,1.51,-5.03,-0.05,2.2,-3.52,20.62,-2.15,-1.76,0.78,-2.39,19.2,4.39,2.25,0.49,0.34,48
-0.79,-5.08,20.8,0.93,-3.76,0.34,2.18,-3.26,20.4,-2.15,-5.52,-0.78,-2.57,19.29,3.85,0.83,0.78,1.95,48
-14.5,-3.57,15.03,29.25,21.83,20.31,-1.09,-6.4,15.83,34.37,-8.15,-8.84,-3.3,20.34,2.22,-12.01,3.42,-9.18,49
29.09,-10.99,18.88,-19.38,-404.64,-40.92,5.89,-3.39,25.46,-12.89,14.36,5.32,-3.0,16.05,4.15,3.22,-4.35,24.71,49
-3.32,-4.88,17.24,-5.18,302.98,55.32,-0.86,-2.12,17.15,38.92,9.81,0.24,-1.03,22.07,4.12,-11.77,11.91,-34.96,49
-19.52,-0.89,3.74,34.03,-247.66,-4.44,3.09,-0.35,25.79,16.26,-23.49,-18.16,-4.35,16.55,4.48,0.34,-7.71,2.34,49
20.63,-1.32,27.85,14.31,301.86,0.44,1.91,-5.78,18.84,-40.33,12.74,6.54,-1.94,29.13,5.28,38.87,-5.47,28.13,49
-19.98,-4.26,9.45,21.63,-15.04,-4.25,-3.41,-0.65,14.35,52.25,-25.83,-14.79,-4.59,14.74,1.81,-15.53,12.16,-26.76,49
39.07,-3.2,19.14,4.78,-268.75,0.29,3.35,1.7,22.83,5.32,21.48,-3.17,-3.63,17.29,5.0,9.13,-16.65,33.98,49
-14.61,-8.85,12.79,-22.56,251.46,46.19,-1.7,-1.3,14.71,12.94,-8.69,-4.1,-1.41,18.66,3.6,-19.38,20.12,-44.04,49
-0.2,1.52,6.85,5.66,-450.73,-28.66,6.25,-4.57,28.54,-53.56,0.0,17.04,-5.13,13.05,3.14,-2.2,-6.88,24.9,49
15.92,-2.97,17.98,-57.96,353.71,43.21,-0.37,-5.64,16.01,-8.84,13.87,8.59,0.82,29.85,6.11,8.59,9.72,-14.45,49
-17.16,-2.15,9.6,48.58,-52.0,-26.61,-0.97,-1.41,17.96,48.24,-16.8,0.39,-4.73,13.42,2.4,-2.69,8.01,-10.06,49
39.07,-8.36,16.51,-2.83,-209.96,-5.71,3.26,-2.03,21.37,8.3,20.85,-7.18,-3.17,17.87,4.88,1.9,-9.08,36.04,49
0.29,-3.66,16.13,13.72,163.96,26.66,-0.32,-2.54,17.53,3.03,-8.89,-11.62,-2.42,17.92,3.5,-10.01,15.82,-30.76,49
-3.72,0.89,18.85,32.91,0.2,7.76,3.12,-3.06,21.96,1.12,-3.12,3.32,-3.22,16.93,5.35,2.73,-9.37,13.62,49
2.85,-3.43,22.61,-21.29,-21.97,-17.33,2.62,-3.23,21.0,-4.35,-1.17,5.47,-1.82,20.41,4.46,13.92,-1.37,3.96,49
-1.93,-5.28,20.46,-0.2,-1.76,-3.91,2.69,-3.21,21.0,1.37,-1.95,1.07,-2.6,18.94,3.97,-0.0,-0.05,-2.0,49
0.1,-5.41,21.01,-1.71,-1.66,2.78,2.31,-2.63,20.54,-3.42,-0.1,0.49,-2.36,19.54,4.0,2.54,2.1,-0.63,49
0.05,-4.39,21.1,-3.71,5.91,-0.39,2.13,-3.15,20.21,2.39,-0.44,-1.03,-2.36,19.6,4.09,1.86,0.68,-1.22,49
-0.78,-4.95,20.45,5.71,-8.2,0.0,2.67,-2.69,20.82,7.96,0.44,-0.78,-2.53,18.52,4.02,0.24,0.88,0.83,49
0.91,-3.68,21.54,11.23,-7.32,0.78,2.49,-2.78,20.65,0.44,-0.54,-0.34,-2.56,19.19,3.9,1.32,2.78,-1.51,49
-9.66,-5.91,17.66,47.56,133.69,35.35,2.4,-6.99,19.97,31.64,12.4,0.0,-1.99,18.0,5.96,0.59,2.78,-3.42,50
-11.68,-0.22,8.03,-19.34,-318.12,-22.51,2.12,1.2,19.11,40.28,-26.95,-4.15,-1.27,24.75,5.39,27.29,-5.96,26.22,50
30.15,-3.13,29.63,12.11,286.91,35.3,4.12,-6.48,22.04,-109.96,9.33,6.2,-3.14,16.84,2.89,-4.49,20.56,-39.99,50
-15.34,-0.91,8.56,-38.18,-41.06,-34.62,-0.44,-1.45,18.73,22.51,-13.67,0.88,-3.78,18.18,4.71,10.94,-6.15,28.81,50
39.07,-2.58,20.54,9.03,-371.83,-20.26,4.23,-3.5,24.83,-36.47,-3.03,14.65,-0.23,28.99,4.61,11.03,5.37,-13.33,50
-13.05,-8.92,16.71,41.02,241.65,51.71,-0.61,-4.55,16.86,42.43,12.89,3.91,-4.99,15.18,4.41,1.51,0.63,1.22,50
-6.54,0.82,7.95,-13.04,-375.34,-40.72,6.14,-4.79,23.57,-21.39,-31.4,3.66,-1.31,26.68,6.71,29.3,-8.45,25.24,50
12.6,-2.65,17.44,-27.3,331.54,38.04,3.0,-2.68,19.7,-34.72,18.12,2.2,-3.73,12.8,3.94,-17.87,5.66,-24.12,50
-18.25,-0.02,5.07,53.76,-231.01,-47.85,-1.77,-5.25,15.68,57.76,-24.22,-13.87,-3.5,16.32,5.81,11.52,-14.26,39.7,50
37.42,-2.87,30.14,-6.25,283.89,15.09,5.45,1.03,26.42,0.63,19.29,-8.98,-1.56,19.03,3.54,-26.37,21.83,-54.15,50
-24.91,0.37,10.68,55.76,99.27,-4.54,-3.32,3.37,14.07,-0.68,-12.5,0.54,-5.04,12.29,3.53,3.32,1.46,29.88,50
35.88,-3.88,24.18,-22.46,-377.88,12.3,6.33,-4.21,28.25,-45.61,-2.29,18.9,1.07,32.6,6.34,0.68,11.77,-27.78,50
-8.2,-2.62,18.17,41.02,253.81,48.78,-0.63,-5.02,15.85,30.08,18.99,4.49,-4.97,12.57,2.6,5.66,11.62,-6.01,50
-1.48,2.96,17.4,30.27,-93.99,-28.96,3.04,-3.08,23.24,1.12,-9.52,4.05,-2.09,22.51,4.98,1.37,-7.08,7.08,50
-3.08,-6.89,22.43,-33.79,-24.02,0.54,2.57,-3.23,20.53,-4.05,-3.71,8.01,-2.7,19.14,4.45,7.86,-0.49,2.05,50
-1.04,-3.64,20.83,-3.22,7.86,-6.74,1.95,-2.3,20.09,-8.94,-0.68,-0.59,-2.93,19.05,4.03,-0.49,1.03,-1.07,50
-1.99,-6.1,20.47,-7.42,5.27,1.03,1.85,-3.26,20.41,0.59,-2.69,-1.9,-2.82,18.96,4.14,0.24,0.98,1.95,50
-0.61,-6.33,21.56,3.61,-7.37,-2.83,2.18,-2.76,20.93,-1.51,0.54,-0.54,-2.18,20.1,4.63,1.86,-0.68,-1.03,50
-1.53,-5.63,21.06,-11.67,10.4,2.34,1.48,-3.28,20.2,-1.22,-2.39,0.2,-2.72,18.6,4.16,-1.76,1.42,1.66,50
-0.56,-5.4,20.95,0.83,-6.93,-1.17,2.42,-3.54,21.3,-0.0,-0.2,0.49,-2.77,19.12,4.07,1.17,3.42,-3.37,50
-9.78,-0.24,17.03,69.09,33.79,22.9,1.99,-2.51,20.64,0.44,1.03,-0.54,-2.98,18.85,3.83,-2.05,1.95,-4.54,51
7.27,-5.37,19.19,-36.91,-327.69,-26.81,2.14,-2.86,20.65,0.34,-0.63,-0.24,-3.39,16.06,3.28,-1.86,8.2,5.08,51
10.17,-2.8,14.71,-29.15,348.63,49.17,1.96,-2.81,20.87,0.24,-0.15,-0.1,-1.65,26.5,3.33,5.27,6.98,-13.48,51
-19.94,-0.46,7.26,-27.44,-189.7,-31.45,2.0,-2.84,20.6,-0.34,-0.83,-0.2,-2.83,15.57,6.44,-5.76,-4.79,-4.35,51
30.05,-1.16,29.99,28.42,179.2,-0.93,1.92,-2.57,20.66,1.46,-1.03,-0.49,-1.84,24.73,5.91,45.7,-6.54,19.63,51
-20.76,-4.19,10.74,52.54,84.86,-5.66,2.22,-2.76,20.65,0.49,-3.71,0.1,-3.22,16.05,2.47,-17.33,9.08,-32.91,51
39.07,-5.34,17.2,-21.09,-341.6,5.18,2.3,-2.25,20.75,-0.0,-0.24,0.34,-4.01,15.47,5.35,2.83,-14.94,31.59,51
1.23,-2.57,12.47,-58.11,348.88,63.23,1.92,-2.64,20.32,-0.78,-0.83,0.34,-1.2,20.34,4.25,-17.33,12.16,-35.94,51
-13.58,2.93,3.03,48.63,-369.14,-38.09,2.35,-2.42,20.73,-1.51,-0.34,0.83,-4.21,13.67,5.71,-6.05,-1.86,4.44,51
23.24,0.15,22.57,-17.43,260.94,25.29,2.26,-2.7,20.57,0.73,-2.49,-0.98,-0.13,29.19,7.24,23.49,-6.15,20.46,51
-21.04,-5.32,10.89,15.82,138.96,-24.66,1.65,-4.05,21.25,-11.82,-2.0,-6.98,-3.96,16.22,2.72,-11.62,9.42,-23.29,51
3.31,1.03,14.44,-14.36,-437.01,8.84,2.73,-3.33,21.34,-13.23,-1.76,4.0,-3.63,18.09,4.16,9.18,-4.35,17.29,51
7.94,-4.46,20.43,-6.1,180.13,44.38,1.86,-2.63,20.17,4.93,1.56,-1.37,-1.57,20.85,4.75,-5.71,11.23,-19.14,51
-6.96,-7.42,17.45,-2.25,51.61,-21.53,2.12,-2.98,20.5,4.44,1.12,-0.68,-3.57,16.43,4.27,-4.59,-2.83,-0.98,51
0.84,-5.87,22.0,-23.44,-14.79,-13.18,2.4,-3.44,20.83,-3.22,-1.81,1.32,-2.24,20.38,3.99,10.06,1.51,4.25,51
1.53,-3.75,20.67,-7.13,-2.34,-2.44,2.05,-2.94,20.82,1.12,0.24,-0.54,-2.71,18.57,3.64,-0.24,1.86,-1.71,51
0.97,-4.89,21.27,-6.64,5.42,2.64,1.86,-2.89,20.49,0.49,0.1,-0.29,-2.53,19.0,4.65,2.29,2.2,-0.34,51
-0.55,-5.15,20.5,1.42,-6.84,-1.46,1.89,-3.23,20.75,-1.47,-0.63,0.1,-2.45,18.75,4.16,0.44,0.1,2.98,51
0.74,-4.63,21.43,-2.05,0.98,1.07,2.11,-3.12,20.91,-0.15,-0.2,0.15,-2.51,19.23,4.03,0.78,2.2,-1.51,51
0.17,-5.5,21.06,6.01,-9.03,-2.2,1.87,-3.04,20.51,0.63,-1.46,-0.44,-2.51,19.17,3.98,1.76,0.34,1.71,51
39.07,2.09,12.43,75.49,-252.0,-2.83,2.04,-2.79,20.84,-45.95,9.81,-3.81,-2.33,25.81,3.52,16.16,2.93,15.58,52
9.17,-1.59,20.62,27.73,266.06,23.24,-6.07,8.03,15.3,72.7,-38.04,-2.59,-3.22,19.23,1.16,-20.36,2.69,-23.88,52
-20.62,-0.58,3.13,28.81,-217.29,17.33,3.91,-0.48,24.32,-42.29,17.68,-0.73,-5.08,10.53,4.5,-1.17,-3.52,23.0,52
23.55,3.78,27.29,3.81,269.82,-25.39,-4.17,-3.31,14.13,9.37,-10.45,-2.78,-1.96,21.98,2.14,-20.17,17.48,-36.96,52
-24.61,-0.85,6.24,23.24,-24.27,-2.59,6.53,-0.51,29.62,-24.37,10.25,17.29,-5.56,12.45,2.01,1.66,5.52,13.53,52
39.07,0.77,21.02,-1.95,71.88,8.15,-3.7,2.62,17.1,52.0,17.72,5.03,-1.18,28.81,4.04,4.25,1.03,-15.97,52
-22.67,1.46,11.09,4.44,232.81,-10.84,5.11,1.27,26.27,-36.62,-18.12,10.01,-4.6,12.96,3.16,-6.98,2.49,-7.62,52
28.21,-2.8,16.95,33.45,-488.48,-6.3,0.18,-4.3,17.49,-41.75,15.63,5.81,-2.16,30.17,5.13,36.03,-14.65,32.18,52
2.65,-8.51,15.98,-82.57,351.27,62.45,-7.28,0.57,6.61,45.02,-24.85,-6.4,-4.62,16.82,0.45,-8.2,13.23,-29.05,52
-25.64,-0.64,1.62,42.63,-222.56,16.94,3.96,-4.42,24.67,-21.78,24.22,8.15,-5.87,15.23,1.53,3.12,-2.64,20.85,52
27.75,-4.44,29.31,15.04,208.4,3.66,-2.15,-1.41,17.57,13.77,-4.2,-3.22,-1.98,21.55,3.63,-21.24,12.89,-27.69,52
-12.55,-1.83,13.07,-19.34,118.41,-39.55,3.34,0.82,23.65,8.4,-1.42,3.76,-4.93,15.99,2.96,8.4,-2.69,11.08,52
1.15,2.93,23.25,1.51,-58.59,-3.32,1.21,-1.06,20.05,-5.57,-1.81,-0.63,-2.7,21.17,2.8,1.32,1.27,-2.15,52
-0.3,-2.66,20.46,14.45,18.41,5.18,1.39,-1.96,20.74,-2.05,2.15,-1.37,-3.65,18.72,2.25,2.05,0.39,0.68,52
-0.28,-2.93,21.37,-10.74,6.05,-3.42,1.53,-2.06,20.6,-1.51,-0.2,0.1,-3.1,19.49,3.02,1.56,-0.1,-1.86,52
-1.09,-3.66,20.85,-4.05,6.59,-0.59,1.68,-2.09,21.2,-0.59,-2.2,-1.12,-3.23,19.57,2.67,0.93,0.93,-0.49,52
-1.17,-3.78,20.95,3.61,-4.1,0.1,1.34,-1.63,20.25,-0.68,-1.22,0.34,-3.32,19.57,2.65,1.51,0.15,0.98,52
-0.88,-3.96,21.33,0.49,0.29,0.98,1.64,-2.04,20.99,-2.73,2.0,0.68,-3.38,19.09,2.62,1.27,-0.05,0.93,52
-0.81,-4.71,21.32,0.05,-4.15,-0.29,1.83,-2.29,21.0,-0.1,-1.76,-0.73,-3.18,19.87,2.78,1.27,1.32,-1.37,52
-1.31,-4.07,20.82,1.32,-1.37,0.78,1.58,-2.2,20.81,-0.2,0.15,-0.49,-3.21,19.41,2.8,2.29,0.34,0.83,52
39.07,-5.96,25.17,-3.76,-157.18,-17.14,0.61,-3.76,19.24,15.28,3.08,-3.22,-2.95,17.91,4.32,-1.81,0.39,1.07,53
-23.74,1.65,11.57,42.77,254.39,-3.22,0.19,0.77,19.8,28.27,-13.43,-2.44,-2.88,25.49,4.2,4.1,0.68,-1.12,53
-5.12,0.05,5.45,-12.74,-502.93,-9.37,1.99,-3.54,22.01,-80.22,4.83,-9.18,-4.63,15.32,2.03,-5.66,2.1,-13.48,53
13.88,0.45,19.48,-14.75,300.29,25.78,-0.07,-2.6,17.49,7.67,-13.92,-3.81,-4.56,15.57,4.75,2.2,-5.62,28.22,53
-24.51,-3.04,4.89,17.14,-122.56,-20.41,6.0,-5.26,26.99,-24.56,15.23,13.53,-3.56,18.42,2.3,-14.21,13.53,-27.93,53
35.88,-4.76,36.23,6.69,188.18,-5.86,-0.28,-4.61,18.48,54.93,15.63,6.84,-4.96,13.73,3.14,-2.34,0.0,19.38,53
-25.14,-3.79,8.23,-9.23,88.62,2.73,4.65,-0.34,24.62,-3.13,-28.17,-4.83,-0.55,30.47,5.57,9.86,7.23,-21.63,53
16.49,-0.86,20.75,-27.69,-474.32,1.12,1.64,-4.18,17.81,-48.63,9.57,3.61,-5.47,13.27,2.19,-0.68,-2.39,-6.79,53
-0.49,-7.98,18.31,-8.2,342.43,60.74,-0.43,-3.59,18.33,47.31,-25.39,-9.91,-3.02,29.03,3.13,42.43,-10.11,38.43,53
-26.3,3.94,-0.12,31.4,-317.58,-29.39,4.04,0.51,22.8,-37.11,21.58,-7.96,-3.97,16.09,2.26,-12.79,12.45,-35.3,53
11.22,-1.88,22.28,19.87,208.94,22.71,-2.14,3.48,16.5,62.99,1.46,10.6,-5.75,14.87,1.54,7.18,-3.27,28.91,53
-5.03,-4.07,15.54,-9.33,92.29,-33.25,8.7,-4.6,27.97,-29.88,-17.19,5.66,-1.47,21.33,4.16,-9.42,10.4,-26.86,53
-1.36,-1.5,22.16,-5.08,-0.93,5.37,0.02,-0.52,17.12,8.5,17.68,8.79,-4.3,17.19,2.54,5.62,-2.59,8.54,53
-2.05,-5.41,20.97,-31.93,5.03,-3.61,2.77,-2.93,22.35,0.29,-5.76,-2.59,-2.92,19.82,3.76,4.0,2.39,-2.15,53
-0.47,-3.7,21.46,1.86,-8.45,2.69,1.95,-3.75,20.21,-6.98,0.34,4.64,-3.34,19.33,2.91,2.44,-0.98,1.76,53
-1.81,-4.49,21.01,-3.81,-1.03,-1.37,2.66,-2.4,20.89,4.54,0.88,6.79,-3.31,18.36,3.17,2.2,2.69,-1.46,53
-1.46,-5.16,21.02,-1.47,-1.46,0.68,2.02,-1.83,20.74,3.95,-0.98,-0.34,-3.39,19.15,3.15,0.73,0.83,0.39,53
-1.56,-4.26,21.68,-8.35,5.66,1.81,1.93,-1.91,20.79,0.39,-0.49,-0.78,-3.11,19.23,3.04,1.07,0.63,0.98,53
-0.96,-3.84,21.33,5.76,-7.47,-0.93,2.1,-1.87,21.18,-0.78,-0.15,0.0,-3.15,19.18,2.84,-0.39,1.66,-1.86,53
-2.04,-4.66,20.79,5.18,-1.9,1.22,1.86,-1.88,20.64,2.34,-2.25,-1.22,-3.09,20.05,3.11,2.29,0.05,-0.24,53
-10.44,-1.4,6.91,-29.0,-392.04,-35.35,1.02,-1.88,18.38,12.16,-14.11,0.44,-4.2,16.87,3.16,-5.47,-1.27,-2.1,54
12.19,-4.93,21.93,0.83,276.71,60.01,4.73,-2.51,25.41,-14.4,15.38,12.89,-3.05,23.63,2.95,24.9,-2.93,24.95,54
-21.82,0.16,5.89,5.03,-158.84,-28.22,-2.25,-0.13,17.21,66.5,25.39,6.93,-3.79,18.17,2.12,-7.76,9.23,-31.01,54
33.59,-8.12,31.23,1.76,91.21,3.42,5.92,-0.6,26.89,-8.15,-26.9,-5.76,-4.8,14.41,1.97,0.83,-6.45,25.05,54
-22.65,0.57,8.72,12.35,85.79,-11.08,0.97,-5.59,18.34,-20.31,16.85,8.94,-1.32,24.06,4.03,-13.62,9.42,-36.82,54
38.21,-2.46,23.92,18.36,-321.48,-2.98,-3.43,5.91,19.25,35.74,-32.32,-8.45,-5.17,12.26,2.7,-0.83,-0.44,13.57,54
-15.13,-4.27,12.43,21.24,291.6,50.34,4.28,-0.94,21.86,-44.53,18.26,-3.27,-0.61,29.97,5.93,8.3,-0.68,-1.86,54
-4.51,1.26,7.46,-0.68,-410.79,-19.14,-2.76,-5.17,15.4,17.72,-19.09,-8.84,-5.12,12.39,2.69,-7.67,6.59,-16.75,54
13.27,-4.4,19.9,-33.69,269.53,37.99,6.38,-5.26,27.4,-24.22,13.33,9.08,-2.75,27.96,3.99,36.52,-11.33,39.84,54
-19.21,-1.67,11.34,31.25,-9.08,-19.73,-0.69,-3.93,17.22,21.24,3.71,-0.39,-3.85,14.65,2.87,-14.75,10.5,-30.32,54
39.07,-7.62,25.11,-45.56,-10.21,-0.73,2.46,-0.7,21.95,11.96,-33.3,-9.52,-4.98,16.1,2.84,2.44,1.27,16.16,54
-2.86,-0.85,16.31,0.39,108.94,2.49,0.95,-0.86,18.66,4.2,12.06,-3.32,-2.01,22.92,4.24,0.88,7.91,-15.14,54
-1.35,-1.49,20.8,34.23,-19.38,18.07,1.51,-3.54,20.91,-9.72,-3.96,8.06,-4.13,15.78,3.11,-3.22,-2.93,1.51,54
2.45,-5.02,21.4,-27.05,-13.53,-3.66,1.5,-0.07,19.37,9.47,0.34,1.22,-2.87,20.52,4.08,2.93,2.49,-4.64,54
-0.13,-3.4,21.24,8.84,-11.08,-6.1,1.55,-1.83,20.44,3.66,-1.51,-0.83,-3.57,19.47,3.79,-1.27,-9.86,-3.22,54
-1.54,-4.43,20.84,6.4,-5.03,-0.05,1.57,-2.27,20.4,3.32,0.68,0.2,-3.69,20.1,3.3,11.03,7.62,5.42,54
-0.72,-4.62,21.25,-2.59,0.34,2.39,1.44,-2.21,20.98,-2.05,0.2,3.13,-3.55,19.5,3.26,5.52,2.44,2.2,54
-1.62,-4.87,20.95,0.59,-0.78,0.49,1.45,-2.26,20.87,1.86,-2.0,-1.46,-3.46,18.94,3.33,1.46,0.73,-0.68,54
-1.55,-4.75,21.19,0.98,1.86,2.73,1.85,-2.35,20.6,1.66,0.83,0.15,-3.49,19.2,3.24,1.27,0.98,0.24,54
-0.85,-4.59,21.67,0.29,0.05,0.73,1.56,-2.33,21.27,0.05,-0.34,-0.73,-3.58,18.44,3.0,0.15,1.27,1.17,54
-11.79,-2.73,17.52,-1.07,-23.73,2.2,2.03,-0.19,22.57,22.07,8.3,-2.2,-4.08,18.16,3.46,-3.27,-2.49,-2.29,55
25.71,-1.49,22.7,39.6,-71.78,-5.37,2.52,-1.84,23.71,3.86,-7.86,-0.49,-2.15,26.39,5.44,38.18,-4.15,19.82,55
-2.67,-4.09,15.39,65.38,209.81,36.43,1.04,-2.4,20.48,-20.65,9.72,1.86,-3.86,16.86,0.92,-13.23,6.25,-25.63,55
-11.45,-1.15,9.29,-50.73,-299.37,-6.74,-1.14,-6.34,17.47,30.32,-5.71,-5.37,-4.2,15.87,4.75,7.86,-8.01,27.05,55
17.25,6.48,21.72,19.92,280.76,1.81,3.43,-4.16,25.38,-22.95,15.82,14.6,-2.78,19.68,2.39,-16.7,12.35,-40.53,55
-19.77,-3.4,7.95,52.93,-70.65,-1.51,-1.66,-0.1,17.51,13.96,2.39,-0.49,-4.52,15.64,4.22,-1.9,-3.56,18.07,55
39.07,-7.21,27.33,11.23,128.32,-6.64,5.27,-0.79,25.75,-27.73,-9.96,-1.56,-1.99,27.43,6.11,17.14,-1.27,12.45,55
-17.43,-5.32,11.23,33.89,183.89,-5.62,-1.1,-2.83,16.78,-14.26,19.63,8.45,-5.13,15.25,1.83,-6.98,9.13,-22.07,55
1.47,-2.39,13.31,-45.8,-428.08,-7.28,0.79,-1.61,19.31,35.01,-28.71,-3.76,-5.21,17.44,1.55,7.42,0.1,15.38,55
12.94,-0.48,18.05,-46.14,304.79,24.66,2.65,-0.73,22.79,0.24,19.48,2.05,-2.5,22.22,2.92,-14.4,12.01,-29.1,55
-21.79,2.26,10.06,51.32,3.76,16.36,-0.5,-5.62,17.49,38.43,5.66,-0.29,-4.52,16.09,3.13,2.83,-2.64,10.06,55
39.07,-5.04,14.29,-56.69,-430.03,-23.29,5.99,-4.76,26.26,-14.75,-45.7,-7.71,-2.37,22.11,3.95,6.3,0.63,0.98,55
-6.95,-0.53,18.71,4.88,206.01,16.36,0.24,-0.61,18.51,-16.99,10.21,-3.86,-3.13,19.49,3.29,5.47,-0.78,3.56,55
-5.33,-2.87,20.09,-0.63,-52.34,-2.93,1.84,-4.09,21.66,-7.13,-12.7,4.44,-2.93,19.39,3.43,1.22,0.59,-0.88,55
-0.16,-5.91,21.03,-6.25,-19.78,0.15,1.99,-2.78,20.94,2.49,3.61,-0.49,-3.09,19.73,3.15,2.59,2.15,-1.56,55
-2.05,-3.1,21.65,-7.23,4.2,-4.83,2.11,-2.52,21.21,5.52,-2.2,-0.88,-3.03,19.44,3.26,1.71,0.34,0.44,55
-0.63,-4.1,20.66,0.54,-2.29,-0.78,1.89,-2.31,20.48,-2.49,-1.86,2.05,-3.24,19.15,2.76,0.54,2.0,-1.76,55
-1.05,-4.94,20.98,-4.93,1.27,3.37,1.99,-2.43,20.7,-3.37,-1.71,2.93,-3.05,19.43,3.24,2.49,0.44,0.0,55
-1.52,-5.51,20.82,0.24,-3.47,0.44,2.09,-2.68,20.82,3.52,-1.32,-0.93,-3.28,19.45,2.98,2.49,2.0,-3.56,55
-0.98,-4.83,21.06,2.54,-0.93,0.0,1.86,-2.27,20.38,1.27,0.88,-0.68,-3.39,19.31,2.88,2.39,0.73,1.66,55
30.19,-8.94,20.53,1.27,-289.65,-15.82,4.43,1.18,23.95,15.58,-12.55,-7.42,-3.08,20.36,2.85,-2.98,7.52,-10.89,56
12.88,-1.17,25.44,34.23,141.11,22.8,0.79,-0.05,20.6,-15.63,12.89,0.73,-3.65,20.32,1.79,-3.76,3.03,-23.34,56
-26.68,-3.24,14.99,-59.96,102.98,8.3,-1.69,1.72,20.09,10.74,-8.11,9.13,-5.49,11.24,2.78,-4.54,-6.74,19.19,56
39.07,1.14,7.32,89.84,-373.54,-10.79,3.47,0.82,25.15,-39.75,13.04,20.46,-2.66,22.29,2.24,-9.57,11.67,-17.43,56
7.3,-6.63,17.57,-85.69,295.21,27.15,0.51,-1.29,19.16,-14.8,13.23,0.29,-4.46,16.9,2.96,-0.83,-3.37,-2.39,56
-15.88,2.88,6.05,45.75,-275.68,8.69,-2.09,-4.56,14.72,41.8,-25.88,-2.69,-2.99,23.96,4.64,31.1,-6.84,25.34,56
27.33,-0.09,29.43,32.23,293.02,-2.0,3.83,-1.76,22.94,-17.14,16.8,-1.56,-4.34,16.52,1.15,-12.35,11.08,-23.88,56
-19.42,-1.09,11.15,30.91,97.71,-44.63,-2.44,1.84,17.32,32.91,-6.45,-0.98,-4.07,16.56,2.85,3.32,-2.69,25.98,56
19.52,-5.17,19.51,-23.05,-491.16,10.3,6.88,4.11,25.28,-10.01,-24.07,-11.33,-1.33,25.13,4.51,-1.32,7.67,-18.95,56
8.71,-1.55,19.58,-24.95,337.26,15.14,2.32,-2.16,19.69,-71.05,11.62,6.15,-5.24,14.81,1.6,-8.01,1.12,-11.28,56
-19.27,-5.45,8.38,48.24,-81.15,23.93,1.86,-2.16,20.04,7.28,-22.71,-0.88,-4.19,18.76,3.19,1.61,-2.25,20.36,56
39.07,-4.47,13.32,-44.29,-350.39,-15.62,5.46,-4.34,26.53,-43.36,1.76,20.75,-2.78,17.89,3.19,-6.35,9.86,-21.39,56
2.69,-0.56,17.86,31.79,143.8,12.3,0.38,-0.96,18.82,-5.13,4.0,-2.49,-3.39,18.09,4.05,0.39,-1.37,2.59,56
-5.58,2.57,19.02,27.88,-12.7,13.33,2.66,-2.72,21.24,2.54,-5.08,0.54,-3.21,20.27,3.02,6.25,-1.56,-4.88,56
-0.93,-1.66,21.2,-62.45,-2.0,-22.95,1.61,-3.55,20.46,5.08,2.39,0.73,-3.13,19.24,3.78,7.47,1.71,5.13,56
0.91,-2.0,21.73,-0.93,-6.49,-4.44,1.9,-1.57,21.11,-6.2,-0.98,1.9,-3.29,18.92,2.87,2.83,1.12,-0.78,56
0.35,-3.05,21.0,0.15,4.44,-0.49,2.88,-1.9,20.8,-5.03,-2.78,2.25,-3.24,19.22,3.1,0.88,1.27,-1.51,56
