ACC-X-Ring1,ACC-Y-Ring1,ACC-Z-Ring1,GYRO-X-Ring1,GYRO-Y-Ring1,GYRO-Z-Ring1,ACC-X-Ring2,ACC-Y-Ring2,ACC-Z-Ring2,GYRO-X-Ring2,GYRO-Y-Ring2,GYRO-Z-Ring2,ACC-X-Ring3,ACC-Y-Ring3,ACC-Z-Ring3,GYRO-X-Ring3,GYRO-Y-Ring3,GYRO-Z-Ring3,TEST
-0.97,0.93,19.25,-62.55,3.56,-101.95,3.36,-18.33,16.1,-22.31,-9.47,-44.29,-4.43,20.1,9.41,-0.73,-35.06,14.4,1
-4.08,1.41,19.97,-47.61,2.64,-147.12,1.94,-17.09,13.59,2.25,4.59,-4.1,-3.69,19.62,9.49,27.05,2.64,6.25,1
1.88,-8.56,20.83,-18.07,21.53,-135.69,1.76,-18.27,14.5,9.03,-6.49,37.99,-1.21,15.44,8.74,10.79,37.06,6.79,1
2.64,-11.23,18.96,-19.87,-10.21,-37.01,-0.77,-17.63,18.64,23.1,-33.15,108.11,-3.62,18.45,6.24,37.16,78.56,3.32,1
2.3,-13.73,16.64,2.34,2.93,6.05,-0.07,-11.24,17.01,24.17,-37.11,105.81,-6.7,23.47,4.11,20.56,92.04,-12.65,1
4.08,-15.77,17.45,23.39,3.56,50.73,0.31,-12.9,19.5,5.32,-46.58,85.99,-9.95,18.59,1.96,-23.88,91.21,-3.86,1
0.62,-10.64,19.8,79.2,-18.26,97.12,0.63,-11.75,19.19,29.25,-52.98,82.08,-7.51,16.98,1.36,-0.34,73.05,6.4,1
0.25,-5.16,20.24,54.78,-7.81,102.2,0.62,-4.67,18.48,13.28,-44.29,64.99,-10.45,17.72,-1.69,-57.23,80.42,-2.25,1
-0.76,-4.58,21.02,46.04,-20.7,87.89,3.58,-5.28,18.28,19.58,-14.79,36.23,-11.28,15.68,-0.36,1.66,44.38,-6.84,1
1.99,-3.03,21.98,44.82,-36.67,89.89,2.42,-6.76,21.27,-1.03,-10.55,12.01,-11.67,16.03,-1.29,-19.04,17.87,4.44,1
0.66,2.91,20.96,33.3,-0.78,80.27,1.19,-6.73,19.93,-0.68,-1.03,4.88,-10.13,18.65,-0.33,-6.1,7.57,-0.73,1
-1.09,3.03,20.85,21.53,15.43,35.35,1.03,-8.37,19.46,0.68,-1.95,8.01,-9.84,18.0,0.93,2.15,8.3,-2.05,1
1.91,0.7,21.93,-1.42,-3.32,12.74,-0.13,-7.99,18.71,8.54,-13.62,10.3,-8.64,16.35,1.43,4.64,14.84,3.76,1
1.03,-0.42,21.49,-7.52,2.64,5.86,1.86,-6.55,20.59,5.37,-18.51,7.18,-9.05,18.03,-0.18,10.89,16.6,13.72,1
0.93,-1.71,21.3,-8.94,4.44,5.76,2.51,-7.38,20.74,-0.78,6.59,3.71,-9.84,19.23,-0.2,-5.96,7.76,-3.08,1
-0.7,-1.07,20.33,7.42,-7.08,13.67,-0.57,-8.09,18.26,-3.56,10.99,-1.22,-9.59,17.0,0.5,-5.13,-2.98,-12.35,1
0.61,0.77,22.35,8.01,-17.58,11.62,0.13,-9.61,19.29,-8.5,2.29,1.61,-10.29,16.79,1.0,-4.74,2.1,-3.12,1
1.23,-0.32,22.2,-2.78,9.57,5.42,-1.94,-8.03,17.21,6.2,-5.52,-1.46,-8.9,15.49,0.4,16.41,-5.27,-2.98,1
-1.33,-1.91,20.23,-5.96,18.75,-1.17,2.34,-7.25,21.16,5.81,-8.45,-4.79,-10.52,16.35,-0.95,2.73,8.69,11.82,1
0.04,-2.61,21.16,-1.07,5.57,2.44,2.2,-7.79,19.76,1.17,9.08,-0.24,-9.77,20.53,-1.0,-12.6,-0.54,-4.74,1
1.57,-6.11,20.4,-35.89,-14.21,-50.2,6.81,-15.39,15.33,-4.88,-12.74,-2.54,-6.75,20.27,3.83,3.81,6.64,3.22,2
1.77,-8.14,19.56,-12.16,-3.03,-23.93,6.74,-13.55,14.67,12.16,-11.91,16.89,-5.97,18.94,2.98,-3.37,23.44,1.27,2
4.46,-11.12,19.36,-7.52,-11.04,-3.17,7.05,-13.76,16.44,4.83,-9.86,72.17,-8.51,21.29,2.23,-19.78,45.7,-2.88,2
4.13,-8.32,18.73,10.2,-4.88,20.36,5.3,-10.33,14.31,55.27,-33.45,74.9,-5.77,19.6,1.11,-3.08,71.63,6.2,2
4.31,-9.73,21.13,8.84,25.34,77.78,3.41,-14.1,17.21,42.77,-28.86,85.45,-7.45,22.18,0.41,21.53,86.28,-7.13,2
3.37,-8.77,18.53,27.44,-32.13,69.82,2.5,-12.47,16.53,4.88,-36.23,78.27,-5.36,22.08,-0.23,-1.17,80.62,-5.22,2
3.93,-10.0,19.22,33.01,-8.01,73.58,3.81,-10.94,18.95,10.55,-51.81,65.77,-8.03,19.25,-2.24,-10.69,77.34,-1.22,2
4.08,-5.98,18.94,32.62,-1.51,91.26,4.59,-10.06,18.27,2.39,-39.84,42.53,-8.39,19.4,-1.69,-10.55,53.76,3.47,2
1.87,-4.23,20.47,10.01,-20.51,74.8,5.28,-10.23,18.98,7.62,-15.14,18.46,-8.44,19.22,-1.81,2.2,27.34,0.29,2
1.32,-2.74,20.37,18.95,-15.48,61.08,6.44,-8.92,16.94,28.32,-25.88,26.42,-5.84,17.7,-0.94,-5.52,16.36,-3.52,2
3.09,-3.07,21.8,11.96,-11.43,24.61,4.22,-10.02,18.52,7.18,-1.61,10.64,-7.65,18.92,-1.41,-4.25,13.09,-2.73,2
2.01,-4.17,18.07,6.74,-2.98,26.86,4.18,-9.08,18.09,2.0,-1.95,3.27,-7.68,19.31,-0.99,4.2,4.79,-2.78,2
2.36,-2.13,21.03,10.69,-0.49,11.13,2.91,-9.71,18.12,3.32,-0.98,0.59,-7.35,18.78,-1.04,4.98,3.66,1.95,2
1.83,-2.71,21.2,6.45,-0.68,4.74,3.44,-10.01,18.05,1.12,4.25,1.76,-7.37,18.48,-0.64,2.1,5.22,-0.83,2
1.7,-4.29,20.63,8.11,-2.44,0.49,4.27,-9.92,18.26,1.46,-4.25,3.61,-7.69,18.25,-0.79,-2.34,8.89,-0.34,2
2.41,-4.61,20.99,2.93,-0.63,5.27,3.09,-9.72,18.47,-4.44,1.61,0.68,-8.07,19.13,-0.75,2.54,3.08,0.93,2
1.7,-3.59,20.72,4.1,-2.93,8.06,3.3,-9.53,18.07,-3.32,-0.49,-0.15,-7.7,18.41,-0.83,5.42,4.0,0.15,2
2.45,-3.61,21.61,10.16,-6.05,2.59,3.64,-9.95,18.3,2.54,-3.08,3.32,-7.19,18.43,-1.17,0.59,3.81,-0.44,2
1.67,-4.82,20.84,-1.07,-1.9,1.71,3.92,-9.01,18.2,-0.1,0.78,1.81,-7.26,18.43,-0.99,-0.44,5.13,-2.78,2
2.63,-4.35,20.72,3.71,-2.78,2.39,4.56,-9.63,18.71,0.34,-2.05,5.42,-7.12,19.64,-1.16,5.66,4.93,-1.27,2
3.78,-5.71,21.23,-56.79,9.67,-99.76,3.36,-6.9,19.69,-2.34,0.1,0.39,-4.14,18.04,4.81,13.04,52.54,-2.93,3
2.31,-8.19,17.46,-33.45,10.3,-32.76,4.54,-7.06,19.38,-0.39,-4.25,1.27,-7.63,20.8,2.19,21.87,64.26,-11.13,3
2.41,-11.28,17.9,-30.42,6.45,-38.33,3.7,-6.94,19.93,-1.03,2.44,2.34,-8.03,23.41,-1.18,15.58,78.96,-20.51,3
4.11,-13.35,17.34,-21.24,-7.37,-32.32,3.67,-6.55,19.83,-0.05,0.59,2.39,-9.58,20.47,-3.22,-3.17,73.44,-10.11,3
6.01,-20.43,19.06,-31.84,-12.55,-12.3,3.66,-5.95,19.64,1.27,-0.78,-1.42,-8.86,19.4,-3.63,-25.1,57.32,-5.57,3
6.05,-15.47,15.3,18.07,-8.2,29.15,2.63,-6.35,19.45,4.05,3.61,-1.46,-9.42,17.17,-4.42,-35.94,61.43,-7.96,3
4.16,-11.84,17.11,50.78,-12.45,50.39,3.47,-7.66,19.91,1.51,1.32,-1.42,-10.8,15.85,-7.09,-15.92,46.88,-3.91,3
5.66,-9.33,19.12,51.07,-21.73,49.61,3.27,-7.52,19.91,-1.47,-0.15,1.03,-8.17,16.28,-6.97,-14.75,27.39,4.44,3
4.06,-8.41,18.7,30.66,-27.64,66.65,3.64,-6.73,20.14,-1.56,0.24,1.42,-7.89,16.93,-6.4,-3.37,6.54,1.81,3
4.78,-9.41,20.09,27.88,-25.29,46.24,3.5,-5.79,19.61,-3.08,-0.54,-0.1,-7.79,17.7,-5.37,-3.96,6.88,-2.0,3
4.6,-8.61,19.72,37.6,-13.57,63.77,3.85,-5.83,19.79,-0.54,-0.2,1.81,-7.01,18.39,-4.92,1.76,1.81,-2.44,3
2.84,-2.89,19.6,40.48,0.2,58.59,3.5,-6.07,20.12,1.9,-0.05,0.73,-7.46,17.96,-4.53,-4.74,6.25,-3.32,3
3.08,0.81,20.48,29.2,-4.54,34.86,2.94,-6.46,19.97,0.29,-0.29,-0.1,-7.64,18.69,-4.89,-1.27,3.22,-2.78,3
3.82,1.15,21.55,12.26,-5.03,14.75,3.5,-6.64,19.97,-0.54,-0.98,-2.15,-8.16,16.92,-4.8,0.78,3.17,-2.15,3
3.22,0.39,21.2,3.17,1.51,0.2,3.22,-6.47,19.76,-6.49,1.07,0.78,-8.06,16.69,-5.06,5.81,2.25,0.68,3
2.21,-4.56,25.66,6.2,10.84,6.49,3.65,-6.11,19.95,-0.2,-0.44,-0.44,-7.34,18.09,-5.31,6.79,5.62,-0.05,3
2.14,-0.19,21.18,3.03,2.83,0.88,3.42,-6.43,20.01,3.22,-1.07,0.34,-7.42,17.54,-5.32,5.62,2.34,-1.56,3
2.7,-0.58,20.77,7.23,2.44,3.71,3.77,-6.32,19.71,2.73,1.76,-1.51,-7.74,18.15,-5.28,1.56,2.1,-2.25,3
2.79,0.02,21.09,1.71,-1.12,4.39,4.21,-6.22,19.95,0.63,-0.78,0.15,-7.83,18.48,-5.22,1.76,0.78,-0.39,3
2.18,-0.6,20.85,1.56,0.49,1.12,3.33,-6.56,19.83,-1.61,-2.0,0.54,-7.81,18.67,-4.99,5.76,0.1,0.24,3
1.47,6.87,20.46,19.78,33.59,-83.4,11.33,-5.68,18.94,-49.61,21.34,-79.88,-4.55,16.65,4.3,-21.44,-52.29,-0.39,4
7.63,0.65,22.44,-56.25,11.67,-139.89,9.76,-6.27,18.95,-71.0,61.28,-139.79,-3.37,17.04,8.14,-15.09,-40.28,1.37,4
4.95,-4.76,20.76,-91.8,13.57,-110.64,3.22,-10.94,15.11,-86.08,58.06,-99.17,-1.79,16.84,10.33,4.64,-1.17,2.73,4
2.4,-7.69,18.73,-47.9,2.44,-40.97,5.05,-13.85,15.56,-57.47,11.33,-37.89,-3.23,21.94,7.57,33.4,48.29,4.39,4
2.76,-11.94,16.61,-51.17,-6.01,-41.02,5.74,-18.56,12.93,-53.13,5.42,-39.4,-4.73,20.6,3.61,25.34,72.66,3.71,4
4.82,-14.64,15.74,0.05,-3.91,-3.12,6.15,-19.8,10.84,6.3,-3.22,-1.51,-3.91,19.62,0.21,8.45,86.77,-6.15,4
5.18,-15.42,15.44,49.85,-0.59,52.54,6.6,-18.43,11.3,34.52,-36.04,53.22,-6.9,20.05,-4.56,-4.05,87.74,-12.55,4
2.88,-6.32,17.86,104.2,-22.9,78.81,8.84,-9.6,13.48,105.91,-46.63,68.65,-5.14,18.09,-5.17,-7.13,80.66,-8.69,4
6.19,-3.67,16.36,114.65,-3.27,81.84,9.8,-10.01,16.12,72.46,-29.79,76.56,-4.83,19.2,-4.58,0.68,64.89,-4.0,4
4.48,-5.0,25.6,61.13,-6.79,100.0,5.02,-3.36,18.54,79.64,-50.29,82.67,-5.81,20.25,-4.07,-5.47,45.26,4.93,4
3.79,2.38,20.99,26.76,-2.44,78.91,4.56,-5.36,18.27,28.12,-35.99,73.83,-5.96,19.53,-3.42,3.22,19.68,0.39,4
3.28,0.54,20.14,24.41,0.39,63.18,4.12,-5.98,19.36,16.11,-23.19,56.05,-4.97,19.3,-2.52,-0.73,6.74,-1.71,4
3.87,2.08,21.01,8.94,-12.35,43.9,6.53,-5.26,20.13,4.35,-23.14,34.96,-5.22,18.94,-1.72,-0.0,4.44,-2.69,4
3.55,2.24,20.96,6.64,-4.44,18.02,6.22,-4.25,19.22,-10.94,-10.21,9.57,-5.84,18.64,-2.34,-3.47,3.56,-4.2,4
4.31,-0.08,20.82,-2.05,-2.98,6.2,5.56,-7.17,18.52,-7.18,-6.45,5.32,-5.05,19.24,-1.52,2.98,-1.22,-2.0,4
5.17,-1.2,20.97,-2.54,-1.86,3.81,5.79,-8.44,18.9,-3.91,1.32,3.71,-5.65,19.7,-2.28,2.73,2.69,-2.44,4
3.71,-1.28,20.16,-1.17,2.59,4.1,5.35,-7.1,18.48,-0.59,1.61,-0.34,-5.55,19.56,-2.03,5.86,3.66,-0.59,4
4.63,-1.6,20.83,-3.47,-0.83,-2.78,5.65,-8.35,18.37,-1.9,0.1,-0.98,-5.59,19.36,-1.93,2.29,2.78,-3.61,4
4.42,-2.08,20.91,-3.08,0.0,1.46,6.0,-7.98,18.72,0.2,-0.98,3.47,-5.75,19.22,-1.88,-0.44,6.59,-1.76,4
3.92,-1.03,20.71,1.66,-0.88,1.81,5.32,-8.42,18.89,-2.49,-2.98,3.17,-5.93,19.63,-2.11,0.68,6.93,-1.81,4
-0.3,-8.19,19.21,-21.44,27.15,-65.43,-0.19,-20.48,14.16,-8.06,5.13,-7.67,-7.78,19.55,9.52,9.08,-8.2,-1.32,5
-0.75,-10.51,18.64,-14.4,11.91,-32.32,0.16,-19.04,14.04,10.45,-15.92,23.19,-8.75,14.62,8.61,-20.02,31.49,1.66,5
0.42,-11.6,18.76,-7.67,18.65,-11.62,2.99,-18.2,14.93,21.04,-37.21,27.1,-8.93,18.14,7.36,-8.3,51.66,10.94,5
0.91,-15.34,18.47,3.22,1.81,1.17,2.4,-11.5,15.46,45.61,-35.01,30.76,-7.89,17.04,2.89,0.44,61.57,12.6,5
-0.38,-14.29,17.73,10.55,-6.74,29.39,2.68,-6.72,18.52,34.86,-42.82,40.28,-8.44,18.52,-2.25,8.45,69.97,13.82,5
1.68,-11.87,18.79,23.83,-22.12,38.23,5.46,-4.45,20.98,15.33,-43.51,28.13,-9.52,18.9,-5.58,-1.17,52.83,21.44,5
1.02,-6.27,18.91,43.8,-20.65,45.21,6.79,-6.4,21.61,2.64,-15.87,8.25,-10.06,20.09,-4.66,0.98,28.42,9.72,5
0.85,-1.09,20.39,34.72,-23.54,52.1,5.78,-7.93,19.65,-2.78,-2.73,-0.39,-7.89,18.83,-2.61,-0.1,8.06,2.05,5
2.18,2.45,22.44,19.04,-32.47,40.04,4.52,-9.7,18.6,-10.06,3.32,-2.54,-7.55,19.38,-1.3,-4.59,-3.17,-3.47,5
3.0,1.08,23.12,1.66,-11.72,13.57,4.23,-9.7,17.78,-17.29,-7.62,-1.17,-7.35,20.34,-0.92,3.86,-1.42,-4.74,5
3.13,-1.44,21.48,-0.54,-3.71,0.83,4.22,-10.06,17.76,1.27,2.05,4.2,-7.13,18.75,-1.38,3.56,1.03,-2.54,5
2.52,-3.25,20.95,-6.3,3.17,-2.2,3.46,-9.54,17.76,-0.05,-1.81,2.44,-8.11,17.39,-0.68,8.59,5.18,-1.27,5
2.5,-3.29,20.54,-9.67,-3.47,-1.9,4.24,-9.38,18.09,3.95,-2.2,1.27,-7.64,17.79,-1.26,4.05,5.76,-0.49,5
3.03,-3.42,21.24,1.12,2.44,2.64,4.32,-9.67,17.78,2.54,0.54,0.88,-7.77,18.44,-1.29,-0.88,3.81,-2.49,5
1.86,-3.9,20.78,2.83,-0.34,2.1,4.37,-9.99,18.17,-0.98,0.34,4.49,-7.95,19.57,-0.96,3.66,5.37,-1.86,5
2.16,-3.36,20.85,4.88,-1.22,1.86,3.66,-9.84,18.07,-1.71,-0.59,1.46,-8.19,17.9,-1.14,3.08,4.39,0.59,5
2.28,-3.61,20.5,1.27,0.78,1.86,4.32,-9.73,18.41,-0.83,-3.08,4.74,-8.11,17.76,-1.32,-2.0,8.15,0.63,5
2.64,-3.66,20.95,-0.78,0.0,4.83,4.64,-9.14,18.04,1.95,-0.73,1.32,-7.78,18.8,-1.62,2.29,3.86,-1.81,5
2.18,-3.55,20.86,1.66,-3.37,2.98,4.38,-9.91,18.51,0.63,0.15,0.24,-7.94,18.72,-0.7,-5.81,4.64,-1.07,5
2.62,-3.24,21.25,1.66,-3.81,5.86,4.39,-9.59,18.36,-0.73,-5.66,0.59,-7.56,18.08,-1.01,1.86,2.2,0.73,5
2.77,-4.3,20.9,1.17,-2.59,1.12,4.77,-10.6,17.96,-1.32,-0.59,0.83,-8.0,18.81,-2.41,5.13,4.3,-1.03,6
2.84,-4.16,20.83,0.24,-2.0,1.66,4.38,-10.43,17.73,-2.05,-1.17,-1.12,-7.55,18.65,-2.41,1.86,2.29,1.61,6
2.97,-4.92,20.55,-0.49,-2.15,3.22,4.24,-10.05,17.58,-2.78,3.08,-2.29,-7.49,18.1,-2.23,-2.78,2.78,3.52,6
3.0,-4.52,20.78,0.2,-1.17,1.12,7.38,-9.55,17.88,-9.47,11.87,-16.5,-8.39,18.04,-2.9,2.64,-15.48,8.69,6
2.74,-4.47,20.62,-0.34,-2.54,0.1,9.64,-5.59,19.48,-2.05,66.46,-109.08,-15.31,16.73,-7.07,19.58,-69.24,13.18,6
2.48,-4.98,20.08,2.64,0.63,1.9,7.4,-8.68,18.62,-84.72,107.86,-201.66,-7.22,19.71,-10.29,86.03,-168.31,21.78,6
3.73,-1.89,21.4,31.25,11.08,-8.54,0.3,-22.53,14.56,-113.43,60.99,-99.56,10.26,21.28,-2.18,-47.36,-141.11,9.23,6
1.91,2.5,21.25,21.39,12.74,-80.96,3.35,-17.42,13.2,-48.73,23.29,-40.23,-5.85,13.43,2.81,-38.43,-52.44,-12.4,6
4.74,8.2,23.06,-55.27,6.2,-231.59,6.18,-15.61,13.51,-17.77,-11.13,-27.0,-6.44,16.37,6.41,-10.89,-16.6,3.66,6
8.31,-15.18,19.6,-161.87,21.34,-145.41,6.35,-18.94,13.42,6.25,-10.69,12.21,-3.3,18.22,7.26,0.59,12.11,9.33,6
4.56,-12.49,18.18,-33.5,2.44,-45.65,3.35,-18.2,14.54,19.19,-19.78,102.98,0.21,15.23,6.4,20.75,57.96,46.68,6
3.77,-10.97,17.29,-15.58,-21.39,-25.78,7.81,-9.49,15.76,69.68,-68.07,86.77,-4.49,24.32,1.08,26.03,118.75,10.35,6
6.2,-13.3,16.32,0.24,-10.45,5.57,6.15,-13.39,16.53,39.16,-61.87,110.79,-2.13,23.72,-0.19,15.87,112.79,-2.1,6
3.7,-17.41,18.6,-5.22,14.21,98.34,5.79,-8.48,17.22,30.42,-71.19,102.1,-3.67,19.53,-1.45,-31.01,113.18,-6.4,6
7.53,-9.59,16.82,53.47,-83.45,111.87,6.93,-9.36,19.48,13.48,-57.91,67.19,-7.61,16.2,-3.06,47.31,128.81,-19.04,6
6.91,-12.08,21.09,17.33,-33.84,108.06,6.34,-9.14,18.23,19.38,-19.87,28.13,-7.54,16.55,-4.22,3.42,46.09,-12.16,6
7.15,-3.37,18.99,48.53,-29.49,120.65,6.06,-9.9,19.05,-5.22,-11.38,8.15,-6.59,20.6,-5.34,-10.69,14.21,-2.29,6
4.57,-1.36,21.91,25.05,-32.03,92.68,5.44,-11.14,18.03,-10.11,-2.78,1.71,-6.38,20.82,-3.4,5.27,1.46,-1.03,6
3.42,-0.38,19.46,24.66,3.71,45.36,5.33,-11.62,17.77,-3.32,-1.76,-0.68,-5.51,19.96,-2.85,11.38,-1.27,1.37,6
4.41,-2.18,21.4,-3.86,-11.72,9.72,5.3,-11.15,18.05,-5.18,2.1,-3.47,-5.98,18.54,-3.54,-0.2,0.1,1.32,6
-5.15,1.95,19.82,2.78,-8.98,-0.78,1.41,1.99,20.68,3.95,-0.39,0.83,-17.72,13.09,4.29,89.31,-60.55,38.28,7
-7.42,5.62,20.76,12.01,-32.42,-2.73,1.65,2.0,20.97,-1.66,-0.59,4.98,-9.91,18.14,3.58,48.24,-121.78,23.34,7
-3.54,2.88,20.98,23.83,-28.91,0.78,1.08,1.61,20.99,0.73,-3.08,3.32,-10.72,13.49,3.23,-7.03,-105.57,2.0,7
2.11,9.39,20.49,28.86,-34.91,-76.32,1.09,2.01,20.53,9.72,-3.47,-4.35,-9.84,12.87,4.31,13.92,-87.16,-9.33,7
-1.39,3.98,21.68,-23.78,25.0,-112.01,1.13,1.49,20.59,-2.34,1.12,-1.76,-4.16,14.04,4.89,17.38,-109.37,-7.76,7
-3.36,2.39,20.99,-22.75,-9.37,-97.07,1.41,1.92,20.69,-1.86,1.51,-0.39,1.06,22.52,6.69,35.94,-64.55,23.44,7
-3.95,7.38,20.04,-12.35,-23.83,-120.9,2.0,2.54,20.69,1.56,0.93,-1.56,-1.43,14.59,6.17,10.99,-25.49,21.04,7
2.52,7.72,21.62,-25.93,-43.02,-130.32,1.27,2.33,20.96,5.08,-3.96,1.86,-0.36,18.84,5.65,4.69,-3.76,17.53,7
1.57,-9.55,21.36,-18.21,-54.64,-66.46,1.04,2.43,20.72,6.3,-2.98,3.17,2.31,19.88,6.75,29.3,58.4,5.42,7
5.35,-5.15,21.4,12.26,-65.04,-33.94,0.09,2.95,20.27,1.95,-0.98,2.64,-4.41,27.62,3.25,42.58,117.14,-37.94,7
6.69,-3.98,20.79,16.16,-41.7,-5.18,1.3,2.41,20.48,-0.68,-5.76,0.63,-5.04,32.46,0.41,-21.92,136.62,-18.85,7
6.94,-1.73,21.08,11.38,26.9,80.08,1.42,3.43,20.34,2.34,-0.39,0.15,-5.49,17.28,0.77,-94.04,131.69,36.72,7
6.5,-4.67,20.02,55.32,8.5,113.96,1.29,2.74,20.47,1.95,-0.83,1.95,-4.72,20.6,2.54,-43.41,110.4,11.57,7
6.37,0.63,19.17,54.1,2.34,149.27,1.33,3.07,20.15,-1.42,3.86,1.32,-11.71,15.58,2.9,-46.44,74.9,-11.72,7
3.29,4.31,21.44,50.15,24.02,130.57,1.41,2.81,20.38,-0.73,0.59,2.93,-9.07,18.0,3.39,-33.5,25.49,-0.05,7
-1.34,4.48,22.65,10.84,40.53,112.26,2.23,2.58,20.7,0.44,-2.78,2.2,-11.12,15.01,5.28,-29.25,1.9,-2.78,7
0.34,3.64,20.21,34.13,41.55,77.34,2.77,2.42,20.92,0.83,-2.15,-0.93,-8.8,17.72,6.39,-11.62,5.96,-9.81,7
-0.19,2.72,22.55,-15.09,-9.81,21.97,2.17,2.56,20.85,-0.73,-0.68,0.1,-9.77,16.63,7.44,-10.25,5.62,-9.08,7
-3.38,1.34,21.69,-3.03,-2.44,3.66,2.07,1.91,20.83,1.42,-2.73,-0.59,-9.52,16.67,7.84,9.13,4.64,-6.69,7
-2.04,0.07,20.97,-2.39,12.06,6.1,1.79,2.15,20.55,1.03,-0.39,-0.83,-13.15,14.72,6.98,9.28,12.4,-5.62,7
7.57,-9.18,21.36,-39.31,0.34,-21.53,8.25,-7.27,19.22,37.4,-17.33,48.73,-4.57,14.3,11.43,-7.81,50.98,13.09,8
4.48,-20.54,19.08,-40.77,-71.63,0.15,6.01,-6.57,18.67,38.09,0.78,60.94,-3.88,17.09,9.9,-15.82,67.92,10.01,8
6.06,-10.24,17.55,19.09,7.03,40.14,6.39,-10.16,19.52,31.64,-20.21,91.16,-3.47,11.46,7.81,-32.08,94.78,23.29,8
7.14,-8.66,19.85,28.47,-15.62,52.49,9.28,-10.03,19.2,60.06,-7.67,81.84,-5.7,2.49,5.21,-54.69,124.66,29.79,8
7.26,-8.8,18.63,32.13,-13.72,76.51,5.62,4.61,17.0,60.3,-6.45,105.27,-9.75,21.68,2.99,-57.57,103.96,24.12,8
7.9,-13.02,15.06,57.86,-3.17,103.47,9.62,4.58,20.53,23.58,-9.96,44.92,-10.87,17.19,1.57,-1.81,43.16,21.39,8
9.22,-9.54,15.05,85.2,12.89,95.65,6.55,1.92,20.26,2.69,10.6,3.86,-10.11,16.88,2.93,-5.86,15.14,-8.15,8
7.24,4.23,19.51,-2.93,-28.47,102.49,5.45,0.43,19.43,-9.03,3.08,-2.29,-10.56,13.96,4.31,-10.35,-2.05,-5.32,8
7.6,4.81,21.33,25.15,-16.26,41.7,5.43,-1.53,19.95,-5.27,-0.63,1.07,-10.41,16.77,6.26,-18.99,4.0,-1.46,8
4.97,1.33,20.49,4.88,13.53,3.32,5.91,0.41,20.1,6.2,4.93,9.57,-10.09,18.45,5.59,2.93,8.4,-2.1,8
3.86,-0.72,19.84,-7.23,8.06,-3.81,5.0,0.68,19.87,5.03,8.3,-1.9,-11.23,15.55,5.2,5.57,3.86,-5.52,8
3.64,-2.19,20.18,-3.91,0.24,1.76,5.29,1.21,20.28,4.83,4.69,2.25,-11.66,16.08,5.37,0.34,8.15,-2.64,8
4.85,-0.25,21.04,6.74,1.22,9.91,4.65,0.55,20.18,-0.15,-1.66,-2.54,-11.63,16.28,5.52,1.66,1.22,-1.95,8
4.37,-0.01,20.48,4.2,6.69,0.34,5.25,0.49,20.03,1.46,-4.1,-3.12,-11.5,16.4,5.48,4.35,1.42,1.56,8
4.55,0.25,20.81,4.69,-2.2,4.2,4.77,1.6,19.59,3.81,0.0,-4.3,-11.1,15.59,4.98,10.94,0.83,-1.37,8
3.8,-0.59,20.78,0.98,-2.34,-2.25,4.8,1.35,19.97,1.42,4.1,-0.73,-10.99,16.28,4.75,-6.64,3.76,-1.46,8
3.83,-0.4,20.63,1.56,-4.15,-2.1,4.8,1.24,19.85,-1.17,-2.59,0.29,-11.02,17.09,4.66,3.86,1.37,0.29,8
3.98,0.63,20.46,5.96,0.29,-4.0,4.51,1.43,19.92,-1.76,-1.27,-0.29,-11.07,16.87,4.66,5.08,0.2,-0.15,8
4.05,0.38,20.57,0.05,4.74,2.54,5.14,0.08,20.53,-4.93,-1.22,0.68,-11.36,16.97,5.49,1.17,-2.88,-0.29,8
3.7,0.32,20.44,-0.2,-3.17,0.88,5.28,0.32,20.37,0.68,-2.1,3.17,-10.79,16.63,5.9,2.54,0.88,0.29,8
3.99,0.85,20.86,4.98,4.88,-114.65,8.08,-0.56,20.17,-61.96,-8.79,-90.53,-2.35,19.26,4.25,119.58,-75.44,-20.21,9
5.16,-1.8,20.69,-55.32,-0.63,-86.67,3.9,-0.96,17.55,-45.02,12.21,-141.41,-4.61,19.13,5.07,45.31,-40.87,4.79,9
1.47,-1.33,20.1,-22.51,22.07,-133.98,7.67,-2.44,19.28,-71.24,-7.32,-162.5,-5.68,18.88,5.11,29.74,-14.16,-6.4,9
2.46,-1.76,18.79,-50.05,7.52,-141.8,7.2,-8.91,21.25,-16.89,-13.67,-40.62,-4.52,19.28,4.88,-12.26,24.9,1.22,9
5.81,-7.29,20.95,6.59,-1.46,-39.84,3.68,-7.0,18.33,-32.52,-25.15,-25.73,-7.01,19.47,3.67,-37.89,53.71,0.83,9
3.9,-6.27,17.22,-16.55,-14.99,-25.44,7.01,-10.15,18.49,10.25,-18.7,29.3,-4.57,19.61,3.21,-10.21,84.62,-6.15,9
5.98,-9.86,18.81,8.84,-24.32,31.15,8.91,-6.02,19.43,47.27,-9.08,49.95,-7.52,18.71,0.52,-67.53,109.86,7.42,9
6.21,-7.66,20.7,38.43,-17.68,46.44,5.63,-5.64,16.56,51.32,12.55,93.65,-9.37,20.51,1.66,-31.69,114.7,-10.16,9
5.32,-6.36,18.47,36.18,-2.2,97.9,8.71,-3.12,19.87,26.56,-0.15,112.94,-8.53,18.52,0.13,-33.25,96.24,-4.69,9
8.23,-5.56,19.57,12.65,-28.08,110.69,7.09,-0.71,19.44,62.01,20.36,101.71,-11.03,13.88,-0.08,-27.98,64.89,-10.25,9
5.5,-1.58,20.85,54.59,0.59,109.18,6.84,-0.53,20.16,38.43,-16.41,97.02,-12.05,16.99,-1.86,-25.88,35.35,-16.46,9
4.01,-2.36,20.38,32.18,-16.5,95.56,6.51,2.31,20.07,38.62,3.08,50.88,-11.94,17.69,-0.56,-9.57,1.9,-0.24,9
5.19,1.09,20.77,37.16,-2.78,55.22,5.31,3.34,19.18,2.1,5.57,21.73,-10.27,16.81,1.84,1.03,-6.4,7.57,9
2.23,2.15,20.2,0.73,10.69,25.49,3.46,2.29,19.94,2.49,3.66,-2.69,-11.12,16.27,2.29,-8.69,3.76,1.27,9
2.47,0.81,21.15,1.71,1.37,0.83,3.88,-0.8,20.12,-8.35,-3.61,-1.42,-10.4,17.85,1.89,-18.8,7.47,-8.94,9
3.37,-1.38,20.71,-7.86,-3.17,-2.15,4.44,-0.94,20.95,2.83,-2.34,-0.78,-10.13,18.05,1.91,-10.35,0.68,-8.89,9
2.86,-1.81,21.01,1.56,-2.49,2.93,4.49,-0.78,20.77,-2.15,-0.15,0.05,-11.18,18.26,1.65,1.76,0.63,-3.56,9
2.61,-1.84,20.47,-6.84,5.18,6.59,4.11,-1.32,20.25,-11.52,-2.93,3.32,-11.02,17.57,1.9,6.35,0.1,-0.88,9
2.08,-2.62,20.08,-12.99,5.57,3.37,3.64,-0.97,20.51,-5.32,1.37,1.66,-11.31,17.15,1.98,6.1,1.95,-6.05,9
3.97,-2.4,20.94,-5.13,-3.17,2.73,4.65,-1.17,21.53,1.66,-0.39,0.34,-12.09,14.91,2.01,-3.03,3.47,-1.22,9
0.91,4.34,19.72,-21.34,20.02,-122.36,6.92,-4.27,20.52,-35.89,-9.47,-55.52,-10.96,16.32,2.28,12.21,-64.36,0.59,10
4.7,-2.31,21.44,-24.9,0.78,-116.8,4.91,-6.86,19.57,-15.04,-7.81,-32.37,-8.63,21.24,4.71,52.93,-37.01,7.23,10
4.83,-3.46,21.9,-19.24,-2.49,-107.28,8.1,-8.22,19.4,3.12,0.59,17.48,-7.45,25.58,6.38,-11.08,18.75,1.12,10
3.65,-4.86,20.77,-34.72,-12.89,-62.01,5.22,-6.42,20.37,26.32,11.28,50.29,-10.33,15.8,5.18,-50.68,50.63,-12.11,10
2.53,-7.48,20.14,-5.57,-6.25,-37.16,6.16,-3.83,19.69,28.37,-5.71,88.38,-13.48,18.53,3.81,-64.75,83.5,-9.96,10
5.6,-8.51,20.09,4.98,-1.81,16.11,4.24,-5.25,21.42,23.58,-1.42,75.1,-11.19,11.02,2.78,-71.14,72.02,16.26,10
3.27,-7.25,20.06,16.36,3.52,56.74,6.31,-10.22,21.88,21.68,-10.64,76.51,-8.99,8.19,1.83,-66.31,74.07,8.35,10
2.03,-3.29,20.96,25.54,-19.53,101.71,6.05,-3.81,20.36,61.08,6.98,75.05,-9.96,11.07,1.0,-44.53,83.64,11.38,10
4.1,-3.69,22.14,26.71,-32.23,76.37,4.82,0.89,19.77,25.15,5.52,81.59,-9.52,12.78,-0.18,-52.25,68.7,0.93,10
3.34,-5.66,20.92,-5.57,-27.93,73.19,3.43,1.08,20.39,0.59,-9.77,24.76,-14.38,12.92,-0.66,-26.32,29.79,8.25,10
4.8,-5.79,20.4,12.35,-10.4,71.58,4.1,-0.74,20.87,-5.96,-13.38,6.3,-13.72,18.08,-0.02,-11.82,4.49,11.77,10
2.66,-3.56,20.21,-8.15,-4.0,81.49,4.86,-0.83,20.87,-1.42,-9.08,1.03,-12.08,18.65,1.1,2.73,2.54,9.52,10
0.0,0.48,20.73,-4.1,-7.96,34.91,4.77,-1.76,20.81,3.95,1.71,-2.29,-12.02,17.37,1.59,7.67,-1.61,2.2,10
0.71,-0.81,21.11,-5.27,-11.82,8.3,4.83,-1.48,20.9,2.64,-0.29,-1.32,-11.75,15.64,1.75,-0.88,1.03,-0.93,10
2.1,-1.48,21.17,0.98,-10.01,1.51,4.51,-1.14,20.56,1.9,1.03,-0.05,-12.07,15.87,1.72,-6.69,5.22,-1.32,10
2.97,-2.07,21.29,1.95,-2.98,-2.05,4.61,-0.69,20.44,3.91,1.46,4.79,-11.39,17.57,1.12,-7.47,6.93,-3.71,10
2.2,-2.39,21.0,-2.93,-2.69,1.86,3.39,-0.06,19.68,0.2,1.86,4.49,-12.5,17.59,1.15,3.76,6.64,-3.71,10
2.82,-2.29,21.34,2.1,-2.88,1.56,4.16,-0.12,20.03,0.1,-0.1,0.63,-12.26,17.16,1.04,3.03,5.37,-2.83,10
2.26,-1.64,21.22,0.49,-0.49,7.71,3.98,0.06,20.1,-4.15,0.15,0.2,-12.08,16.79,0.87,-2.49,2.1,-2.59,10
2.31,-0.97,21.23,3.08,2.88,4.49,4.66,-1.08,21.04,4.1,-3.96,-7.08,-12.45,16.37,1.62,1.9,2.39,-1.42,10
2.93,-5.04,20.85,-18.75,44.14,-125.59,2.52,-0.24,20.57,3.66,-2.05,-2.2,-10.82,15.77,-0.38,41.89,-104.88,-2.59,11
3.16,-7.19,18.22,-52.05,2.88,-71.97,2.85,-0.31,20.84,-0.93,-3.66,-0.83,-8.81,14.19,2.52,24.8,-96.63,-8.69,11
3.65,-9.17,19.08,-27.49,1.17,-25.59,2.37,-1.15,20.89,0.83,0.39,1.37,-12.13,13.9,0.29,56.84,-113.09,-35.06,11
4.53,-9.85,19.56,-6.88,-6.88,-6.64,2.79,-0.17,20.97,1.76,-2.0,0.49,-8.6,13.18,4.53,-3.37,-88.18,-10.35,11
3.91,-8.18,20.37,12.26,-0.88,11.77,3.2,-0.64,20.73,5.22,-2.2,-1.27,-8.99,19.51,8.12,-2.44,-35.99,-2.1,11
4.9,-9.83,18.97,23.44,-3.66,49.95,2.83,0.21,20.55,1.66,-0.54,-1.86,-8.92,17.5,9.0,6.25,-7.57,2.05,11
4.19,-5.5,20.5,21.73,-12.55,70.75,2.79,-0.05,20.3,1.46,0.98,0.88,-9.47,17.98,7.3,-0.49,11.91,1.86,11
1.45,-5.66,19.1,63.38,4.64,84.67,3.2,0.39,20.66,1.27,-1.95,0.63,-8.22,17.06,7.68,-14.99,51.61,0.34,11
0.77,0.63,20.96,65.23,8.98,79.1,2.91,-0.47,20.68,-0.05,0.1,-0.39,-10.63,16.4,6.57,-48.05,61.67,2.25,11
-2.0,6.63,21.46,50.63,7.86,58.25,3.19,0.22,20.7,1.86,-0.29,1.66,-11.46,18.41,5.1,-2.64,93.41,12.26,11
-1.08,0.48,20.86,18.85,7.08,56.98,2.76,0.01,20.36,-0.2,0.59,-0.49,-15.28,19.85,3.52,8.25,91.89,11.08,11
-0.18,-0.41,21.24,-0.78,-4.2,20.7,2.69,-0.2,20.51,2.0,1.71,1.61,-18.48,24.18,1.09,11.03,56.69,8.89,11
0.64,-2.31,21.18,-3.13,-10.06,34.81,3.29,0.64,20.52,0.83,1.07,0.0,-14.09,18.66,1.24,-12.89,48.73,6.15,11
2.22,-2.18,21.51,2.83,-10.89,27.1,3.38,0.1,20.66,0.1,1.86,0.98,-13.55,16.21,1.68,2.83,17.68,7.52,11
2.57,-1.98,21.62,-0.39,-3.56,22.17,2.78,-0.01,20.65,-1.86,0.0,-0.2,-12.62,15.29,3.27,-35.6,17.58,16.75,11
1.34,-2.52,21.08,1.61,1.76,12.01,3.69,-0.52,21.13,0.29,-0.39,1.17,-11.86,15.87,3.72,-13.82,16.85,13.33,11
2.12,-2.25,21.87,4.3,-4.98,12.11,3.39,0.06,20.75,2.98,0.24,-2.15,-12.09,15.57,3.83,-21.19,28.91,2.88,11
1.36,-2.52,21.56,0.49,-0.63,5.13,3.06,0.39,20.62,2.34,-1.81,-2.25,-11.7,16.17,4.36,-15.53,4.59,3.32,11
0.8,-2.49,21.51,2.34,-2.15,2.15,3.3,0.19,20.6,1.56,-1.51,-1.95,-11.46,17.51,5.21,-7.72,8.4,3.27,11
0.59,-2.73,21.2,-1.95,0.88,8.06,2.29,0.28,20.43,0.68,0.44,-1.9,-12.19,16.25,5.29,-3.81,4.64,-0.2,11
1.72,-6.68,20.51,-50.68,4.83,-54.88,2.44,-6.97,20.33,-5.08,-8.59,3.22,-11.63,17.49,8.17,5.86,-33.15,-0.63,12
1.62,-9.16,20.06,-26.27,-4.98,-23.63,2.18,-6.34,19.86,8.2,-0.2,8.64,-11.05,15.07,9.08,4.1,-11.38,1.32,12
1.49,-9.44,19.76,-1.27,-2.83,-6.49,3.1,-6.8,20.28,12.94,-1.81,13.23,-12.21,14.09,8.06,-3.03,2.39,4.35,12
1.42,-8.7,20.19,10.69,-8.45,4.49,4.19,-11.06,20.81,25.29,-3.27,45.12,-12.02,15.58,8.18,1.17,10.69,2.59,12
1.13,-7.81,19.88,3.76,-5.18,12.65,3.9,-8.07,20.3,53.32,-0.73,87.7,-11.39,17.05,8.18,6.93,15.43,5.08,12
2.1,-6.7,20.29,12.65,-5.86,17.14,5.01,-4.25,19.34,40.14,-8.59,141.02,-9.44,15.76,8.73,-4.59,54.49,7.86,12
3.12,-4.95,19.63,45.41,-5.57,51.22,-0.56,-6.92,18.59,39.11,8.59,80.42,-6.83,13.56,5.83,-20.95,92.97,13.57,12
2.18,-3.84,19.92,71.0,-4.3,95.12,3.08,-2.56,20.41,-31.54,-4.59,58.74,-8.37,18.12,2.62,-49.41,118.41,23.24,12
1.24,-1.32,20.22,51.66,-17.14,133.79,2.76,-0.46,20.91,-10.5,-8.54,22.22,-6.1,15.89,0.97,37.74,82.18,2.34,12
-1.96,-3.54,17.84,63.33,13.09,86.18,3.26,-2.55,21.33,-6.64,-11.91,15.43,-9.78,10.71,0.58,-24.51,44.34,-2.88,12
-1.86,-0.35,19.98,7.52,25.34,50.2,3.48,0.05,20.61,-0.88,1.32,31.98,-11.46,13.95,0.53,-20.95,8.69,8.84,12
1.82,-0.92,20.42,-2.0,-6.45,27.73,2.58,0.2,20.76,-2.73,0.2,20.51,-11.59,12.98,1.71,-15.87,3.22,6.4,12
1.98,-3.58,21.05,-2.2,-9.37,13.96,3.2,-0.49,20.59,4.0,-5.18,18.02,-12.64,15.93,2.46,-30.32,23.83,4.2,12
2.2,-1.04,21.19,-2.3,-3.03,33.4,3.69,-1.12,20.67,-1.42,-6.79,9.13,-13.59,15.25,2.36,-20.17,16.89,3.17,12
1.1,-1.44,21.09,-2.78,-2.69,19.92,3.93,-1.04,20.81,0.2,0.0,8.74,-12.31,17.02,3.25,-8.64,13.53,6.3,12
2.08,-1.35,21.52,2.64,-7.13,19.53,4.17,-1.16,21.05,6.59,0.88,5.66,-12.6,15.61,3.47,-5.27,8.5,7.42,12
2.67,-2.29,20.91,0.68,-8.2,7.86,3.61,-0.88,20.63,8.79,-1.17,8.15,-11.85,16.69,3.83,-12.84,7.86,6.45,12
3.39,-2.05,21.41,1.22,-5.27,9.72,3.25,-0.04,20.19,7.81,2.49,9.77,-12.01,16.51,4.16,0.88,9.28,1.42,12
3.46,-2.21,21.33,6.2,-1.22,7.13,3.49,1.84,20.19,0.93,5.27,9.13,-12.26,14.43,4.24,-13.67,9.52,1.76,12
2.04,-1.91,21.11,10.11,-3.08,8.15,2.96,1.51,20.2,2.83,0.49,0.93,-12.29,17.2,4.24,-10.4,12.16,-2.34,12
2.32,5.02,22.48,-8.35,20.41,-75.39,8.09,-8.83,21.33,-88.09,-16.8,-131.15,-10.58,11.41,3.86,91.31,-118.6,-32.47,13
0.44,8.21,19.41,1.27,12.74,-176.37,4.96,-10.32,20.04,-40.38,-15.19,-60.89,-9.72,18.32,7.0,22.66,-68.26,0.68,13
3.48,-1.44,18.98,-86.38,10.99,-132.96,4.96,-13.07,20.51,-29.39,-6.88,-27.93,-8.8,19.6,10.0,35.45,-26.95,-0.63,13
2.38,-7.86,19.46,-45.9,15.67,-110.6,3.52,-16.5,17.93,-12.45,-23.83,26.42,-7.3,16.72,11.38,-20.02,25.29,10.5,13
3.1,-9.18,20.24,-9.47,3.17,-51.07,5.59,-12.12,17.97,60.6,-6.93,73.19,-10.43,19.85,7.11,-3.03,87.65,7.32,13
4.48,-16.28,16.99,-5.03,6.98,3.13,10.91,-10.43,16.32,150.73,12.79,145.7,-9.86,16.51,2.56,-16.31,162.06,13.53,13
3.29,-13.61,18.24,14.7,2.29,48.49,4.93,1.15,20.16,38.72,4.25,85.11,-17.8,20.65,-0.86,-25.78,88.62,2.98,13
7.03,-13.77,19.5,33.59,-16.16,96.39,3.18,3.81,19.69,5.62,1.12,39.16,-15.81,17.53,-0.23,-37.74,36.04,0.98,13
6.9,-5.51,22.09,8.45,-19.09,77.39,3.2,2.17,19.99,3.47,-1.95,13.48,-14.4,18.4,1.95,-13.87,15.19,2.69,13
2.79,3.43,21.4,7.62,5.96,35.21,3.86,-1.55,20.68,12.26,15.67,8.4,-13.1,16.19,3.59,0.29,16.36,-1.32,13
0.07,-1.02,21.33,-3.32,-2.15,9.57,4.12,0.07,21.5,2.25,-2.78,4.35,-14.57,15.06,2.42,-6.88,5.91,7.47,13
1.91,-3.41,21.46,-10.99,-2.69,2.73,4.46,-0.09,21.1,1.22,3.13,2.59,-13.75,17.35,3.05,-0.34,4.79,-0.29,13
-1.43,-1.77,20.73,-2.39,-4.1,5.47,2.73,-1.95,20.35,4.2,2.73,4.05,-12.5,15.83,3.65,3.27,3.13,-0.24,13
0.71,-1.42,21.74,3.76,-2.44,-1.46,2.53,-0.31,20.54,10.06,3.17,14.5,-13.56,14.88,3.3,-6.74,18.51,-1.22,13
0.13,-1.88,20.96,-2.15,6.35,-1.71,3.64,1.27,21.66,9.81,0.34,11.38,-15.08,16.06,2.35,-1.81,18.6,2.44,13
0.53,-3.07,20.68,3.56,0.0,7.18,2.6,1.03,20.54,1.9,13.18,14.11,-14.69,15.41,2.2,-15.14,17.68,-8.59,13
-0.92,-1.54,21.17,9.08,0.34,11.96,1.25,0.49,20.5,-2.25,8.4,13.38,-15.07,14.23,3.04,-10.35,14.26,-6.93,13
0.58,-1.05,21.83,0.15,5.37,15.48,1.12,0.53,20.66,-6.01,0.49,3.61,-16.02,14.66,2.41,-3.91,1.61,-2.39,13
-0.86,-1.28,20.59,-3.81,10.84,13.67,0.92,-0.71,20.88,-4.3,-0.49,0.39,-15.73,14.78,3.35,-5.91,0.83,-0.73,13
-1.35,-1.55,21.05,-5.03,3.03,14.21,0.29,-1.01,20.41,-4.15,-3.91,-0.1,-15.64,14.6,3.76,-5.91,-1.37,0.1,13
2.47,-10.11,19.03,-23.54,-2.44,-32.91,4.25,-6.32,19.21,-52.44,-6.64,-53.32,-10.5,13.05,9.51,6.88,-35.89,-7.23,14
1.86,-12.1,18.15,-17.29,0.59,-26.27,4.53,-8.4,17.8,-39.26,6.98,-37.6,-9.98,14.45,10.5,13.09,-27.59,-8.01,14
2.7,-13.47,18.15,-3.91,-2.0,-8.84,3.23,-9.87,17.21,-34.18,-0.29,-31.25,-9.48,13.15,11.99,4.15,-8.06,-1.27,14
3.84,-8.66,19.67,8.01,-7.62,3.47,4.04,-12.26,16.3,-23.78,4.64,-24.95,-10.81,16.3,10.2,11.91,2.78,4.1,14
3.45,-12.06,18.81,5.52,-3.47,6.54,4.64,-14.54,16.15,-8.55,-1.51,-6.98,-9.35,15.41,10.69,9.13,1.51,1.42,14
3.65,-13.98,18.17,29.64,-0.1,37.3,6.46,-12.55,17.73,4.3,-5.52,2.44,-6.77,15.35,10.95,7.03,35.74,0.73,14
3.02,-8.52,19.43,63.82,0.63,54.44,4.87,-14.53,17.14,-3.22,-2.78,6.4,-12.56,15.13,9.19,2.44,71.04,4.0,14
0.64,-4.97,19.0,52.29,1.27,78.96,4.3,-17.05,17.66,27.69,-2.15,28.66,-11.22,14.73,6.85,-23.78,85.35,4.1,14
3.12,-5.19,17.89,65.92,-16.5,132.47,6.92,-11.55,17.74,52.2,-5.32,46.14,-10.28,16.76,3.84,-34.96,124.61,25.68,14
1.37,9.77,19.23,116.5,-2.88,129.2,4.05,-10.48,17.14,56.79,-14.11,73.97,-18.13,22.73,0.03,53.86,156.69,21.29,14
3.02,1.28,20.95,-9.23,-1.76,78.47,5.95,-9.42,17.96,85.16,-15.62,121.88,-17.11,12.03,-1.53,-70.07,66.85,1.56,14
6.32,2.2,22.58,29.44,-41.7,30.13,4.29,2.41,15.7,161.47,7.81,131.59,-12.94,16.53,-1.1,13.62,44.73,20.31,14
4.76,-0.43,22.1,-12.55,-5.18,6.35,4.76,3.88,19.05,4.05,6.88,61.33,-12.39,15.04,0.15,-18.12,7.28,-1.86,14
3.79,-0.61,21.13,-5.81,0.39,-5.96,9.04,4.53,21.27,25.98,-9.57,27.73,-11.74,16.76,1.31,-7.03,2.15,-7.57,14
2.86,-2.85,21.2,-15.19,-13.09,-3.71,7.07,0.23,21.05,-7.28,8.25,4.3,-12.83,16.35,1.37,13.43,4.05,-4.0,14
2.3,-3.38,21.03,-2.39,0.24,-3.12,5.52,-1.35,20.5,-23.24,-4.44,3.66,-12.8,13.5,1.86,-5.62,-0.24,-2.69,14
3.07,-2.7,21.34,-1.42,1.66,0.49,6.25,-2.53,20.62,-18.95,-16.99,0.24,-13.87,15.74,1.48,-6.93,0.98,-2.54,14
1.58,-4.08,21.12,3.95,4.0,-6.05,5.03,-3.19,19.87,-10.55,-2.69,-4.74,-13.58,15.06,1.31,8.01,-2.1,-1.76,14
2.54,-3.26,21.67,-5.13,-8.5,5.13,4.22,-1.9,19.92,-6.05,4.93,-4.74,-13.03,18.52,0.57,-11.43,2.49,1.22,14
1.68,-1.35,21.11,9.03,-4.0,1.32,5.31,-3.28,20.37,3.61,8.3,-9.08,-13.69,15.9,0.46,9.81,7.47,0.34,14
-1.55,-7.47,18.7,-23.29,-3.27,-35.3,6.53,-13.25,19.09,-35.94,-21.63,-12.55,-9.23,17.12,4.85,-3.86,-3.08,3.08,15
-1.86,-2.79,21.32,-12.5,-9.96,-28.52,7.32,-8.52,16.96,-9.18,-12.65,-7.18,-8.73,17.8,4.64,-2.78,1.37,4.15,15
2.71,-8.54,19.05,-11.33,-10.99,-24.85,6.98,-8.16,17.77,13.13,-7.37,23.83,-8.21,19.25,4.39,-16.85,20.85,-9.86,15
3.38,-10.61,19.39,31.35,-11.67,-2.25,4.36,-12.63,17.61,-26.42,28.71,43.26,-5.48,17.81,5.27,-36.82,42.04,-5.81,15
2.87,-10.85,19.13,2.15,-17.72,-8.11,2.25,-15.29,14.56,21.92,-6.15,114.75,-1.13,13.48,5.66,-53.56,99.71,4.83,15
3.21,-11.67,18.74,-11.28,-6.84,21.44,5.48,-14.24,20.55,14.55,-15.28,115.72,-8.27,4.97,5.07,-58.01,151.81,0.2,15
2.7,-13.1,18.4,2.15,-6.49,62.21,0.4,-7.47,19.26,79.83,12.74,105.47,-9.27,6.72,-0.1,-11.87,68.9,-1.17,15
3.81,-13.93,17.17,50.39,-48.93,137.7,-2.95,1.06,16.81,65.92,-50.73,93.7,-10.83,20.16,-3.24,41.55,105.81,-28.22,15
9.12,-8.51,19.22,131.93,-34.23,126.51,13.62,5.1,20.07,9.47,0.34,21.0,-13.62,5.92,-4.43,-48.58,39.31,-14.6,15
1.87,-5.71,16.46,88.87,50.1,103.86,7.6,6.44,18.96,11.18,11.62,1.22,-16.21,14.82,-5.96,-17.77,11.28,-9.67,15
-0.54,3.29,19.17,31.2,-2.44,88.62,4.87,4.29,18.87,30.13,21.0,-7.81,-14.78,17.48,-4.26,28.37,2.15,-8.15,15
3.45,0.94,21.39,-13.62,-23.54,30.42,4.61,4.52,19.11,13.72,18.51,-1.76,-15.91,15.03,-4.69,21.78,5.42,-7.81,15
2.87,4.7,20.03,-7.72,-1.32,5.86,4.06,5.27,19.47,10.74,3.76,1.22,-15.08,13.96,-3.97,9.08,8.64,-2.88,15
-0.07,6.98,19.29,4.78,5.57,4.1,4.08,4.55,19.6,8.5,1.66,1.9,-14.81,13.5,-3.97,2.73,8.01,-3.22,15
-0.04,6.46,20.18,1.56,14.94,1.32,3.38,3.7,19.55,0.15,7.86,6.01,-13.53,12.37,-3.19,-11.33,1.66,-3.61,15
-0.75,6.49,20.34,8.25,4.54,3.13,4.81,3.67,19.86,-1.9,3.03,8.69,-13.89,13.76,-3.57,-12.16,2.44,1.37,15
-0.32,6.55,20.31,4.3,1.61,4.1,3.73,3.7,19.64,-6.01,4.49,6.79,-14.55,13.62,-3.53,-7.52,0.1,0.15,15
-0.36,4.23,20.0,6.93,5.66,8.59,4.85,3.3,20.11,-3.86,-1.12,2.25,-15.32,13.61,-3.58,-2.73,1.42,0.78,15
1.0,4.32,20.39,-0.1,-2.39,9.03,3.5,3.21,19.71,-11.23,2.69,3.42,-14.9,14.31,-3.49,-3.76,-1.81,0.0,15
0.12,4.18,20.49,-2.15,1.66,6.2,3.59,3.22,20.03,-4.05,-3.17,0.93,-14.79,12.84,-2.41,0.1,4.05,2.64,15
4.3,-2.58,18.9,-61.28,21.44,-152.98,3.84,-5.02,16.84,-37.21,14.4,-100.24,-7.26,21.08,6.83,22.51,-40.33,-2.98,16
0.04,-4.33,17.56,-38.33,3.96,-107.37,9.21,-7.48,18.47,-16.65,-9.28,-47.02,-5.36,18.29,8.42,17.68,-13.87,4.98,16
4.52,-7.25,19.82,-45.36,-7.91,-57.08,9.05,-8.5,14.48,-36.08,5.37,-46.48,-5.9,18.33,6.63,0.63,20.8,-2.0,16
4.16,-7.6,16.4,-61.72,-2.54,-44.78,6.07,-14.87,16.0,10.5,-9.96,-4.44,-7.68,17.66,4.62,-7.42,53.81,-6.35,16
6.62,-13.73,16.86,-13.43,-6.93,-17.63,6.24,-9.82,16.77,28.47,-0.83,26.81,-7.54,17.99,2.96,2.44,108.15,-19.78,16
6.28,-11.06,17.54,10.4,0.98,21.24,6.83,-8.26,17.66,44.19,0.73,56.3,-13.48,21.87,-0.5,-25.39,95.41,-11.28,16
6.17,-9.55,18.45,42.58,4.39,58.4,6.74,-10.77,17.31,83.89,-6.59,103.71,-15.38,21.16,-2.76,-33.89,106.84,-10.6,16
4.94,-5.5,17.52,68.21,2.78,91.94,6.88,2.4,18.89,77.44,-4.25,86.33,-17.08,21.28,-4.21,-13.92,130.91,-5.03,16
3.54,0.23,22.02,44.68,-0.29,84.96,7.42,2.11,18.91,63.13,4.3,73.83,-13.58,13.66,-3.93,-52.44,84.72,-9.18,16
0.8,3.83,21.9,65.38,0.0,89.94,6.43,6.95,17.91,139.31,12.4,102.54,-11.55,14.44,-5.15,-44.29,41.89,-3.86,16
-1.49,5.62,22.45,74.37,8.11,116.65,5.79,2.86,19.27,26.51,-4.0,65.58,-12.27,18.2,-3.82,-14.8,10.6,-4.83,16
0.61,2.44,20.8,32.23,3.52,74.02,7.33,4.69,20.51,-0.2,-4.79,44.14,-10.84,18.36,-2.32,19.92,6.3,2.88,16
6.06,2.55,21.14,13.57,1.66,43.46,3.31,4.53,18.98,-16.8,4.39,11.96,-11.79,16.24,-2.47,19.63,2.44,-4.83,16
3.96,2.57,20.23,-0.1,1.37,11.04,4.62,3.77,19.75,-0.54,-3.12,7.47,-12.4,16.27,-1.94,-12.11,-0.44,-4.15,16
3.99,2.01,20.73,3.71,-2.49,2.15,3.97,3.33,19.89,1.17,3.52,-0.88,-11.98,19.51,-2.92,10.99,0.0,-3.71,16
3.21,1.16,21.19,1.46,2.88,-1.27,3.85,-0.51,20.52,-4.74,1.76,-1.22,-12.88,16.29,-2.23,17.19,2.69,-3.47,16
3.52,0.84,20.64,-4.0,4.49,3.42,3.53,1.71,19.6,-8.4,1.95,2.54,-12.61,15.1,-1.69,4.78,1.66,0.1,16
2.79,1.58,20.63,-2.0,2.15,0.78,3.14,1.43,19.98,-6.01,1.07,-3.22,-11.08,17.78,-2.07,-3.42,2.69,0.88,16
2.88,0.95,20.86,-0.0,0.88,-3.52,3.65,0.46,20.24,-4.15,-1.37,-2.44,-12.03,16.23,-2.4,7.47,-1.32,-1.86,16
2.87,-0.19,21.13,-0.83,-0.78,-2.44,4.47,1.44,20.26,-1.51,4.05,4.98,-12.36,16.33,-2.14,-1.07,0.63,1.66,16
2.06,-5.14,20.48,6.69,-1.32,0.98,6.45,-0.97,20.53,10.89,-8.11,3.86,-9.34,18.43,0.91,3.91,1.56,-1.46,17
5.11,-5.59,20.7,0.1,-7.71,0.73,6.46,-1.63,21.08,-0.83,-9.72,5.22,-9.19,17.02,0.89,-1.61,2.2,-0.88,17
3.72,-5.3,20.95,0.63,-6.59,1.07,5.55,0.54,19.85,-15.87,-1.42,2.05,-9.27,18.02,1.12,-0.88,2.44,-1.03,17
3.61,-6.01,20.39,-1.51,-2.0,1.76,4.69,0.35,19.67,-10.84,-3.17,1.71,-9.6,18.43,0.32,-0.15,2.29,-1.07,17
3.56,-5.65,20.54,1.03,-2.49,1.22,5.78,1.43,20.02,25.24,-0.44,6.1,-9.64,19.25,-0.22,10.99,-8.54,1.12,17
3.61,-5.1,20.66,0.88,-2.93,1.12,5.88,1.99,19.16,4.88,2.78,4.39,-9.37,19.05,-1.86,3.27,-26.71,-1.22,17
3.01,-4.92,22.02,6.54,1.56,5.96,5.29,2.21,19.06,3.81,5.13,0.83,-8.5,18.14,-0.71,0.68,-46.44,-16.75,17
5.16,-3.27,21.19,-2.69,10.94,-16.94,5.64,2.23,19.27,0.15,6.15,3.52,-8.46,17.4,1.18,22.12,-61.96,1.9,17
5.16,-3.22,21.04,-17.92,19.19,-36.33,5.11,2.44,19.32,3.42,5.18,4.44,-9.0,14.06,4.43,-4.59,-45.46,13.38,17
3.46,-3.46,18.7,-21.24,8.15,-61.72,6.33,1.25,19.78,0.05,-0.63,4.44,-6.68,17.25,7.37,17.14,-23.29,31.54,17
1.74,-8.82,18.4,-32.18,-4.98,-57.37,6.34,0.58,20.12,-2.1,-2.15,3.52,-1.41,21.27,9.82,8.11,10.3,3.52,17
1.39,-12.27,17.09,-26.17,-31.59,-48.19,5.47,0.19,19.83,-4.35,3.47,0.34,-4.79,20.77,3.7,9.57,64.84,-16.55,17
11.39,-16.09,15.43,7.71,-26.27,-14.6,5.96,0.02,20.08,-6.35,0.73,5.76,-5.64,19.46,0.81,-16.99,77.78,-22.41,17
11.63,-13.82,15.79,23.44,-9.37,42.04,6.39,0.09,20.26,-8.4,-3.03,10.45,-5.78,19.78,-1.29,-17.53,82.76,-23.78,17
7.57,-6.31,17.28,23.97,-4.2,64.4,5.26,0.67,19.63,-0.83,-1.46,0.63,-5.08,18.54,-3.29,-26.9,115.09,-15.82,17
8.0,-3.37,18.44,66.8,3.56,84.03,5.04,-0.23,19.84,-1.22,-0.68,-0.44,-4.69,14.69,-3.47,-50.83,102.73,-25.39,17
5.43,-5.94,17.95,55.03,4.69,110.55,5.34,0.74,19.52,1.42,1.86,0.15,-4.91,13.16,-4.01,-49.22,75.0,-21.39,17
5.49,0.24,20.37,47.12,-21.73,87.7,5.25,0.58,19.29,2.98,2.1,1.51,-9.6,16.6,-6.1,-56.74,50.63,-13.72,17
6.68,4.86,21.31,24.61,-27.98,67.68,5.54,0.23,19.74,-0.49,-0.68,1.76,-12.12,16.49,-6.22,-10.99,18.9,-10.01,17
0.3,10.46,23.62,41.8,7.67,71.97,5.67,0.44,20.17,-1.95,1.27,2.54,-9.99,16.88,-3.59,4.93,-6.45,-1.56,17
3.54,-1.48,21.59,-61.13,-13.33,-89.79,9.16,-13.06,16.27,-83.2,-14.4,-64.6,-5.2,22.92,4.67,20.61,-81.59,3.22,18
1.76,-2.2,19.26,-38.72,11.04,-108.2,5.77,-17.29,15.73,-32.91,-5.76,-38.48,-5.74,19.95,7.63,19.97,-32.13,5.27,18
2.51,-4.71,18.37,-40.38,14.01,-98.78,9.49,-16.21,14.37,14.6,-0.93,7.67,-4.83,19.28,7.11,7.28,11.96,-2.44,18
9.0,-9.08,16.66,-51.47,-6.88,-70.36,8.51,-14.59,17.03,24.56,-11.13,36.18,-5.07,18.76,4.69,-9.28,50.54,-1.07,18
11.2,-14.69,14.98,-17.04,-33.98,-32.42,8.73,-7.05,17.64,51.9,0.88,49.27,-5.78,17.4,2.3,0.34,59.62,-16.8,18
8.53,-12.15,15.79,14.5,-6.45,10.06,5.77,-9.64,17.86,44.87,-4.39,75.54,-5.47,14.59,0.6,-10.35,97.85,-26.07,18
7.45,-12.84,16.94,31.79,-12.26,43.21,8.28,-4.48,17.39,61.87,-18.85,81.64,-12.94,16.81,-0.63,3.95,97.07,-25.73,18
11.71,-8.22,18.2,29.39,-4.93,47.66,8.11,-1.67,17.63,86.33,-13.23,71.68,-16.47,17.83,-0.92,14.79,101.9,-21.44,18
9.05,-10.43,15.93,52.49,13.13,84.47,6.25,0.21,18.45,45.65,-5.42,53.66,-12.08,19.9,-3.84,-13.77,56.59,-4.83,18
5.55,0.35,19.39,89.5,17.14,78.47,7.05,1.87,19.77,22.07,4.05,32.08,-12.56,18.13,-4.63,-14.4,37.16,-4.88,18
3.82,2.7,18.75,108.01,31.69,67.72,8.21,2.5,20.29,47.41,-8.89,38.09,-15.21,18.37,-5.03,-10.01,45.56,9.18,18
1.83,4.79,20.59,45.17,18.65,57.32,6.72,-0.7,20.07,39.21,-8.5,46.0,-12.05,15.1,-4.48,-19.14,62.21,6.59,18
2.33,2.87,21.99,7.81,5.71,37.06,6.19,3.08,19.5,1.56,-10.06,20.41,-11.74,18.14,-5.79,-11.13,27.34,5.96,18
2.61,4.23,23.29,19.87,-15.04,41.31,7.54,1.34,20.23,-4.05,-1.07,6.84,-10.36,18.99,-5.52,1.76,6.25,-6.1,18
2.26,1.66,20.94,27.25,-8.89,53.91,8.3,-1.85,19.85,14.01,7.71,2.93,-9.15,15.26,-4.31,11.67,3.17,1.86,18
2.59,2.33,21.09,11.91,-6.01,25.88,7.56,-2.53,20.29,5.81,-7.81,-1.22,-9.52,12.94,-3.6,-12.4,-2.54,5.91,18
4.39,1.94,22.02,-4.1,6.05,8.01,7.53,-2.49,20.96,-2.73,-4.93,4.05,-9.25,15.83,-4.44,-18.9,1.07,0.78,18
6.03,0.38,21.36,9.47,-17.97,-2.93,5.54,-0.8,19.59,-0.15,-0.2,-2.39,-11.05,16.19,-3.87,2.59,2.64,-2.44,18
4.13,-1.04,20.5,2.39,-17.63,-2.69,6.15,-0.31,19.51,0.63,-2.39,0.29,-10.18,16.87,-4.0,2.69,0.63,1.61,18
3.17,-1.22,20.6,0.1,0.54,7.08,5.92,-0.19,19.46,3.71,1.71,1.17,-9.72,17.05,-3.78,3.32,2.0,-1.03,18
2.04,-0.66,20.54,-110.6,-13.87,-91.41,-0.19,-13.17,19.06,11.67,-15.92,-0.78,-6.22,12.93,14.91,28.22,1.17,13.23,19
-0.47,-10.86,15.61,-77.54,-16.06,-101.51,0.73,-12.58,21.89,-2.34,-7.47,30.62,-5.83,15.73,13.7,2.73,22.9,4.3,19
1.02,-16.72,18.73,-29.79,2.44,-31.01,2.41,-8.42,18.63,13.96,-17.29,86.52,-6.97,12.76,11.76,-50.15,71.39,-11.87,19
1.89,-14.53,18.07,11.96,-16.7,-2.39,-1.48,-11.19,17.88,17.09,-10.89,97.22,-7.19,8.28,11.14,-34.86,82.71,-0.68,19
3.8,-14.74,20.43,0.49,-9.33,32.03,3.2,-8.28,20.12,45.41,-42.04,133.69,-8.73,5.78,8.77,-45.61,134.47,25.49,19
1.59,-8.43,18.15,17.97,-14.31,80.47,4.04,-8.12,18.56,88.67,0.88,120.9,-13.91,1.53,4.54,-70.12,153.17,24.66,19
0.39,-11.18,16.72,21.68,-1.81,90.92,2.15,1.11,22.12,-13.48,-35.3,101.95,-17.73,13.87,3.16,-109.91,85.55,27.1,19
1.13,-6.85,19.28,75.34,-27.54,132.03,0.84,1.26,20.54,11.96,-9.08,44.82,-16.07,15.49,4.89,-30.91,36.13,3.03,19
-0.37,-4.3,20.19,96.14,9.52,126.51,2.56,-2.33,22.1,-1.76,-11.38,43.9,-13.39,10.0,6.01,-65.63,21.0,2.34,19
-0.16,-1.49,22.91,-11.82,-33.15,100.1,1.96,0.87,20.89,4.88,-2.1,16.85,-16.38,10.09,6.76,-39.6,15.72,-4.93,19
0.38,-0.32,21.99,16.55,-11.67,44.68,0.54,-1.26,21.13,6.88,-3.56,3.91,-15.88,12.2,6.71,-2.34,1.03,1.17,19
1.34,-3.35,21.83,3.27,-9.52,41.21,0.33,-1.78,21.3,1.51,-1.76,-3.08,-15.56,11.79,6.85,3.66,-1.32,-2.05,19
-1.81,-2.02,21.97,-0.68,3.56,19.38,0.26,-1.47,20.93,-0.15,0.54,2.15,-15.69,12.86,7.3,2.05,-1.51,-1.22,19
-1.61,-1.14,21.72,9.13,-8.25,1.42,-0.26,-0.54,20.92,2.2,6.84,0.2,-16.65,12.09,7.69,5.76,4.49,-2.93,19
-1.86,-1.96,21.37,3.95,-1.76,-1.86,0.21,-0.41,21.1,3.27,6.49,-1.95,-16.89,11.39,7.01,4.05,1.12,-1.51,19
-2.04,-2.78,21.44,4.15,1.81,0.88,-1.07,-0.29,20.74,-2.44,1.32,-1.07,-16.77,11.09,7.03,-2.44,1.61,-3.56,19
-1.03,-2.48,21.38,1.56,5.18,1.61,-1.08,-0.09,20.83,-0.83,2.69,-2.54,-16.91,11.16,7.06,2.44,0.68,-0.54,19
-1.12,-2.65,21.83,4.69,2.15,-1.22,-0.35,-0.5,21.04,2.64,-0.1,-2.2,-17.06,10.52,7.5,2.25,0.93,0.59,19
-2.45,-2.42,21.07,-1.12,-0.05,0.59,-0.43,-0.96,21.07,-3.08,0.78,0.93,-16.46,12.03,7.36,0.98,0.1,-0.73,19
-2.0,-1.86,21.54,0.39,-1.76,-0.73,-0.55,-1.17,20.82,1.71,-0.59,0.49,-16.64,10.94,7.55,5.18,1.42,-0.59,19
-0.18,-5.13,22.48,-111.43,-29.59,-68.02,0.49,-16.63,17.34,-15.09,-20.95,-26.9,-7.87,11.01,16.32,27.29,-27.83,20.51,20
-2.71,-7.88,18.17,-46.88,18.12,-84.42,3.84,-15.24,19.76,16.31,-23.19,9.81,-3.94,14.1,16.61,27.88,8.4,15.97,20
-2.3,-12.18,16.41,-41.75,-36.28,-49.85,2.63,-12.9,19.87,13.96,-13.23,64.5,-4.56,16.76,13.89,-11.91,75.78,1.22,20
2.38,-18.79,16.2,-20.36,-55.91,-29.74,-1.4,-16.64,18.53,6.4,-19.43,104.35,-3.24,14.69,9.77,-57.37,110.21,-3.47,20
5.63,-15.76,18.68,26.42,-16.31,8.74,3.44,-9.34,20.41,42.28,-26.95,111.43,-7.98,-0.19,6.59,-103.32,126.07,17.63,20
3.59,-13.45,19.69,22.7,5.86,62.74,4.9,-0.5,19.89,67.87,-18.85,106.4,-18.5,4.46,9.57,-51.37,128.47,27.69,20
2.65,-15.9,16.64,17.72,-7.18,113.28,2.35,-2.72,20.93,44.48,9.03,96.97,-16.54,6.69,6.72,-48.29,92.29,16.89,20
5.44,-11.29,18.14,0.68,-18.85,99.17,0.57,4.22,21.25,2.49,-0.54,58.54,-18.84,12.12,3.13,-49.76,51.51,14.7,20
0.21,-2.36,21.96,45.61,-9.13,103.61,0.52,4.34,20.27,22.17,9.77,29.79,-18.33,16.07,2.9,-9.96,39.26,-6.93,20
-0.56,-1.15,21.62,37.06,4.69,98.05,-0.19,1.58,20.82,-0.24,6.05,4.64,-17.57,9.18,3.76,-4.54,8.15,-6.3,20
-1.25,2.85,22.67,4.05,-4.44,58.3,-1.13,-0.33,21.27,-0.29,2.88,0.63,-17.06,9.85,4.78,-8.84,2.69,-1.42,20
-1.83,1.44,21.92,22.12,-0.63,33.89,-1.38,-0.0,20.88,4.88,2.88,-1.56,-16.45,9.98,5.24,7.28,1.03,-3.76,20
-1.36,-0.39,21.48,-0.29,3.52,5.32,-1.19,-0.28,20.98,-0.63,1.66,0.88,-17.87,10.55,4.5,-6.1,2.64,-0.88,20
-1.79,-1.93,21.27,0.15,0.24,2.25,-0.48,-0.33,21.39,0.39,-2.1,0.15,-17.9,11.66,4.5,-4.93,2.34,1.42,20
-2.18,-2.28,21.28,5.62,-0.1,-2.98,-0.7,0.4,21.23,4.0,-2.88,-3.03,-17.12,10.85,4.55,4.69,0.29,3.76,20
-2.46,-1.85,21.15,-1.32,-1.22,5.08,-1.32,-0.26,21.27,0.15,-4.54,-2.59,-17.98,9.67,4.66,-6.74,2.73,-0.93,20
-2.61,-1.73,21.41,-0.73,-3.08,1.71,-1.37,0.54,20.8,-1.07,-0.15,1.32,-17.46,11.33,4.81,-5.47,3.32,-1.07,20
-2.25,-1.88,21.24,2.25,-7.76,-0.83,-1.9,0.62,20.45,-2.1,3.37,1.71,-17.77,10.77,5.02,2.98,6.93,-2.83,20
-2.69,-1.77,20.98,-1.27,-2.0,1.42,-1.23,0.2,20.94,-0.54,-0.05,2.44,-17.57,11.83,4.83,1.22,2.78,-1.12,20
-2.13,-1.46,21.32,-0.54,-1.07,2.93,-0.94,0.22,20.98,0.24,-0.1,-0.83,-17.64,10.3,4.83,4.44,2.2,-0.34,20
0.66,-13.58,16.9,14.65,-14.89,9.38,-0.2,-14.12,16.24,19.24,-16.75,16.06,-7.22,12.86,15.34,9.23,9.91,6.1,21
4.15,-16.14,20.15,14.4,-23.14,16.7,2.87,-15.62,18.91,16.11,-15.87,35.45,-5.38,16.82,15.76,34.42,39.65,4.3,21
0.19,-11.58,16.32,58.84,9.81,104.54,1.31,-13.35,15.79,66.55,-4.3,110.01,-8.24,19.53,12.19,24.61,126.46,-3.86,21
0.34,-11.13,16.73,68.21,-7.62,153.52,1.93,-13.05,16.91,45.65,-31.3,140.19,-9.4,16.35,7.01,5.76,161.04,31.45,21
3.71,-0.67,21.07,25.0,-45.95,142.92,3.47,-2.18,19.08,85.11,-28.81,149.61,-12.21,23.4,2.48,-42.82,120.31,16.11,21
1.07,0.62,21.16,40.14,-25.49,98.73,4.15,-0.01,20.79,45.7,-34.91,95.7,-14.22,13.31,1.1,-40.97,74.51,13.48,21
2.44,3.3,21.66,30.71,-17.72,62.45,4.65,4.3,20.84,34.67,-11.08,47.36,-16.28,16.98,-1.1,-52.73,41.16,-0.88,21
-0.58,1.86,21.03,10.69,2.39,17.87,2.88,3.72,19.87,14.55,3.56,11.96,-16.16,15.12,0.87,-17.72,15.14,-5.18,21
-0.64,0.14,21.2,3.42,1.66,5.86,1.9,1.7,20.42,4.35,2.2,3.81,-15.94,14.34,2.58,0.63,6.59,-5.76,21
-0.18,-1.14,21.46,-1.37,-1.17,12.01,2.53,0.62,21.17,3.22,2.2,10.4,-15.72,13.15,3.92,-8.11,11.47,-7.67,21
-0.54,-0.24,20.82,-2.88,-0.44,19.38,1.19,0.61,20.55,-3.17,-1.95,18.46,-16.65,12.09,3.7,-22.8,14.45,-2.34,21
-0.83,-0.83,21.26,-3.17,0.34,18.46,1.9,1.08,20.99,2.69,0.63,16.5,-15.7,14.01,3.77,-3.37,11.77,-6.35,21
-1.5,-0.1,20.59,-3.32,0.68,12.5,0.86,2.11,20.08,-0.63,1.9,6.69,-17.19,10.63,3.8,-14.11,5.22,-1.07,21
-0.13,0.42,21.6,0.1,-0.78,7.96,1.56,1.65,20.54,-1.42,3.03,5.86,-16.87,13.32,4.24,-12.89,6.01,-3.52,21
-0.49,0.21,21.42,3.03,-0.54,-2.98,1.36,1.48,20.73,0.34,0.88,-2.15,-16.82,12.98,4.23,14.21,-0.39,-1.95,21
-1.63,-0.3,21.07,-2.69,2.44,-0.15,1.35,1.01,20.82,-0.15,-1.76,-6.4,-17.47,10.18,4.47,0.59,0.88,-2.34,21
-1.38,-0.41,21.28,-3.47,2.25,3.37,1.14,1.33,20.69,-2.34,2.54,0.05,-17.21,12.07,4.52,-11.18,3.17,-3.56,21
-1.69,0.04,21.34,0.98,0.68,0.39,0.83,1.27,20.61,-1.81,-0.49,0.0,-17.32,13.0,4.61,0.2,-0.54,-0.63,21
-1.48,-0.5,21.12,1.03,-1.17,-2.0,1.25,1.32,20.83,1.76,-3.12,-3.08,-16.75,11.67,4.67,8.84,-0.68,-0.15,21
-1.33,-0.48,21.23,-1.37,0.63,1.86,0.62,1.19,20.62,-1.12,0.1,-0.98,-17.46,11.44,4.8,-5.32,2.78,-2.83,21
-0.02,3.06,20.55,4.54,30.86,-119.43,0.89,-15.33,17.0,-15.67,2.59,-22.56,-7.18,20.13,16.55,40.67,-41.26,-14.31,22
0.36,0.56,20.26,-56.35,-25.93,-114.36,2.16,-14.79,17.87,15.62,-1.9,11.08,-6.4,10.7,15.37,-8.5,9.38,4.1,22
-0.79,-8.37,17.69,-127.64,-17.19,-100.15,3.41,-13.05,17.33,19.29,-37.99,60.6,-7.28,15.0,14.76,-5.18,40.19,5.47,22
2.76,-15.57,16.16,-41.36,-1.9,-67.19,1.57,-12.52,17.53,59.67,-20.02,71.88,-7.0,8.68,11.17,-3.81,95.75,3.61,22
1.02,-16.17,16.42,-17.19,-25.88,-4.25,4.7,-6.28,18.53,56.35,-41.89,69.97,-12.12,11.17,10.23,-11.91,106.1,15.67,22
-0.97,-15.0,19.82,29.1,-6.45,37.26,3.23,-0.18,18.25,89.45,-8.11,91.41,-14.86,6.13,6.93,10.64,103.32,17.92,22
2.37,-12.11,17.61,20.07,-8.3,59.18,0.83,-2.4,18.74,41.85,-3.12,83.54,-15.96,12.5,2.56,-3.81,95.36,-10.64,22
1.5,-7.05,18.78,50.05,-42.14,64.4,5.38,1.5,21.12,55.86,-7.96,73.24,-16.15,13.54,-1.6,-71.14,94.92,-13.53,22
4.7,-7.72,20.41,60.11,-52.15,73.05,-0.38,-7.27,22.98,8.89,16.16,26.32,-17.73,14.78,-3.33,-37.3,42.04,-13.96,22
4.12,-5.3,19.93,25.98,0.15,72.95,1.24,3.55,20.2,7.47,7.37,21.44,-18.4,11.4,-2.55,-17.92,31.59,-10.6,22
-0.33,-3.75,20.58,-3.81,-3.32,88.18,1.98,1.9,20.89,3.71,7.96,15.04,-16.15,10.03,-1.09,-11.13,8.89,-4.25,22
3.61,0.68,22.48,17.68,-1.07,61.28,1.75,-0.35,21.23,-0.34,-1.51,5.86,-16.99,11.32,-0.32,-19.38,3.22,-2.93,22
-2.3,0.99,21.97,11.62,30.71,37.35,0.36,-0.73,20.64,-4.83,-5.96,-0.59,-17.54,11.27,0.42,-4.15,-2.29,-0.24,22
-2.06,0.31,21.19,-9.67,0.0,13.87,1.07,-1.12,21.33,-9.47,-2.83,-4.64,-17.73,13.46,0.09,6.93,-3.27,7.28,22
-2.75,-0.42,20.87,-8.3,8.59,12.6,0.59,-0.91,20.93,-1.51,-1.46,0.2,-16.95,12.51,1.73,-0.73,0.68,-2.78,22
-1.42,-1.39,21.29,-4.05,4.0,6.01,1.34,-1.81,21.4,-0.73,-1.42,4.44,-17.26,12.79,1.94,-2.78,2.78,0.0,22
-0.91,-1.74,21.4,1.71,-9.28,1.76,0.39,-0.13,20.97,0.54,0.24,3.13,-17.01,12.52,1.16,2.49,6.15,-5.18,22
0.4,-3.6,21.85,-5.86,-5.66,-0.78,0.29,-0.28,20.52,-2.49,-1.27,5.52,-17.48,12.11,1.01,-10.69,5.22,-4.05,22
-0.81,-3.15,21.26,-2.2,-2.69,-0.68,0.89,-0.91,20.99,0.2,0.05,0.93,-17.38,11.76,1.42,5.03,0.78,2.69,22
0.37,-2.5,22.0,6.74,-0.49,5.27,1.59,-1.21,21.46,0.54,-3.17,-4.39,-17.11,11.37,1.9,-4.49,0.15,0.34,22
-4.42,1.64,21.73,49.76,28.27,-120.46,-1.37,-28.88,13.15,-102.69,16.8,-47.02,-8.69,16.41,15.91,26.66,-37.06,33.69,23
-3.75,-1.05,20.94,2.73,-7.32,-72.56,3.25,-18.66,13.93,9.91,-21.48,10.11,-5.8,13.86,16.48,4.35,4.1,2.98,23
-3.12,0.47,20.76,-20.07,-9.67,-73.24,3.37,-16.1,16.36,29.15,-21.14,36.47,-6.31,13.52,13.16,-4.88,38.82,12.35,23
0.05,-4.86,20.06,-62.84,-5.42,-79.1,1.38,-17.58,16.12,42.58,-19.92,66.11,-3.85,15.08,8.99,-21.48,91.6,-6.88,23
-1.75,-9.78,14.94,-143.36,-49.66,-119.53,6.76,-8.24,20.06,31.25,-50.93,85.25,-12.19,7.62,8.42,-77.59,102.69,14.65,23
4.7,-19.22,16.98,-14.5,-31.2,-22.22,6.62,-12.97,18.91,82.57,1.76,77.64,-7.93,0.3,5.5,-41.6,117.33,4.69,23
3.85,-16.14,15.45,15.53,-21.83,14.94,5.33,-8.61,20.92,17.92,-16.41,114.21,-14.77,6.93,3.7,-85.84,117.24,-0.54,23
4.14,-9.32,17.44,89.94,11.87,61.28,3.76,1.11,20.5,58.06,-11.82,99.95,-18.18,13.12,1.22,-70.51,104.35,3.81,23
1.89,-0.35,19.31,101.86,-11.23,116.55,2.18,2.33,20.59,12.35,1.56,45.85,-16.21,11.49,0.13,-29.83,54.93,-10.35,23
4.24,-3.33,21.43,41.11,-21.29,100.44,3.22,4.59,20.72,8.69,-6.49,7.28,-16.0,8.01,1.24,-18.02,9.86,3.42,23
1.86,7.3,17.72,61.13,10.01,105.32,2.22,0.83,21.42,-10.5,-5.86,-4.3,-16.78,13.11,1.02,0.68,-2.39,-2.29,23
-0.48,1.74,21.0,30.86,11.33,125.1,1.04,1.48,20.76,1.42,0.39,-2.29,-18.59,11.82,1.56,4.54,4.05,-4.83,23
1.41,1.48,22.26,6.69,-7.76,77.2,0.39,1.72,20.34,4.05,5.52,4.79,-17.04,9.71,1.79,-9.38,10.01,-7.03,23
-1.27,0.71,24.65,21.29,7.67,45.9,0.47,1.83,20.86,-6.2,-0.1,-0.2,-16.98,12.17,1.73,-1.03,-1.51,-0.2,23
-0.44,2.59,21.71,19.19,-1.03,-0.44,1.04,1.24,21.1,1.07,0.15,-1.42,-17.0,11.25,1.97,4.98,-2.15,0.44,23
-1.28,0.55,21.24,3.03,9.03,5.03,0.83,1.83,20.78,-2.34,-1.86,-1.12,-18.17,9.85,1.47,-6.79,2.44,0.1,23
-1.56,0.9,21.67,0.63,2.2,4.1,1.3,1.78,20.89,-1.22,-0.78,0.63,-17.75,12.92,1.92,-1.22,0.29,0.68,23
-2.82,0.96,21.1,1.12,-2.34,-1.27,0.54,2.13,20.61,-1.47,-0.93,1.56,-17.6,12.66,2.1,2.83,0.15,-1.37,23
-2.11,0.42,21.17,3.37,-1.51,1.37,0.46,2.45,20.66,-0.73,0.88,-0.68,-18.01,11.56,2.14,9.86,1.12,-0.73,23
-2.14,1.19,21.35,0.73,-0.05,3.66,0.72,2.54,20.54,4.35,-0.05,-0.83,-18.01,11.04,2.01,4.25,3.22,0.34,23
-1.57,3.07,19.03,-8.89,3.17,-111.38,3.6,-17.27,16.72,-12.01,-16.16,-14.36,-13.8,17.16,4.37,85.64,-94.73,-21.04,24
-1.16,-4.41,20.46,-65.48,-1.27,-63.18,4.4,-15.12,15.2,26.95,-3.47,8.54,-13.02,8.57,8.31,24.85,-93.07,-13.18,24
1.66,-9.89,21.55,-75.44,-40.48,-82.23,4.3,-11.86,15.66,61.47,12.45,49.61,-8.31,13.49,12.87,-7.08,-106.79,10.94,24
-0.35,-11.41,13.44,-71.58,11.91,-67.43,3.54,-9.06,17.77,75.78,-5.76,80.96,-5.69,9.06,14.26,-7.62,-86.23,-30.91,24
1.97,-16.16,18.29,-10.06,-18.75,-14.4,3.62,-4.27,18.38,95.12,5.52,80.71,-7.17,8.73,16.78,16.16,-15.43,9.08,24
3.11,-12.76,17.84,15.72,-6.35,12.55,2.59,-2.91,20.22,41.85,-11.38,117.38,-6.58,13.9,15.57,24.95,20.85,-0.73,24
3.75,-9.56,18.2,59.37,16.75,56.93,2.94,-1.47,20.35,44.63,-14.21,82.03,-7.82,17.17,13.04,18.55,68.51,-6.35,24
1.44,-4.97,20.06,51.81,1.22,89.99,3.32,6.23,20.28,36.13,-0.63,49.85,-10.38,16.21,9.97,-3.37,94.87,15.58,24
-0.6,0.63,19.94,66.11,13.38,97.56,3.15,3.8,20.87,8.4,-3.91,42.04,-13.6,16.31,6.87,-7.81,114.01,17.72,24
-0.78,2.14,20.51,13.28,13.09,124.07,1.26,3.18,19.87,5.62,6.15,20.85,-13.19,22.59,3.69,-40.97,112.26,16.26,24
-2.07,1.43,20.21,14.31,-3.96,87.65,1.34,1.52,20.53,4.25,2.39,1.9,-14.96,15.05,2.59,-40.43,84.47,20.41,24
0.56,4.56,22.05,22.02,-17.63,54.0,1.75,0.61,20.73,-7.96,0.39,-0.05,-15.14,15.59,1.87,-44.78,46.29,30.18,24
0.22,3.98,21.65,-2.3,-4.93,43.02,2.35,1.92,21.15,1.42,-2.0,0.59,-13.6,17.44,2.5,-40.58,30.32,18.95,24
-0.74,3.53,20.56,2.54,5.27,23.1,1.94,0.81,20.9,-3.17,-2.98,2.25,-14.48,15.66,3.94,-9.91,22.66,-1.46,24
-1.76,1.88,20.7,3.71,3.42,4.93,1.68,1.03,20.67,1.86,-4.74,1.32,-14.01,14.16,4.31,7.91,9.57,-3.96,24
-0.9,1.51,21.06,-3.47,1.95,5.66,2.55,0.51,20.62,-1.81,-2.64,4.83,-14.62,14.04,4.74,-9.38,2.78,-0.63,24
-0.13,2.11,21.62,0.59,-8.2,2.54,2.06,0.62,20.94,-1.27,-0.44,3.17,-14.13,14.94,4.79,-0.63,3.76,2.83,24
-0.88,0.88,21.18,-1.03,-2.73,-0.05,2.25,0.95,20.63,1.71,-2.25,0.39,-13.51,15.49,4.95,2.29,0.39,-0.63,24
-1.46,1.75,20.81,3.08,-3.56,1.95,2.13,1.04,20.6,-0.54,-1.07,-0.59,-13.99,13.17,4.82,3.22,4.2,0.39,24
-0.64,1.31,21.18,-4.15,1.95,6.01,2.52,0.95,20.81,-1.66,1.32,0.83,-14.09,15.17,5.13,-7.62,5.91,-0.63,24
-0.79,-2.51,19.39,-71.29,-12.26,-80.96,4.8,5.38,19.74,-13.48,4.39,-108.15,-13.27,21.1,1.14,64.11,-85.74,-31.1,25
-1.61,-9.54,17.65,-93.8,-19.14,-102.64,2.85,-1.1,19.35,-69.68,9.86,-110.55,-12.57,11.69,5.25,47.66,-99.07,-35.79,25
2.15,-15.71,18.12,-59.52,-17.48,-52.34,1.61,-4.69,17.65,-78.52,-3.22,-75.73,-13.04,12.85,8.64,-22.46,-102.25,-9.91,25
3.31,-12.27,17.95,-27.1,-35.94,-25.15,1.92,-11.98,15.75,-142.87,1.32,-101.32,-7.02,10.58,12.47,3.56,-117.63,-2.73,25
5.02,-12.22,18.4,10.69,-0.44,6.49,2.8,-16.59,15.34,-45.46,-3.08,-45.75,-3.96,11.76,15.77,-6.93,-71.19,-0.68,25
5.78,-14.6,18.18,29.39,9.23,28.52,5.31,-14.32,13.82,-17.87,-3.37,-20.51,-5.32,10.37,15.33,13.96,-23.58,12.21,25
2.07,-11.54,16.8,66.16,18.21,73.44,5.62,-15.37,15.12,13.33,0.24,9.52,-4.72,14.35,15.58,6.45,12.01,-2.59,25
2.56,-6.62,19.23,79.25,-2.34,98.19,5.58,-15.05,16.03,33.64,-0.2,33.69,-4.7,14.36,15.31,18.41,53.03,-9.33,25
2.78,1.27,20.94,39.84,6.69,119.14,3.13,-15.68,14.55,68.99,-7.96,75.93,-6.62,10.89,11.88,34.13,105.42,-0.24,25
2.88,-0.3,22.29,33.54,-42.14,151.46,2.85,-9.67,17.46,76.51,-17.72,92.48,-8.74,16.24,7.64,38.53,124.66,11.87,25
1.73,4.48,18.97,56.74,33.2,107.71,4.05,-2.7,18.92,57.23,-14.79,126.9,-11.44,21.46,2.37,-31.98,124.46,2.93,25
-0.26,6.08,20.16,13.23,3.22,35.25,5.66,-2.39,21.07,43.31,-37.26,161.67,-9.5,20.43,-0.54,-187.45,103.27,53.52,25
1.18,3.3,21.05,2.2,4.74,-4.74,4.4,3.68,19.22,53.42,3.47,97.66,-14.12,13.97,4.35,-44.78,79.39,19.92,25
1.26,1.35,21.78,6.54,-4.35,-3.81,2.39,5.92,19.51,12.99,4.05,26.07,-17.35,12.77,2.31,-16.36,37.45,8.59,25
0.22,0.86,20.82,-9.52,10.74,-0.39,1.65,2.27,19.97,-4.79,6.1,-5.22,-15.27,14.81,4.41,10.55,4.49,-8.64,25
-0.19,1.75,21.36,-1.07,-3.71,-2.59,2.53,0.85,20.67,-2.2,5.27,-2.98,-15.16,14.23,6.19,7.76,2.0,-4.35,25
0.07,1.02,21.08,-4.0,-3.03,-4.35,0.8,0.86,20.1,-3.66,5.81,-0.83,-14.99,13.4,6.2,-2.15,4.54,-10.99,25
0.0,0.21,20.96,-2.64,2.34,-2.34,1.55,1.18,20.64,-2.2,0.2,-2.59,-15.41,14.78,5.51,6.4,-0.63,-1.22,25
0.08,-0.17,20.95,-0.93,1.27,-0.88,1.78,0.68,20.6,-1.71,-1.56,-5.42,-15.09,14.33,5.99,6.2,-3.76,-1.95,25
0.13,0.12,21.25,-1.95,2.2,-2.54,1.88,-0.36,20.89,-1.71,-2.34,-2.69,-14.91,13.17,6.53,3.91,1.27,-3.91,25
4.33,-11.98,20.04,-0.78,-7.62,10.69,5.21,-13.52,17.05,9.13,-5.86,9.81,-6.16,12.2,12.11,-15.87,10.5,4.88,26
3.39,-7.44,19.89,4.3,-2.2,16.55,4.59,-10.64,18.67,-4.05,-6.59,18.16,-8.28,14.77,11.75,-12.01,15.14,-3.17,26
0.81,-7.62,18.6,-16.21,-0.2,-18.55,2.82,-9.97,16.47,-22.51,3.81,-15.62,-9.92,13.15,9.76,0.34,-15.67,-6.05,26
2.95,-10.62,19.0,-34.13,-12.26,-38.38,5.84,-10.49,13.6,-40.28,2.59,-27.59,-6.71,13.47,12.74,7.86,-28.66,1.22,26
6.32,-11.69,17.34,-20.22,-26.71,-19.09,5.88,-12.28,16.01,1.17,-6.2,-11.38,-1.95,15.93,15.26,18.21,-7.47,6.45,26
6.0,-16.83,16.78,29.59,-6.45,44.68,4.08,-19.62,14.51,29.98,-17.82,43.7,-0.35,15.92,13.98,-2.2,48.68,6.49,26
7.83,-15.03,16.45,62.94,-3.81,107.23,5.67,-19.11,17.3,51.42,-28.37,95.36,-1.43,13.77,7.76,-20.85,113.43,13.53,26
7.35,0.06,19.89,50.73,-8.25,155.66,5.93,-5.15,16.26,67.68,-28.22,151.81,-9.0,27.12,5.36,19.63,161.87,21.53,26
2.07,-5.54,20.2,49.51,-57.47,134.72,7.65,-8.87,19.39,67.72,-65.58,111.57,-12.55,14.32,1.95,-104.15,151.71,21.44,26
6.59,3.3,19.6,99.41,2.83,82.57,5.98,2.03,17.8,122.75,-20.56,80.62,-13.0,19.32,0.54,8.15,84.28,6.35,26
4.4,3.93,18.71,31.01,12.26,47.31,6.97,2.71,19.35,9.33,-11.82,38.57,-13.22,12.29,1.67,-41.31,51.56,5.22,26
2.71,5.9,20.87,-1.86,4.93,12.6,6.86,4.8,19.13,14.94,7.91,12.6,-13.09,16.73,1.28,-12.11,24.02,-4.69,26
0.79,3.88,19.77,-2.34,12.99,5.47,4.44,2.3,19.45,0.15,1.27,-1.42,-14.93,16.43,1.44,-10.69,4.1,-3.71,26
2.0,2.53,20.45,-5.62,9.91,-5.08,4.04,1.77,19.76,-3.03,2.88,-7.23,-14.43,16.56,2.29,14.84,-2.54,-9.33,26
1.62,0.35,20.51,-13.48,10.01,-0.73,4.31,0.43,20.09,-7.52,5.86,-1.76,-14.41,12.83,3.72,-8.25,0.93,-9.52,26
2.59,0.81,21.25,-3.08,1.95,1.42,4.6,0.68,20.31,2.25,5.03,0.63,-14.11,15.74,3.53,-1.51,1.86,-4.83,26
1.62,1.14,21.3,5.22,-2.34,-0.1,3.96,0.14,20.17,3.71,2.64,1.9,-14.4,14.44,3.92,1.71,2.15,-1.46,26
1.0,1.79,20.64,-1.76,3.47,4.74,3.62,0.84,19.96,-0.88,-2.15,4.39,-14.4,15.7,3.28,-8.74,2.69,-3.27,26
1.62,2.02,21.28,4.93,-7.08,-1.22,4.46,1.22,20.2,3.71,-1.76,0.34,-15.06,15.23,3.04,14.75,1.37,1.27,26
3.44,0.78,21.22,3.08,-15.77,-1.61,5.09,0.01,20.41,6.1,-0.78,-5.96,-15.32,13.02,3.29,5.71,-2.98,1.37,26
0.46,0.81,20.67,-50.93,-16.11,-48.44,2.79,-9.78,18.87,-84.03,-1.71,-70.26,-13.87,14.01,5.93,-6.84,-77.59,2.29,27
-2.55,-1.81,19.17,-29.64,11.62,-62.11,4.08,-15.49,16.13,-12.7,-13.38,-22.9,-12.89,13.38,8.27,10.11,-77.54,3.86,27
0.15,-4.05,19.94,-30.13,-29.1,-51.86,3.89,-15.58,16.52,10.45,-1.71,4.93,-11.37,14.13,10.23,-11.43,-74.32,8.06,27
0.46,-9.55,20.27,-65.92,-23.83,-67.72,3.39,-14.22,18.07,35.64,-7.91,32.03,-6.75,16.13,13.63,23.97,-62.55,-1.71,27
3.12,-15.23,17.93,-29.93,-20.02,-26.76,3.89,-10.65,18.61,28.95,-17.58,58.01,-4.4,10.76,15.96,20.21,-21.92,1.12,27
3.69,-13.28,18.86,4.3,-0.24,5.57,3.44,-8.6,18.13,65.92,-11.87,69.87,-4.66,14.43,15.13,14.45,15.67,-2.0,27
2.9,-11.1,19.85,35.01,-1.66,32.96,3.8,-7.79,19.05,40.58,-2.25,75.68,-5.84,16.37,12.84,10.69,53.81,2.05,27
2.19,-7.77,19.89,25.78,-0.68,57.91,2.2,-3.11,18.65,57.23,10.84,67.77,-7.24,13.92,10.57,-4.35,71.58,-1.07,27
-0.67,-4.05,19.83,72.36,12.99,73.58,0.65,0.4,19.84,39.45,9.52,37.84,-15.18,14.04,9.67,22.27,86.08,12.06,27
-0.94,0.01,20.04,91.75,28.52,81.45,1.77,-2.9,21.16,14.65,-6.88,41.94,-16.13,16.87,6.86,14.89,88.33,4.49,27
-2.07,5.61,20.64,75.98,10.84,70.56,2.53,-3.01,21.81,9.47,-5.22,34.42,-16.14,20.0,4.3,27.83,59.28,8.11,27
-1.32,5.25,21.27,42.09,3.08,49.51,1.89,-1.78,21.18,9.08,-2.05,44.04,-16.8,17.73,3.36,-6.15,31.2,2.93,27
-1.74,1.7,21.61,18.07,1.27,44.43,0.7,-0.75,20.7,12.01,0.68,41.26,-15.82,16.7,4.2,-11.33,37.79,8.5,27
-0.22,0.08,21.69,7.71,-0.83,35.25,0.32,-0.83,20.93,0.15,-6.54,31.84,-14.85,15.26,3.98,-10.79,32.67,5.52,27
-0.64,0.46,21.3,4.0,0.63,44.24,1.29,-0.39,20.88,10.6,-3.76,27.49,-14.34,14.11,3.26,-25.98,37.16,7.96,27
-1.01,0.69,21.32,2.93,2.34,39.84,2.2,-1.28,21.87,5.08,-10.11,12.11,-14.88,15.0,3.64,-28.27,35.21,4.25,27
-2.26,0.58,20.71,-2.15,-1.81,32.86,2.15,-0.44,20.99,-2.93,-1.81,6.69,-14.86,14.8,2.96,-14.94,23.1,9.28,27
-0.77,1.12,21.61,9.18,-8.5,30.52,1.71,-0.61,20.98,-1.86,1.27,-2.93,-15.61,13.06,3.99,-23.14,23.24,12.06,27
0.3,0.79,21.45,1.27,-10.55,15.23,1.41,-2.02,20.61,-3.86,0.63,-1.37,-13.1,15.31,3.3,-10.06,6.35,12.45,27
-0.51,0.96,21.08,0.15,-1.61,11.47,1.82,-1.88,20.96,-2.0,1.07,3.03,-14.54,15.61,3.33,-7.37,7.13,2.54,27
8.02,-15.19,19.52,-38.82,-51.07,-18.26,8.08,3.21,20.3,31.15,3.66,84.23,0.71,14.55,17.3,-16.75,-38.77,37.5,28
9.11,-11.02,17.14,9.28,-2.44,5.32,5.31,2.86,20.29,11.38,2.39,42.72,0.71,17.03,14.96,0.24,2.15,0.63,28
6.67,-5.77,19.13,12.6,-5.08,-0.2,4.1,1.05,21.55,11.96,-4.88,12.65,-3.7,16.51,11.03,17.82,4.74,3.91,28
7.46,-8.51,19.34,0.68,0.78,2.15,2.58,-0.07,20.28,-8.4,-4.3,12.4,-1.77,16.16,12.78,2.78,5.71,-3.96,28
6.46,-12.91,18.15,33.89,18.99,32.71,4.39,0.61,20.08,3.81,0.05,8.79,1.15,15.09,13.68,10.99,64.84,-14.11,28
6.02,-4.92,19.13,79.69,20.17,113.92,4.43,-1.62,20.95,-1.56,-2.98,6.4,-5.15,19.86,10.88,10.84,144.68,6.49,28
4.39,-4.04,18.0,61.96,10.84,133.2,5.35,-1.67,21.8,1.56,4.1,6.05,-7.02,15.34,3.92,-22.75,147.41,15.28,28
6.8,1.09,20.66,43.46,-20.07,126.95,4.07,-1.22,21.24,7.86,7.52,0.98,-10.4,24.31,0.13,-56.54,125.88,38.04,28
6.07,5.49,21.01,29.2,-8.11,90.77,2.8,-0.67,21.06,-15.53,15.43,-10.4,-11.91,18.48,2.67,-61.43,74.51,23.54,28
3.96,2.21,20.64,5.57,1.81,44.82,0.12,-1.14,21.53,-18.26,8.4,-17.77,-11.37,16.63,4.96,-38.28,47.46,-0.88,28
1.31,0.94,20.52,5.91,8.25,14.06,0.62,-2.92,20.56,3.42,-3.91,-16.94,-11.78,16.43,6.28,-3.47,27.93,-13.38,28
1.23,1.82,19.37,-1.71,18.65,14.36,2.18,-2.0,21.16,-0.15,-2.93,-16.11,-12.9,13.69,6.19,-4.15,20.46,-12.06,28
2.19,2.04,21.42,-8.89,-8.06,7.23,-2.41,0.86,20.18,-14.45,9.81,-3.91,-14.94,15.69,6.22,1.9,21.04,-14.84,28
1.16,-0.11,21.25,0.39,0.73,5.81,0.46,0.75,20.97,20.31,8.94,-1.37,-12.83,13.8,5.95,3.61,12.89,-5.03,28
1.84,-1.34,21.89,-3.17,0.88,6.25,1.1,-3.04,20.98,12.55,6.35,-15.19,-15.56,17.2,5.2,14.36,20.8,-13.13,28
-1.77,-0.73,21.39,-0.63,18.51,2.93,0.28,-1.3,20.98,-2.34,9.28,-8.45,-15.98,11.37,6.14,4.1,17.63,-20.36,28
0.15,-0.04,21.49,-11.33,24.85,-10.21,-2.42,-2.84,19.56,-5.52,16.6,-14.16,-15.49,14.96,5.55,2.83,-0.05,-27.69,28
-3.58,-0.47,22.4,-6.05,19.92,-15.97,-1.4,0.16,19.97,12.94,8.5,-1.61,-18.03,12.51,5.61,3.12,-7.03,-23.44,28
-4.17,-1.46,20.81,7.47,-2.64,-10.79,0.46,-0.96,20.99,15.67,8.06,-9.18,-16.99,12.08,5.7,8.2,-8.94,-2.88,28
-1.8,-1.85,21.53,9.08,-5.37,-15.53,-1.1,-0.83,20.87,-5.03,-5.86,-7.47,-16.73,12.66,5.67,25.93,-6.84,-1.27,28
-3.47,2.09,18.58,-8.06,-19.14,-183.74,2.7,-3.89,20.29,-11.67,4.15,-105.71,-5.18,15.52,11.67,12.65,-58.15,-5.42,29
-2.08,-0.58,20.4,9.91,-16.31,-105.08,6.94,-3.34,22.41,-5.66,-0.1,-96.34,-3.47,16.09,15.5,34.03,-20.56,10.89,29
7.47,-0.02,22.74,28.86,-43.9,-77.98,1.41,-8.86,17.53,-61.87,-26.61,-50.29,-3.13,17.95,13.64,-5.52,21.09,15.87,29
1.92,-7.36,18.55,-35.6,-18.26,-58.25,3.47,-15.42,18.78,-3.47,-13.28,-17.58,-5.84,16.27,9.37,-56.54,72.17,9.52,29
3.08,-12.54,20.22,1.07,-17.19,-18.8,4.35,-15.05,18.04,14.94,-20.7,37.35,-4.0,10.17,7.62,-31.05,120.36,7.47,29
7.15,-11.32,19.5,32.91,-24.9,29.05,3.95,-8.38,20.7,28.17,-2.73,71.83,-12.92,15.89,8.55,-4.69,156.49,29.05,29
5.12,-5.26,22.21,2.93,5.66,74.9,4.74,-14.04,18.9,31.4,-12.11,118.65,-16.68,24.74,4.33,-51.03,84.81,20.95,29
3.48,-11.73,18.63,27.34,22.02,116.6,7.93,-2.01,17.31,96.29,2.73,146.53,-14.53,18.74,2.64,-55.22,81.98,-22.17,29
2.85,3.44,21.29,92.77,21.29,136.82,3.3,3.73,19.29,36.18,8.3,99.41,-16.39,11.05,3.3,-39.11,5.62,-9.33,29
0.88,11.3,22.83,16.11,-1.12,112.7,3.37,0.67,20.59,32.03,10.94,50.49,-16.9,9.7,4.18,-16.6,-1.42,-3.27,29
2.37,2.44,21.04,18.46,-12.89,77.54,2.8,1.56,21.93,-24.02,7.71,16.5,-18.89,11.79,6.19,1.07,6.4,-3.22,29
-0.08,1.6,21.79,-21.68,29.74,18.41,0.07,-0.47,20.23,-9.52,-0.68,0.44,-16.51,12.98,5.89,5.37,-0.15,-2.49,29
-2.63,1.22,20.07,-3.86,2.1,5.47,0.83,0.89,20.54,-6.01,-8.59,-4.98,-16.79,12.43,6.23,12.35,-9.03,0.29,29
-4.74,1.32,21.18,-3.32,-15.09,-3.52,0.44,0.03,20.56,8.3,-0.83,2.98,-16.7,10.14,6.65,-12.55,4.88,-8.15,29
-0.64,1.29,21.15,-1.81,-1.17,-0.29,2.02,-1.98,21.38,-4.64,-11.13,-5.66,-16.06,11.34,6.88,1.03,-2.59,2.29,29
-1.58,-0.04,21.53,-9.33,-3.22,-10.25,-0.96,-3.55,20.06,-13.28,0.78,0.1,-16.27,13.75,6.54,1.9,-1.76,0.73,29
-2.93,-1.82,20.84,-4.15,12.79,3.03,0.92,-1.01,20.35,-6.88,-8.89,3.42,-15.91,10.79,7.03,-5.18,3.37,-1.81,29
-1.12,-0.86,20.62,-15.28,-6.1,0.88,2.15,-1.35,21.09,-9.62,0.0,0.34,-17.87,11.76,7.1,2.78,0.49,-1.95,29
0.51,-0.37,22.05,-4.69,-5.76,0.68,1.37,-1.31,20.43,1.51,2.78,0.78,-14.66,10.51,8.76,-2.05,-3.08,-3.61,29
-1.21,-1.42,20.98,0.2,0.15,2.34,1.22,-2.5,21.33,-9.72,1.37,-1.61,-17.59,11.39,7.2,4.54,3.66,2.44,29
-0.75,-2.82,20.08,-46.58,22.41,-92.87,7.59,0.74,20.5,-23.24,19.24,-96.63,-12.09,17.38,-0.3,35.35,-81.1,-22.22,30
-1.92,-0.4,20.53,9.81,-15.67,-124.32,4.73,-2.65,18.78,41.94,56.69,-158.54,-8.07,16.27,-2.1,102.73,-125.34,6.2,30
3.62,-4.41,22.27,-23.44,-34.03,-108.35,1.9,-0.97,18.16,-33.45,38.96,-117.63,-6.36,17.67,0.43,-1.95,-95.65,28.42,30
2.38,-13.76,18.58,-64.36,-29.3,-51.03,4.47,-4.88,20.84,-11.13,28.13,-133.3,-4.21,14.33,1.18,56.93,-118.36,38.57,30
4.6,-14.08,17.72,12.79,-9.33,2.83,1.74,-3.93,21.43,-6.88,-19.04,-102.54,-6.02,17.56,2.31,35.84,-101.46,17.04,30
6.19,-9.88,18.32,19.63,-18.21,41.5,1.65,-14.87,19.15,-59.33,-19.68,-47.61,-2.42,21.37,4.17,1.07,-53.86,10.69,30
4.63,-8.68,19.99,59.33,3.17,90.58,3.2,-14.53,17.36,-16.6,-14.16,-1.56,-1.56,18.59,7.26,16.02,-1.32,0.93,30
2.9,-1.31,21.07,34.91,-22.07,80.81,3.86,-11.21,18.7,14.65,-15.87,45.46,-2.28,20.35,3.83,-3.91,41.55,-7.23,30
4.18,-0.56,20.64,76.71,-23.14,108.89,3.7,-8.65,19.66,37.06,-26.9,87.6,-3.68,20.44,2.37,-7.72,78.52,-2.54,30
4.07,3.2,19.93,23.88,-9.47,88.13,5.1,-4.75,19.12,41.99,-50.1,87.99,-6.51,23.65,0.68,-12.45,72.31,-19.92,30
0.73,5.6,21.42,33.89,23.44,64.31,5.97,-6.38,19.57,48.39,-48.34,110.4,-8.31,27.9,-1.91,9.81,89.75,-9.03,30
-1.97,0.82,21.79,4.54,18.07,48.49,6.8,-1.43,19.27,52.34,-24.56,89.4,-4.3,24.93,-2.27,-11.38,64.55,-1.03,30
-1.18,0.89,22.52,4.1,0.59,24.02,4.85,0.71,19.54,50.83,-4.88,61.62,-8.64,21.37,-3.8,-3.76,63.82,-24.41,30
1.21,-1.29,21.89,-7.42,-4.1,6.98,2.52,-0.32,20.42,32.57,-16.7,39.16,-12.0,17.32,-3.75,-13.09,56.15,-17.53,30
0.99,-1.61,21.01,-3.61,5.22,8.3,2.33,2.08,21.34,0.98,-3.76,13.43,-13.93,17.87,-4.79,1.86,25.78,-0.63,30
0.71,-2.36,20.84,-1.07,1.86,9.38,3.92,-0.27,20.86,-2.93,-1.76,4.39,-11.56,17.9,-3.59,-7.18,7.47,0.78,30
1.86,-1.86,21.52,3.22,-3.81,7.67,2.86,-2.32,20.32,-0.1,2.29,7.47,-9.97,18.52,-2.31,-3.52,3.37,-2.69,30
1.47,-0.98,21.23,-0.49,-2.34,1.76,2.9,-3.4,20.0,0.24,2.49,11.28,-10.35,16.37,-1.57,-6.15,6.35,-5.62,30
0.77,-1.67,20.86,5.37,-0.59,-1.95,3.99,-2.49,20.88,2.54,-3.42,7.62,-10.06,17.1,-2.1,-8.74,6.88,-2.05,30
0.39,-3.21,20.81,-7.18,3.61,3.81,2.47,-2.33,20.84,-0.0,1.51,0.24,-11.26,19.06,-2.16,2.44,0.73,-1.76,30
2.72,-7.64,18.28,-37.35,-8.98,-120.46,2.98,-16.42,16.44,-16.99,-5.13,-17.24,-3.35,20.28,7.88,29.1,-12.74,2.83,31
4.36,-8.07,20.26,-78.13,-23.63,-111.87,5.36,-15.61,17.29,6.49,-1.42,16.7,-2.98,17.84,6.38,5.18,15.23,-8.2,31
1.97,-9.89,18.63,-18.07,-13.57,-45.9,4.27,-13.32,17.51,19.29,-15.43,62.89,-3.87,18.25,4.49,-5.47,55.76,-13.04,31
4.06,-14.66,17.23,8.98,-2.15,-5.91,3.45,-9.55,17.52,51.12,-14.89,91.8,-6.74,19.57,1.11,-2.73,84.96,14.06,31
3.68,-13.54,16.28,18.55,5.27,23.24,3.91,-9.24,19.19,42.28,-28.32,93.46,-7.73,22.96,-0.99,-1.37,97.71,5.47,31
3.34,-9.75,17.51,42.53,-4.35,62.5,4.59,-2.8,21.2,89.21,-26.71,105.57,-8.27,27.74,-2.51,-15.09,92.53,15.19,31
2.19,-3.29,20.63,89.7,-12.89,94.09,2.35,-1.21,20.42,91.94,-10.69,82.28,-7.45,23.05,-3.78,-1.61,70.07,-12.74,31
2.59,-2.09,20.52,67.33,-9.33,101.12,2.93,2.98,20.89,88.48,-1.56,65.28,-11.83,22.14,-6.31,9.18,67.63,-18.8,31
3.66,2.53,22.88,63.04,-9.62,99.76,3.05,0.46,20.39,-17.77,-4.1,30.96,-10.56,18.12,-4.72,5.66,31.05,-28.32,31
1.78,5.53,20.51,80.18,19.87,80.81,0.07,-0.22,20.17,-11.38,-1.37,5.37,-10.3,15.19,-3.74,-30.37,5.37,-1.51,31
1.09,6.3,22.52,46.09,14.5,47.12,1.12,0.14,20.99,8.15,5.37,4.83,-11.06,16.75,-3.54,-13.38,7.03,-1.71,31
0.07,0.37,21.7,8.06,11.87,23.97,1.06,-2.41,20.63,-14.89,0.1,0.44,-9.84,16.01,-2.77,-12.6,3.13,3.61,31
-2.52,-1.43,20.9,-4.39,-1.86,9.81,1.46,0.07,20.65,6.15,-4.0,2.44,-10.55,17.98,-2.73,-5.47,5.57,0.29,31
-2.16,-0.82,21.68,2.39,0.98,7.32,1.11,-1.07,20.58,1.76,0.1,1.71,-9.85,18.27,-2.56,10.69,1.86,-1.42,31
0.47,-3.32,22.1,-16.16,-14.75,0.24,1.64,-0.97,21.22,2.83,-3.52,1.66,-10.45,17.87,-2.71,2.15,2.73,1.32,31
-0.97,-2.48,21.34,-13.13,-9.57,0.05,1.46,-1.14,20.97,-0.59,-1.42,3.03,-9.97,17.48,-2.68,-3.56,6.2,-2.1,31
-0.73,-0.95,21.28,-2.64,1.76,1.32,1.54,-0.77,20.96,-0.88,-1.51,3.08,-9.76,17.4,-2.68,-2.83,5.42,-1.07,31
-0.55,-1.76,21.84,-5.03,-2.98,2.05,1.32,-1.12,20.5,0.44,0.68,2.34,-9.44,17.57,-2.31,1.86,2.59,-2.69,31
-0.97,-1.6,21.49,-2.44,0.59,3.22,1.05,-0.86,20.54,-2.83,0.54,0.1,-10.32,17.53,-2.68,-2.15,3.17,-1.56,31
-0.19,-1.68,21.38,-2.15,-1.51,4.05,1.66,-1.05,20.95,2.44,0.59,-3.22,-10.18,17.38,-2.58,6.1,0.98,2.15,31
-2.36,-2.16,17.73,2.83,1.46,-97.66,0.71,-4.39,16.99,-37.16,0.0,-114.5,-7.84,16.98,-1.78,39.65,-102.15,27.44,32
0.24,-3.14,20.37,-37.84,-42.19,-82.96,2.88,-9.01,18.34,-49.71,-7.96,-94.73,-7.6,19.05,0.72,5.18,-79.49,48.0,32
0.86,-9.08,21.53,-41.8,-42.92,-91.65,4.46,-12.78,17.76,-96.97,-6.01,-97.95,-3.25,22.32,4.08,21.83,-104.93,39.99,32
6.17,-15.18,18.24,-3.17,-14.84,2.88,8.31,-16.37,16.34,11.82,-28.03,8.98,-0.82,17.56,5.27,-31.15,-4.39,6.4,32
3.05,-10.71,17.92,2.0,-10.4,26.61,4.63,-13.11,15.97,15.67,1.61,32.23,-2.15,20.32,4.69,9.08,32.32,-8.25,32
4.99,-7.8,17.74,54.2,-21.63,43.8,6.45,-12.16,16.69,85.89,-35.6,72.71,-3.19,17.98,3.23,-9.18,39.31,6.49,32
6.35,-0.56,21.79,90.43,-4.98,65.04,6.97,-3.66,18.44,72.17,-19.82,69.87,-3.53,18.74,-0.32,20.12,66.6,4.3,32
5.42,3.99,20.42,67.33,5.71,79.74,7.01,-0.88,18.64,74.8,-14.94,76.66,-4.59,22.35,-3.39,20.31,84.33,-4.59,32
3.63,4.16,19.81,46.39,25.49,98.24,6.13,0.78,18.3,47.07,0.1,90.67,-4.78,25.64,-3.94,39.26,93.46,-20.95,32
2.93,3.19,21.75,-5.76,22.75,59.13,6.26,-0.76,20.65,0.88,5.42,57.47,-7.04,21.9,-3.28,-39.11,59.62,-22.27,32
1.0,3.33,22.68,10.45,28.37,31.35,3.56,-0.18,20.74,-4.98,3.56,27.1,-8.33,19.09,-1.77,-20.56,31.69,-20.8,32
-0.06,-1.57,22.18,-7.67,12.16,18.07,2.81,-2.71,21.81,-8.94,0.24,16.89,-8.38,16.49,-1.87,-19.68,18.46,-19.68,32
-1.4,-1.21,20.92,0.39,14.55,8.69,2.09,-2.75,20.86,-5.76,2.39,5.76,-8.61,16.05,-1.34,-17.53,6.74,-10.79,32
-0.11,-0.68,20.94,6.49,-0.83,1.9,2.46,-3.16,20.37,-4.0,3.03,-0.63,-9.09,17.6,-0.11,3.03,-0.54,-2.05,32
-0.9,0.03,20.91,-2.69,-11.91,-2.29,3.17,-3.93,20.3,-10.25,-0.1,-3.56,-9.45,16.37,0.68,2.69,-0.93,3.86,32
-0.98,-0.59,21.6,-2.34,-6.69,3.56,3.58,-3.2,21.09,0.24,-2.78,1.66,-9.46,16.71,0.52,-4.69,4.79,3.61,32
-0.93,-0.33,21.33,0.63,2.2,4.1,2.84,-3.37,20.42,-0.98,-2.54,3.86,-8.6,18.12,0.78,0.78,3.66,-1.9,32
-0.23,-0.39,21.07,-0.44,3.56,5.96,2.66,-3.36,20.35,-0.73,2.1,5.47,-8.76,17.41,0.89,-1.03,4.3,-2.15,32
-0.4,-0.78,21.72,-1.17,-1.76,3.03,3.06,-3.83,21.3,-5.42,-0.88,2.73,-9.54,17.86,1.01,-7.28,1.71,0.98,32
-1.68,0.07,21.25,0.44,0.63,2.1,1.83,-3.29,20.25,-0.1,-0.29,-1.32,-9.64,18.6,1.23,-1.27,4.54,-2.73,32
-0.83,3.01,20.13,-0.39,-28.91,-122.8,5.88,-5.31,19.92,-90.67,-20.7,-144.29,1.03,19.33,6.45,23.97,-37.84,3.32,33
3.43,-3.67,20.64,-68.9,-19.63,-138.33,0.86,-15.8,16.59,-96.58,-41.5,-65.43,-0.59,18.4,5.94,-3.66,25.59,1.95,33
1.31,-10.07,19.67,-115.82,-62.26,-86.43,9.44,-15.15,14.52,-18.75,6.98,-26.42,0.35,17.13,3.95,0.1,78.03,-11.38,33
8.95,-12.35,16.23,-22.12,-12.06,-40.67,7.56,-15.14,16.12,12.01,-9.08,23.63,-6.07,22.09,0.61,32.96,120.65,-22.71,33
7.79,-15.2,15.8,13.33,-12.21,24.41,5.23,-12.79,15.9,62.6,-6.05,94.34,1.82,19.28,-0.37,-21.34,108.5,-10.55,33
5.65,-15.77,14.99,47.27,-3.86,82.47,9.29,-3.36,17.36,164.31,-4.88,136.82,-5.37,15.8,-2.67,-15.14,126.61,-24.56,33
8.45,-0.59,20.09,154.39,18.51,122.61,1.72,-6.06,17.38,-61.82,-16.99,89.84,-9.3,18.11,-5.97,-31.2,73.39,-11.77,33
2.49,-8.96,18.63,-4.79,-35.01,101.95,9.98,-0.68,19.74,119.29,-14.06,133.54,-8.66,20.23,-6.88,-8.69,24.56,-5.18,33
5.26,1.77,19.87,34.37,19.38,116.36,5.54,9.94,20.73,61.91,-1.86,73.93,-7.38,17.37,-3.84,18.65,6.25,-0.39,33
5.53,6.1,21.99,48.93,20.17,84.86,4.79,7.16,20.38,-2.2,3.71,9.33,-7.29,16.69,-1.92,-0.93,-2.98,-4.59,33
1.89,7.12,22.53,11.87,15.48,22.07,2.63,2.41,20.44,-12.94,6.2,-5.47,-8.87,21.1,-1.59,-16.36,3.27,-12.65,33
0.31,2.18,20.68,10.2,23.19,5.42,2.35,-2.71,21.1,-38.57,1.66,1.03,-8.88,20.36,-1.58,8.4,-4.3,-4.39,33
0.66,-1.77,20.89,-14.31,15.58,-1.17,1.37,-0.09,20.74,1.12,8.89,4.54,-9.02,17.17,-0.81,0.63,-0.93,-2.64,33
0.96,-1.08,21.79,-14.65,3.08,5.13,2.14,-0.65,21.16,1.27,9.08,-5.71,-8.63,18.52,-0.45,-8.25,0.63,-6.45,33
0.95,-0.81,22.24,8.11,-3.08,-5.22,1.96,-1.57,21.29,-0.44,4.98,-7.62,-9.74,18.35,-1.27,9.52,1.32,-0.63,33
-0.44,-1.72,21.77,-0.39,-1.03,-3.17,-0.32,-1.7,20.07,-0.68,6.93,-1.9,-9.14,17.15,-1.79,3.12,-0.05,-2.44,33
-0.71,-1.96,20.49,2.15,10.25,0.73,1.04,-1.05,20.95,-0.93,3.42,-0.49,-10.06,17.96,-1.13,0.54,2.34,-4.05,33
-0.63,-1.47,22.09,2.78,-4.15,-2.2,0.6,-1.42,21.04,-2.1,6.01,-1.61,-9.9,17.65,-1.17,9.28,-0.83,0.98,33
-0.92,-1.86,20.87,-2.49,-2.34,-5.76,-0.57,-0.87,20.65,-0.54,4.44,-1.37,-9.5,17.38,-1.15,0.34,1.86,-1.07,33
-1.75,-0.76,21.13,-4.64,0.73,-0.1,0.28,-1.37,21.04,0.1,-1.76,-1.12,-9.2,17.52,-1.32,-2.98,2.64,-2.88,33
0.62,0.45,20.31,-64.36,-40.23,-113.48,4.18,-12.19,16.91,-99.07,-10.79,-81.59,-8.29,17.99,-4.12,1.03,4.39,-6.59,34
2.81,-3.65,21.53,-42.97,-9.18,-75.1,5.51,-15.48,17.38,13.23,-13.13,-2.29,-7.74,17.29,-4.44,4.2,4.2,0.83,34
-0.52,-2.44,18.38,-36.18,0.2,-75.59,4.08,-12.79,17.61,22.8,-7.42,36.91,-8.05,17.17,-4.6,-3.22,1.03,0.93,34
1.46,-7.66,18.66,-55.96,-10.64,-85.4,5.45,-11.52,16.26,26.17,-19.48,51.61,-8.22,18.12,-4.35,-2.93,-0.73,-2.34,34
4.41,-16.96,18.44,-16.65,-24.41,-21.87,4.82,-7.25,18.12,60.84,-16.6,56.98,-8.48,18.1,-4.0,1.56,-0.88,-4.0,34
3.31,-12.53,18.52,12.5,-11.91,20.21,6.49,-1.72,21.57,86.87,-23.05,73.05,-8.31,17.49,-4.2,-0.54,3.47,-2.93,34
2.74,-9.69,17.19,32.81,-3.47,51.71,6.13,3.19,20.9,73.29,2.15,66.36,-7.85,18.41,-4.12,2.05,2.39,-0.68,34
3.12,-8.02,18.66,47.66,-13.67,53.76,4.15,6.54,20.13,24.56,27.64,54.93,-8.22,16.95,-4.01,-5.57,1.22,-1.86,34
3.2,-2.75,21.78,70.95,-15.09,80.13,4.01,9.2,20.37,44.04,8.06,39.65,-8.26,18.65,-3.96,4.05,0.98,-3.22,34
3.89,1.11,22.1,66.11,10.06,74.37,2.73,3.39,20.35,-16.55,0.05,21.92,-8.87,18.15,-3.99,3.95,1.42,1.37,34
3.96,5.48,21.88,72.07,23.88,68.99,1.24,2.13,20.02,1.86,-0.39,10.89,-8.78,17.71,-4.1,3.91,0.98,-0.73,34
1.37,6.24,20.81,71.78,31.45,61.04,2.15,2.74,20.29,30.62,3.37,26.07,-9.06,17.78,-4.32,4.69,3.08,-0.93,34
-0.16,4.59,20.97,11.91,9.57,34.33,2.76,1.45,21.33,-3.08,-0.15,16.5,-8.18,18.26,-4.22,4.49,-0.1,-1.51,34
-0.66,2.61,19.93,13.82,9.91,23.73,2.25,2.32,20.91,0.29,3.13,-0.63,-8.3,17.71,-4.14,0.59,1.51,-1.9,34
1.97,0.63,22.2,12.16,-14.21,27.98,2.22,0.41,20.19,-2.83,-1.03,-0.2,-8.22,17.72,-4.31,-0.29,1.76,0.2,34
0.37,1.84,21.66,6.74,-11.67,14.99,1.64,0.82,19.95,1.22,2.1,4.74,-8.01,18.29,-4.32,1.03,2.49,-1.12,34
-0.51,2.35,21.85,5.18,-2.49,7.52,2.91,1.56,20.97,0.93,0.54,3.13,-8.13,17.8,-4.42,1.61,2.59,1.46,34
-0.56,0.32,21.49,-6.93,2.59,-0.88,2.58,0.42,20.9,-0.1,0.78,4.0,-8.22,18.5,-4.48,3.42,2.83,-2.59,34
0.04,-0.08,21.95,-7.76,-4.64,2.93,1.53,0.64,20.5,-4.54,0.24,3.71,-8.32,17.62,-4.2,1.66,1.37,-0.78,34
-0.74,0.9,21.49,3.66,-8.01,2.44,2.14,1.35,21.04,4.74,-2.15,5.42,-8.47,17.6,-4.3,-0.0,1.95,0.49,34
1.02,1.88,19.61,-34.86,-1.46,-102.88,5.87,-6.27,18.56,-66.89,-5.13,-101.27,-4.03,20.24,4.47,-11.96,-40.09,13.72,35
2.42,-4.19,19.96,-29.3,-10.79,-100.34,5.34,-5.4,17.45,-65.38,-11.82,-99.12,-4.74,19.05,5.84,-3.32,6.25,4.25,35
2.2,-6.99,19.47,-47.17,-31.64,-98.88,7.1,-16.1,18.58,-52.25,-18.55,-36.72,-3.48,19.48,4.56,4.54,30.66,-9.08,35
4.01,-13.34,19.23,-40.48,-14.65,-36.87,3.99,-15.55,15.28,-6.2,0.59,-0.59,-0.88,15.73,1.71,15.23,72.12,-17.43,35
5.43,-15.59,18.33,-14.31,-28.76,-2.88,5.27,-13.34,16.81,26.71,-0.59,26.9,-3.13,19.62,-2.54,25.0,70.17,-9.28,35
4.33,-12.28,17.56,22.9,-1.66,31.69,5.98,-13.06,16.74,48.97,-3.71,50.68,-4.06,14.7,-4.96,8.98,59.13,-17.19,35
4.96,-12.52,16.03,61.77,1.17,67.97,4.93,1.15,17.99,72.41,3.22,58.94,-5.57,15.17,-7.82,-17.68,46.83,-20.61,35
2.77,-5.96,21.53,4.54,-16.65,59.33,6.13,0.93,20.52,52.25,-7.28,57.57,-6.1,15.67,-7.67,-10.11,33.06,-19.24,35
1.98,1.18,21.42,36.62,5.42,52.34,4.86,7.43,19.32,72.22,0.24,57.32,-7.13,21.39,-7.57,7.47,52.98,-30.62,35
1.99,6.95,20.11,33.59,14.7,55.32,3.8,5.55,17.72,-18.99,2.44,25.73,-9.45,21.79,-7.88,-18.36,39.26,-21.14,35
0.01,5.48,20.58,-2.05,2.29,26.9,6.68,-1.23,20.55,4.98,13.57,52.39,-13.84,18.1,-7.42,-8.98,31.98,-21.09,35
4.01,2.09,22.67,31.79,7.91,53.32,5.52,5.87,19.74,67.43,21.97,41.7,-9.75,16.72,-7.05,-10.69,12.11,0.98,35
0.89,6.81,21.06,40.14,20.51,49.95,2.6,9.68,18.5,69.68,15.92,19.73,-9.98,18.95,-6.54,-8.3,6.05,-7.96,35
-1.73,8.32,19.81,53.95,43.51,36.52,3.1,6.92,19.17,6.2,0.39,5.08,-10.9,18.21,-5.49,6.88,-1.22,-3.32,35
-1.57,6.46,20.58,1.9,8.84,7.57,3.14,6.67,19.08,-2.2,5.42,3.71,-9.51,18.24,-5.4,2.64,0.93,-6.01,35
-0.04,4.93,20.63,-13.67,13.48,3.22,3.92,5.45,19.51,3.52,4.3,-0.68,-10.09,15.06,-5.63,-2.0,-0.24,-2.1,35
0.29,4.69,21.21,-4.93,1.03,-1.95,3.49,4.32,19.19,7.62,10.89,3.08,-8.99,16.56,-5.15,-5.03,-2.98,-0.63,35
0.99,4.09,20.43,-2.25,-5.42,4.79,2.33,4.67,19.39,-1.61,1.95,-2.29,-9.82,16.33,-4.48,-6.3,-3.32,-4.83,35
-0.97,4.87,20.3,5.32,1.56,1.07,3.07,3.59,20.51,-2.69,1.61,-0.68,-10.3,17.32,-4.09,-1.03,1.76,-5.71,35
-0.97,2.68,21.33,4.44,0.78,-1.81,2.53,2.56,20.22,-7.96,7.76,-2.15,-10.3,16.66,-3.58,1.61,2.69,-1.61,35
-1.95,0.27,19.89,-41.06,-44.78,-98.97,4.56,-1.13,17.92,-53.47,-36.08,-90.62,-9.4,19.95,-7.86,29.15,-51.22,10.45,36
1.34,-0.85,17.55,-17.72,-25.68,-94.68,6.08,-0.28,16.4,-21.24,-7.71,-89.7,-8.22,14.11,-5.16,25.73,-108.98,17.04,36
8.83,-2.34,20.85,-26.76,-82.71,-97.27,11.22,-4.75,19.36,-55.91,-56.69,-87.5,-5.41,16.89,-3.59,9.77,-99.66,56.35,36
8.52,-11.31,17.17,-24.95,5.42,-15.87,12.53,-16.12,17.88,-19.09,-3.81,-2.34,-6.04,15.67,-2.09,19.73,-92.63,41.8,36
7.86,-8.83,18.09,21.44,0.83,16.06,8.18,-10.47,17.95,6.79,1.51,15.82,-2.61,25.68,0.2,32.42,-86.47,59.28,36
6.72,-6.46,18.04,24.95,4.54,28.22,7.85,-6.39,17.18,17.72,3.71,23.63,1.08,17.94,3.49,-22.56,-24.95,3.81,36
7.55,-4.88,19.58,26.32,14.01,38.43,8.35,-4.15,18.31,33.59,5.66,37.11,-1.78,19.67,2.3,8.06,18.31,-5.57,36
6.11,-2.58,19.31,41.99,6.98,47.22,7.49,-2.69,18.17,51.81,3.27,47.07,-2.94,18.29,-0.01,4.74,32.13,-12.6,36
5.54,-2.13,20.23,25.34,14.7,53.71,6.97,-1.29,18.93,34.57,12.6,53.81,-4.19,18.93,-1.9,0.88,44.43,-14.79,36
5.79,-1.24,21.65,26.51,9.47,69.53,9.8,0.38,19.84,33.35,5.76,62.35,-3.79,19.33,-3.49,7.23,55.27,-15.04,36
4.81,-0.02,20.63,23.58,27.69,81.64,8.88,1.44,18.7,28.56,20.95,70.21,-5.65,18.35,-4.17,1.27,58.2,-28.03,36
3.08,4.01,19.08,36.57,29.88,69.53,4.94,1.98,18.47,31.84,24.02,50.44,-6.55,18.41,-4.63,-7.47,65.87,-32.37,36
1.62,5.72,20.48,32.37,-0.59,59.13,5.47,5.01,19.44,59.57,15.58,47.9,-6.17,19.43,-6.46,-18.99,62.89,-45.41,36
0.24,3.54,20.82,25.78,6.35,34.03,2.97,3.86,19.16,10.99,5.22,12.21,-8.7,19.4,-5.86,-13.67,51.17,-34.03,36
1.23,1.13,21.11,-8.15,8.4,20.12,4.77,1.64,20.77,-1.12,-9.03,13.67,-10.84,18.51,-8.38,-22.41,46.19,-8.98,36
1.5,1.91,21.56,-2.39,0.29,11.28,3.92,1.6,20.4,-10.55,-7.71,6.15,-11.05,18.99,-6.01,-21.83,18.21,1.27,36
1.69,0.13,22.02,0.98,-6.3,0.73,5.17,0.95,20.2,-3.42,-3.61,1.9,-10.03,18.09,-3.22,-46.83,12.94,-4.69,36
0.99,-1.81,21.5,-9.67,-8.79,5.86,5.51,-1.59,21.17,-11.87,-6.74,5.96,-10.63,14.97,-0.97,-32.23,-4.0,3.96,36
0.5,-1.17,21.45,-10.06,-1.42,3.17,5.02,-0.31,20.43,-10.94,-3.22,2.83,-10.62,16.32,-0.15,4.25,-0.05,2.15,36
0.64,0.07,21.26,-0.15,10.89,6.35,4.31,-0.46,19.92,-9.13,-4.05,6.15,-9.33,16.52,0.57,-15.58,2.88,3.91,36
5.4,-11.2,15.65,-66.11,-3.32,-47.51,7.43,-2.36,18.76,-51.95,-14.11,-73.0,-2.35,20.54,1.68,4.05,12.4,0.68,37
8.31,-11.47,17.86,-20.85,-23.1,-19.87,6.5,-9.14,17.11,-83.64,-24.61,-45.07,-2.55,19.32,1.67,7.96,28.27,-6.4,37
7.7,-10.41,17.03,-1.61,-27.78,-10.16,9.78,-9.34,17.42,-0.44,-10.06,-7.52,-1.03,18.48,-0.52,6.01,53.13,-18.95,37
8.44,-7.75,17.61,12.45,-21.24,4.44,10.07,-9.92,17.24,3.08,-24.41,-2.49,1.79,13.18,-3.81,22.12,107.62,-34.81,37
8.41,-9.48,17.7,26.03,1.61,27.15,11.82,-8.05,15.75,8.84,-21.14,10.01,-4.16,15.26,-7.01,8.64,98.0,-62.65,37
11.03,-9.63,18.16,24.61,18.21,64.26,9.82,-9.33,16.62,32.23,5.66,23.58,-5.96,16.93,-6.68,-39.89,101.81,-39.84,37
10.87,-12.34,15.07,58.15,-8.35,99.32,9.67,-10.25,18.07,35.2,19.34,54.69,-8.49,15.09,-6.26,-36.43,79.64,-23.44,37
11.33,-3.46,18.72,20.31,19.09,97.07,8.69,-10.64,16.82,110.79,4.2,124.9,-7.87,16.3,-5.48,-6.15,46.68,-25.83,37
5.5,-1.18,19.12,29.98,-1.42,102.1,9.0,-4.58,17.52,47.46,29.69,108.06,-10.27,15.53,-5.66,-38.72,18.02,-32.81,37
3.39,-0.78,20.75,28.08,-0.83,74.12,7.22,1.76,16.75,35.2,12.16,92.82,-10.3,18.29,-4.19,-24.12,-4.69,-32.37,37
2.39,-1.77,21.94,15.48,9.18,52.73,6.67,-0.19,19.42,37.11,10.6,61.91,-12.0,15.21,-1.18,-21.0,2.34,-12.99,37
2.21,-0.88,21.98,-14.75,14.55,27.59,6.68,0.13,21.67,16.7,4.1,45.07,-12.19,16.16,0.02,-19.09,-3.22,-15.04,37
0.64,-1.28,20.94,-15.43,10.06,8.98,4.73,-0.05,21.4,-9.91,11.67,13.82,-14.13,14.01,1.44,-14.11,0.73,-11.87,37
-0.82,-5.28,22.6,-4.05,-2.64,18.16,3.34,-1.62,19.78,-31.1,9.91,11.43,-14.25,14.5,3.38,-10.69,7.37,-8.25,37
-0.87,-5.06,21.65,-3.13,0.88,7.76,3.17,-3.1,21.16,9.62,19.09,7.86,-13.92,13.2,3.12,-16.65,8.5,3.96,37
-3.92,-2.02,18.55,-2.15,7.71,8.69,1.96,-4.25,20.79,-7.72,15.48,13.18,-12.76,15.72,2.61,-18.7,10.3,1.12,37
-4.23,-7.05,21.11,1.9,-2.05,13.57,-1.33,-6.13,20.95,-16.7,14.16,2.69,-13.43,12.98,1.97,-6.54,7.67,2.05,37
-3.12,-6.7,21.36,6.98,-13.28,11.38,-1.24,-6.2,20.67,1.86,1.81,19.29,-13.95,15.07,2.26,0.2,5.42,-2.73,37
-3.71,-5.7,20.88,2.2,-1.95,19.78,1.05,-5.21,21.01,8.84,-0.34,12.06,-14.15,15.01,2.89,-5.86,3.91,-8.2,37
-2.73,-4.48,20.51,11.18,-3.91,8.35,-0.02,-4.1,20.82,7.28,-5.96,25.54,-13.74,14.97,2.95,-11.72,0.59,3.96,37
3.11,-0.31,18.16,-34.52,15.63,-133.45,4.39,-1.29,16.21,-29.98,36.13,-144.09,-9.56,19.29,0.26,18.12,-74.22,10.4,38
5.31,-9.53,18.33,-61.67,-12.3,-85.69,5.93,-9.95,18.56,-85.79,12.26,-88.09,-2.75,17.85,0.49,27.15,-117.19,-10.89,38
4.1,-9.35,17.08,-54.88,-17.43,-60.79,7.36,-9.58,14.92,-60.01,-2.44,-56.49,0.22,20.97,1.07,51.46,-140.77,-12.4,38
6.54,-12.44,14.94,-27.83,-14.45,-48.0,8.98,-13.23,15.02,-48.73,-12.06,-42.68,1.59,16.31,2.68,50.93,-103.66,21.53,38
7.51,-16.05,15.87,13.67,-13.43,3.52,7.71,-17.15,15.16,9.08,-13.04,5.76,0.24,17.54,4.81,10.74,-63.23,12.5,38
8.62,-13.77,17.86,27.25,-9.28,48.63,7.48,-14.69,16.46,33.35,-8.06,65.77,-0.64,19.07,7.35,10.01,-34.33,13.82,38
9.67,-8.73,17.98,44.73,-29.39,83.3,8.93,-8.62,17.27,63.33,-10.3,95.02,1.79,19.75,8.7,16.75,-6.93,7.71,38
5.48,-9.37,17.4,25.68,-32.57,113.62,6.69,-3.65,18.56,40.19,-28.37,129.3,2.13,22.08,5.74,11.28,40.97,-19.38,38
7.6,-10.84,14.09,6.64,2.69,131.74,6.58,-13.86,18.91,-27.64,-27.0,120.56,-0.1,19.08,1.63,-5.96,85.4,-33.45,38
9.34,-15.85,16.79,-0.73,-52.05,93.07,4.84,-7.18,18.76,43.6,-26.42,112.35,-2.48,18.81,-0.47,-57.18,111.87,-25.73,38
5.87,-9.65,19.1,-15.72,-40.33,84.86,5.16,-6.32,19.45,11.87,-17.19,92.92,-0.84,13.54,2.05,-71.09,95.21,-4.88,38
4.7,-2.18,20.76,11.28,-42.63,46.0,5.17,-0.48,19.06,-1.9,-10.94,36.28,-2.17,13.2,0.93,-47.51,87.65,9.96,38
3.8,0.5,21.55,14.6,-16.26,17.48,5.4,1.15,19.13,23.97,1.81,13.57,-6.26,16.13,-1.72,-29.59,83.98,-4.44,38
6.04,-2.62,22.39,9.18,-9.72,1.76,6.8,-1.66,20.22,16.21,12.5,6.64,-10.44,20.75,-1.84,-66.11,58.89,18.95,38
3.91,-4.4,21.71,-2.34,-21.09,-6.93,5.77,-4.12,19.52,6.69,5.76,4.93,-8.63,19.97,-0.03,11.77,30.91,8.84,38
2.28,-3.73,20.33,0.68,5.22,-4.25,4.42,-4.5,19.64,-1.27,-3.12,-2.64,-7.23,19.08,0.19,6.3,6.98,6.59,38
3.28,-3.52,20.77,0.78,-2.49,2.25,4.82,-4.65,20.29,-2.88,4.15,2.83,-5.98,21.32,1.16,-13.09,-4.15,1.17,38
3.67,-2.29,20.88,6.59,-1.51,0.44,3.88,-2.04,18.93,5.86,8.45,1.07,-8.06,18.92,2.05,11.67,-1.51,-6.3,38
3.39,-2.82,20.49,-2.39,4.93,4.93,3.58,-3.37,20.04,-3.42,2.64,1.66,-7.34,20.8,1.44,-4.44,-0.05,-2.64,38
2.55,-3.3,20.81,-4.59,-2.2,-0.83,4.01,-4.03,19.61,-5.27,2.49,-0.88,-7.03,17.89,1.33,7.76,3.03,-3.17,38
3.49,1.26,20.81,4.15,33.01,-104.64,2.9,-8.89,17.87,-74.02,8.5,-137.55,-1.23,17.45,2.84,41.55,-112.84,50.34,39
1.62,0.54,20.54,-32.08,21.09,-110.01,6.29,-14.56,15.16,-82.13,5.47,-61.52,2.15,18.52,4.49,1.71,-74.61,16.11,39
3.75,-2.71,17.94,-61.33,13.43,-135.79,5.79,-16.37,17.49,-18.21,-2.39,-23.24,-0.5,17.44,8.17,4.59,-19.97,9.72,39
4.88,-11.58,19.91,-57.28,-5.96,-117.72,7.07,-15.02,14.15,39.75,-13.77,46.0,0.61,22.23,6.16,4.64,30.22,-9.72,39
5.51,-16.63,16.85,-55.86,-11.23,-56.3,4.88,-11.49,17.6,32.67,-21.58,58.2,-0.54,18.76,4.14,-14.45,54.44,-10.69,39
5.12,-17.19,15.11,-14.99,-3.32,-17.58,4.37,-9.01,17.28,42.87,-17.58,81.05,-1.47,16.97,2.39,-49.9,76.17,-4.64,39
4.03,-15.84,19.4,25.34,-31.79,39.89,6.09,-4.3,17.86,70.36,-18.99,106.35,-4.32,21.29,0.31,27.25,85.94,-5.86,39
7.19,-9.68,18.79,30.81,-4.05,59.47,4.64,-2.37,18.99,26.86,-13.67,87.06,-2.85,26.88,-0.98,-1.95,70.26,-7.32,39
5.05,-9.11,18.64,38.33,-33.06,85.5,4.43,0.21,18.36,75.78,-6.1,77.88,-2.83,19.67,-1.79,-18.65,71.78,-0.34,39
3.84,-1.73,20.12,64.36,-22.46,101.46,3.95,8.28,18.76,71.19,-21.83,48.63,-5.21,20.7,-3.57,-45.31,41.06,11.96,39
5.32,-3.89,22.35,5.13,-21.68,92.82,3.97,-3.12,22.6,-10.55,-10.3,17.87,-8.45,19.93,-2.15,23.78,47.41,24.85,39
3.95,2.29,20.18,46.14,-10.55,80.27,3.95,-3.18,21.88,-19.97,2.73,5.18,-7.37,18.85,-1.83,-12.65,6.98,-4.49,39
2.3,8.45,18.32,-3.86,-17.38,49.07,3.26,-1.78,21.63,-5.47,4.88,2.54,-7.0,19.99,-1.33,-17.33,2.54,-4.93,39
2.23,1.54,23.14,19.04,-16.75,26.81,1.25,-3.09,19.79,-9.67,11.67,-0.63,-7.64,17.34,0.23,-1.76,-1.32,-11.82,39
1.74,-3.92,22.48,-8.79,2.2,2.15,0.94,-3.53,19.92,0.73,5.86,6.79,-7.41,17.71,0.77,-16.8,6.88,-13.28,39
1.04,-2.91,22.38,-17.33,2.1,3.27,0.64,-2.04,20.28,13.82,3.17,10.21,-8.05,19.24,0.11,-2.05,9.77,-6.01,39
-0.87,-3.79,21.21,-14.16,15.63,-3.52,1.15,-3.72,19.6,-2.44,2.83,-1.07,-8.07,17.66,1.06,11.13,-0.15,-2.88,39
-0.0,-4.37,20.15,-5.32,19.43,9.28,1.67,-3.08,20.69,-0.34,1.03,7.81,-7.31,19.13,1.11,-1.32,7.67,-2.83,39
-0.68,-2.02,20.84,1.66,4.1,10.74,2.1,-4.24,21.01,-1.47,-2.2,0.39,-8.45,17.92,0.6,-0.63,0.63,2.88,39
1.45,-3.63,20.18,3.12,4.44,-0.24,0.6,-4.35,20.31,-8.59,-0.24,0.39,-7.62,18.4,1.84,-7.03,1.27,-5.57,39
3.96,3.21,21.54,-10.79,2.78,-96.68,5.93,-11.62,16.0,-68.31,1.07,-79.35,-2.47,20.99,0.04,33.54,-117.33,13.38,40
3.97,-0.09,20.05,-5.52,-9.96,-110.01,7.65,-15.47,16.04,-56.3,-9.42,-48.54,-1.66,18.43,3.38,-1.66,-92.72,13.67,40
4.72,-7.15,18.89,-70.17,-20.07,-104.54,8.47,-17.98,15.17,-1.51,-10.6,-7.42,-0.87,18.82,6.14,-15.82,-77.25,5.71,40
2.2,-9.15,17.92,-48.78,-3.81,-73.78,10.39,-11.26,16.04,62.7,-7.32,44.82,0.32,19.47,9.09,-3.32,-38.48,9.28,40
4.59,-16.42,17.22,-49.46,-7.57,-42.53,7.98,-8.56,17.49,42.04,-9.18,55.96,1.36,15.74,10.4,10.4,-8.45,7.08,40
5.89,-18.04,15.88,-14.8,-46.53,-21.87,8.25,-8.05,17.44,48.39,-33.69,89.94,1.62,20.12,5.92,22.31,40.97,-7.57,40
9.46,-10.63,17.19,52.29,-10.11,34.42,7.73,-6.34,16.68,42.28,-14.36,76.66,-1.67,20.12,3.52,10.3,61.72,-14.16,40
6.61,-7.77,19.02,31.1,-6.98,48.73,8.33,-5.01,18.8,69.73,-16.94,85.99,-1.23,19.47,1.54,-3.42,75.24,-28.32,40
7.61,-5.09,18.5,47.7,-19.87,74.37,8.19,-2.75,18.96,24.22,-17.48,77.69,-4.04,20.63,0.75,2.73,84.57,-17.68,40
7.58,-3.67,18.64,46.97,-5.32,76.42,4.75,-2.7,21.1,-2.78,5.81,47.61,-3.36,20.34,-1.18,-1.32,82.32,-17.82,40
6.25,-1.95,19.91,57.13,-7.47,80.76,1.97,0.28,20.83,9.42,-1.76,37.3,-3.02,18.19,-2.07,-24.37,83.64,-34.52,40
4.44,-2.92,21.73,15.04,-3.17,76.27,5.18,-0.25,20.6,-1.32,-6.79,16.65,-5.7,10.41,-2.1,-39.36,58.74,-30.13,40
2.68,-4.87,16.98,-12.65,20.31,61.67,4.66,-0.11,21.1,6.3,-1.9,-0.73,-7.11,10.86,-2.35,-16.16,35.4,-16.21,40
-0.78,-2.82,20.06,-3.08,0.78,40.63,3.99,-0.74,21.12,-8.15,6.4,0.29,-10.32,16.23,-3.34,16.85,16.46,-4.79,40
1.79,-0.07,20.83,6.25,-20.95,14.45,3.6,-1.84,20.73,-4.15,3.08,-0.68,-10.75,16.89,-2.99,14.84,10.11,-5.22,40
1.17,1.14,21.29,12.74,-10.79,-0.59,3.2,-1.17,20.06,4.93,0.98,1.76,-10.89,18.02,-2.91,4.78,1.51,-5.27,40
0.7,1.39,21.59,3.86,1.03,-0.93,2.96,0.23,20.56,4.54,0.88,4.69,-10.99,17.41,-2.15,4.1,-0.54,-3.86,40
-0.07,-0.41,21.65,2.0,-4.93,-0.49,2.36,0.19,20.35,7.86,6.4,0.49,-11.11,15.88,-1.93,-3.86,6.88,-4.25,40
-1.6,-0.05,20.69,-0.24,2.49,4.88,2.38,0.1,20.51,9.03,5.32,1.66,-11.14,18.06,-2.83,-9.96,6.84,-1.22,40
-0.68,1.16,21.36,-5.76,-0.68,6.74,2.82,0.38,20.68,5.86,3.27,0.73,-11.37,17.01,-2.3,1.9,2.64,-2.73,40
0.77,4.41,20.89,-33.79,19.82,-84.42,5.45,-6.46,16.97,-104.1,0.39,-135.64,-1.42,15.41,3.79,35.2,-115.67,26.27,41
1.8,1.36,19.61,-27.05,9.52,-106.98,5.34,-17.9,15.16,-77.1,-2.2,-63.28,-0.83,18.48,7.31,11.62,-57.03,18.9,41
4.2,-8.06,19.92,-15.67,-6.54,-125.68,6.2,-20.75,11.02,-35.21,-7.18,-4.05,-0.87,21.03,10.61,22.41,-2.0,8.01,41
5.05,-11.24,18.06,-92.24,-23.0,-135.4,8.38,-13.53,15.69,50.88,-15.33,45.9,-0.23,20.86,4.83,19.19,53.56,-2.59,41
5.53,-19.51,17.04,-59.91,-1.86,-58.89,8.1,-9.37,19.39,62.7,-11.57,83.64,-3.12,19.46,-0.86,47.61,90.82,-34.86,41
6.73,-20.47,13.1,4.83,-18.65,5.62,5.32,-8.47,17.26,58.2,14.55,95.17,-6.57,20.62,-1.78,50.44,88.28,-62.35,41
7.94,-11.95,17.22,51.42,-15.14,45.95,9.39,-1.49,18.24,131.35,-7.76,104.39,-5.67,20.73,-9.21,3.81,100.1,-42.72,41
7.8,-8.59,18.74,54.49,0.05,76.17,5.92,2.1,20.77,44.24,8.64,72.85,-7.54,17.85,-9.84,-36.67,62.45,-49.46,41
2.88,-5.61,18.32,78.08,34.57,93.31,4.27,9.17,19.55,-1.9,14.45,49.22,-8.24,11.69,-9.13,-46.97,38.28,-34.62,41
3.78,5.51,20.7,95.07,1.71,100.68,1.62,3.34,20.0,10.16,2.73,37.94,-9.72,13.33,-9.76,-9.18,34.81,-25.29,41
3.1,5.3,22.14,23.24,11.33,77.93,1.44,3.05,20.83,5.13,-0.44,12.84,-10.63,12.83,-10.16,4.05,19.68,-5.13,41
-0.87,0.91,21.24,1.86,13.48,54.64,1.97,1.38,20.87,-6.84,-5.96,4.3,-9.8,13.31,-8.53,-5.66,9.52,-1.66,41
-0.97,1.45,21.19,5.81,6.1,37.16,1.95,1.76,20.25,11.77,-4.59,1.81,-9.66,15.91,-8.35,8.79,9.18,2.69,41
-1.41,0.56,21.26,5.32,3.32,20.12,3.24,2.84,20.94,8.74,-3.71,3.96,-10.01,15.17,-9.14,3.52,10.74,2.78,41
-1.29,-1.05,21.0,-1.76,-2.98,6.25,3.14,2.58,20.54,-1.17,1.61,-1.46,-10.47,16.44,-9.36,5.81,2.0,0.68,41
-1.0,-1.58,20.77,10.94,-7.47,2.29,3.06,2.13,20.67,0.15,-1.27,-1.76,-9.78,14.77,-8.24,-3.52,1.81,4.2,41
0.34,0.71,21.9,8.84,-10.5,5.81,3.27,2.97,20.53,-2.93,-1.81,-0.15,-9.51,16.49,-8.64,-2.98,0.83,3.22,41
0.46,1.79,22.34,4.15,-2.59,-0.39,1.58,2.6,19.42,-0.78,1.95,-0.34,-9.33,14.92,-8.41,-3.08,-0.83,-0.15,41
-0.17,0.33,21.43,0.68,-3.61,-1.61,3.02,3.73,19.73,-0.1,-4.79,2.93,-8.78,15.68,-8.49,-5.27,1.61,0.1,41
-0.14,1.57,21.47,-0.29,-3.76,0.39,2.73,2.4,20.12,-4.98,5.08,0.54,-9.65,15.58,-7.52,-15.28,-0.1,1.61,41
0.2,1.99,20.5,-12.4,6.79,-87.21,3.72,-11.82,16.78,-93.8,-3.32,-79.2,-6.89,19.12,-4.9,5.57,2.25,2.2,42
3.08,-3.16,19.17,-57.37,-0.59,-89.11,2.99,-20.22,15.0,-30.08,-0.78,-33.74,-7.25,17.01,-5.36,-3.96,3.17,2.49,42
1.89,-6.98,17.45,-54.1,-1.66,-80.08,4.91,-16.88,15.65,15.97,-21.14,10.3,-7.34,17.94,-4.71,-5.96,1.81,-5.52,42
1.75,-14.43,17.67,-78.52,-23.34,-79.39,4.52,-12.45,16.68,38.38,-9.03,46.63,-6.67,17.5,-4.65,-1.56,-1.95,-12.06,42
2.54,-19.21,14.12,-16.99,-19.73,-26.07,5.26,-4.7,19.15,46.92,3.13,62.26,-7.28,19.63,-5.71,1.37,-3.37,-10.74,42
4.82,-16.04,16.66,28.27,-9.28,22.56,4.47,-9.45,19.14,9.72,-15.72,59.38,-7.34,17.8,-4.26,2.64,-8.11,-10.25,42
4.5,-12.58,18.05,56.84,-1.37,72.95,6.83,-4.05,19.1,60.94,-15.67,84.57,-7.67,17.58,-4.17,1.27,-7.03,-4.88,42
4.88,-6.43,21.38,12.5,-6.4,53.13,4.97,-1.96,18.04,37.6,-7.08,99.32,-8.38,17.34,-4.15,1.76,-2.25,-1.61,42
5.49,-6.64,19.05,15.72,-12.4,67.92,6.66,2.37,18.88,97.51,16.55,78.47,-9.03,17.15,-3.77,3.52,4.83,-0.54,42
3.14,-2.56,22.95,47.51,7.91,83.2,2.75,12.22,19.25,137.06,18.55,61.96,-8.99,16.82,-3.96,-1.03,6.54,0.1,42
2.49,0.44,20.38,38.72,9.72,94.92,1.22,13.19,17.86,75.24,7.71,31.93,-8.29,17.94,-4.27,0.1,5.86,1.32,42
1.56,6.75,20.18,45.85,21.53,82.76,1.47,3.71,20.21,0.88,15.38,16.99,-8.42,18.73,-4.02,4.74,1.76,-4.39,42
-2.68,12.68,19.21,54.05,36.33,58.45,2.95,2.17,20.24,-19.97,6.25,41.21,-8.4,17.02,-4.14,-2.2,1.61,-1.81,42
-4.48,13.29,18.53,24.27,22.51,31.93,2.75,4.89,20.8,-0.39,3.32,23.54,-8.65,17.69,-4.15,3.81,1.95,-2.29,42
-2.12,4.82,22.96,-2.93,-12.84,27.44,1.63,3.87,19.45,-19.04,-0.49,17.82,-8.53,17.64,-4.4,-0.49,2.1,-3.08,42
-0.27,1.58,21.13,-7.32,8.2,39.94,2.45,5.5,20.14,-4.83,-1.56,12.06,-8.46,16.91,-4.2,-1.47,4.15,-0.29,42
0.56,2.08,21.53,0.88,1.42,29.49,3.41,1.41,21.21,-2.44,-10.16,11.38,-8.57,18.51,-3.96,2.2,4.49,-3.27,42
0.07,1.23,20.12,-11.72,4.0,21.29,2.98,2.0,21.13,-7.47,-4.49,11.52,-8.64,17.71,-4.18,4.88,4.35,-0.2,42
-0.11,3.59,21.91,-2.05,-2.44,11.33,3.95,0.57,20.47,-18.51,-1.71,9.23,-8.47,17.7,-4.6,5.96,2.25,2.1,42
0.83,0.72,21.6,0.15,-6.35,10.25,2.08,-2.11,20.38,-4.39,-8.15,-12.5,-8.1,17.35,-4.61,2.54,2.59,0.34,42
2.16,5.95,23.3,3.22,-17.63,-41.7,6.94,-0.75,16.31,-55.42,0.39,-120.36,-4.48,16.35,-0.21,36.23,-117.04,12.35,43
4.16,5.07,21.91,-33.5,-3.96,-70.41,6.28,-7.24,16.18,-87.89,-1.07,-108.11,-4.66,14.44,2.87,11.57,-108.35,12.3,43
3.94,4.39,19.78,-23.58,2.64,-123.19,2.82,-8.96,20.22,-52.88,-9.13,-86.38,-4.21,20.28,3.89,23.34,-88.28,21.78,43
5.84,-2.49,18.92,-37.99,3.47,-115.92,5.56,-15.15,17.37,-58.89,-14.01,-45.75,-1.94,18.87,8.31,22.17,-42.48,18.99,43
3.92,-3.12,19.0,-15.58,6.54,-110.35,10.48,-18.11,15.2,43.21,-15.87,23.88,0.89,19.34,6.5,33.5,26.76,14.16,43
2.64,-5.43,18.59,-32.57,12.74,-104.05,10.5,-11.28,17.11,44.73,-1.03,58.94,-0.37,22.72,1.93,13.43,62.94,-19.82,43
3.41,-10.82,18.3,-36.23,10.4,-101.42,9.59,-7.99,16.54,62.45,-1.22,97.12,-0.93,19.85,-0.79,2.05,91.89,-39.21,43
4.63,-15.11,18.77,-41.6,-14.79,-67.43,12.96,-5.68,14.8,98.34,-1.71,129.35,-2.0,18.22,-3.49,-10.21,120.41,-44.48,43
7.41,-18.01,14.91,28.32,-41.31,-10.11,10.2,-1.53,15.81,64.21,16.99,125.88,-3.81,19.58,-6.32,-12.65,119.58,-58.15,43
11.15,-10.93,17.98,56.64,-16.11,35.11,7.96,3.2,18.29,67.04,22.9,99.76,-5.18,13.65,-8.88,-37.3,110.35,-49.8,43
10.55,-8.72,18.07,43.8,4.54,81.84,4.28,8.23,16.1,87.45,34.03,61.47,-5.66,13.88,-8.64,-1.95,87.89,-35.74,43
9.12,-10.21,20.8,62.6,2.69,120.9,6.12,11.2,17.45,24.56,0.98,39.7,-9.81,16.29,-11.39,12.65,63.38,-12.21,43
8.35,-0.12,17.11,71.92,33.5,133.15,5.12,9.21,18.01,6.64,2.34,6.1,-9.64,16.29,-9.53,4.44,21.68,1.12,43
6.21,5.72,18.84,45.26,35.06,132.91,5.35,7.16,18.57,10.5,-4.74,1.17,-8.7,16.99,-7.38,12.4,10.16,9.91,43
3.34,10.74,18.06,117.77,45.26,82.23,4.59,6.96,18.57,17.28,2.2,6.15,-7.13,15.36,-7.95,5.03,9.96,-4.0,43
-2.77,9.83,21.7,69.53,27.29,74.37,5.8,7.33,19.09,3.95,-8.84,5.57,-8.44,17.24,-8.55,-0.05,10.4,5.71,43
-2.08,11.81,20.16,21.83,3.27,25.88,5.52,6.58,18.82,-10.16,6.25,-0.15,-8.18,16.22,-8.63,-1.37,3.47,2.93,43
-2.49,6.57,19.01,5.47,5.62,2.0,6.4,7.53,19.0,-2.44,-1.86,3.91,-7.86,15.7,-7.81,-5.03,0.34,-1.12,43
-0.02,5.69,20.42,-3.42,-1.37,6.74,7.65,5.59,19.26,-13.72,-0.83,-0.39,-7.14,16.84,-8.73,-9.91,0.78,3.08,43
-0.77,8.23,19.75,13.67,4.59,8.94,6.6,4.68,19.38,-3.08,-5.76,-4.69,-8.17,15.95,-7.78,-13.13,-0.54,2.59,43
3.57,2.85,20.93,-34.08,-3.71,-100.88,7.61,5.93,18.82,-28.66,-3.76,-89.36,-4.58,19.72,-2.89,28.27,-100.49,0.54,44
2.49,-0.51,19.83,-29.25,1.81,-95.51,8.78,4.72,19.03,-44.14,-5.08,-89.26,-6.27,19.25,-1.73,14.06,-85.25,-5.08,44
2.73,-2.54,19.8,-27.3,17.48,-73.44,6.24,0.7,17.66,-46.44,5.37,-100.1,-8.94,16.86,-1.27,-0.39,-78.12,4.25,44
1.96,-4.14,19.55,-36.67,1.42,-77.34,6.71,-2.49,19.77,-66.31,2.69,-76.95,-6.96,16.19,1.89,7.42,-73.19,1.71,44
2.16,-7.57,18.18,-34.42,-2.44,-73.68,5.4,-0.7,18.72,-50.88,-3.17,-69.04,-4.03,18.23,2.79,33.5,-62.65,22.9,44
3.76,-8.31,19.19,4.98,-20.17,-59.52,5.57,-6.03,17.3,-44.73,-1.71,-68.46,-4.97,20.07,4.41,14.75,-24.17,21.34,44
4.11,-10.46,19.41,-7.67,-22.12,-28.47,5.27,-11.77,18.39,-32.62,-13.09,-65.97,-5.89,21.95,5.94,17.77,8.15,8.01,44
7.07,-12.96,20.21,19.58,-12.89,12.01,6.42,-11.22,17.72,-10.64,-17.68,-30.91,-3.74,20.87,3.17,-6.4,40.33,-14.65,44
6.89,-8.84,20.09,23.78,-4.39,50.59,6.09,-21.15,20.01,-19.78,-17.77,-1.76,-4.47,20.18,0.69,-30.66,68.85,-27.39,44
4.84,-7.26,19.4,51.86,9.18,83.5,7.16,-9.34,18.58,30.18,-0.68,33.25,-8.43,17.89,-1.49,-21.88,85.94,-34.37,44
5.03,-0.49,19.41,39.06,28.76,83.79,6.07,-9.18,18.13,46.97,14.16,68.85,-9.09,17.74,-2.74,-57.13,85.55,-17.92,44
3.35,-4.92,20.31,-5.96,10.25,97.71,8.43,-2.07,17.59,101.37,9.86,89.11,-7.44,17.55,-2.85,-77.1,73.83,-8.59,44
1.52,-2.53,20.84,-19.73,-7.47,105.37,5.95,-1.46,18.84,38.82,19.09,86.43,-8.65,14.29,-1.68,-69.82,60.4,-5.47,44
1.0,-2.21,18.99,22.66,6.98,85.79,3.44,1.13,18.17,27.49,7.37,98.19,-6.52,13.13,-2.63,-50.15,82.91,4.64,44
0.31,2.42,18.38,22.56,-18.75,93.07,0.01,-1.12,18.17,6.88,19.78,70.85,-7.66,17.23,-2.01,-12.7,54.15,12.16,44
3.81,5.55,19.08,23.88,-17.82,56.25,2.48,3.09,19.46,52.39,9.13,79.59,-12.97,20.45,-4.47,13.33,42.33,-2.69,44
2.85,8.22,17.88,42.09,5.81,37.21,6.29,6.04,19.36,20.85,-6.45,58.69,-8.87,20.62,-0.93,-3.76,7.47,10.3,44
1.67,5.12,20.83,-3.96,-17.33,19.29,4.82,8.54,18.55,48.0,-1.71,22.07,-8.78,20.18,0.43,-1.32,5.66,9.18,44
1.51,5.19,21.04,-7.72,-25.39,16.5,6.46,3.62,20.02,-44.87,-12.16,19.68,-10.25,17.4,0.87,-10.21,1.51,7.13,44
0.76,4.52,22.04,-3.37,-15.28,9.08,5.61,3.93,19.77,-8.25,-5.81,18.36,-11.48,19.22,0.53,1.61,-0.93,-7.67,44
0.81,8.5,20.58,-3.52,-1.12,-100.83,9.01,-3.57,14.77,-133.3,-12.11,-95.36,-0.38,18.85,2.48,-29.35,-114.89,-2.34,45
4.46,7.01,20.12,4.54,-33.59,-157.47,6.66,-19.69,14.37,-123.05,0.1,-73.44,2.43,12.76,11.41,-15.33,-90.38,4.39,45
6.52,5.48,21.67,-59.38,-41.06,-112.16,6.99,-19.13,17.91,4.78,-7.52,2.05,1.84,17.91,16.12,7.91,-15.33,-0.24,45
6.47,-1.94,15.89,-111.33,-6.4,-110.3,6.29,-11.54,17.75,26.71,-1.22,24.85,-0.71,19.79,10.83,-3.91,17.24,0.83,45
7.8,-16.85,12.98,-110.84,-0.98,-80.57,5.53,-12.0,18.76,-4.44,-2.73,46.04,0.52,19.09,11.66,-50.34,22.36,22.75,45
7.16,-20.05,16.37,-6.2,-6.1,-22.8,5.18,-14.69,16.34,26.03,-17.48,100.2,0.54,15.54,12.81,-13.18,79.69,-6.3,45
5.73,-12.82,16.93,9.08,-9.96,12.11,7.7,-14.58,17.82,62.16,-14.84,134.42,-1.25,10.19,8.77,-21.48,142.14,-2.29,45
3.24,-12.02,17.6,37.94,-9.81,48.63,5.62,-0.25,18.57,75.49,-0.88,104.79,-10.56,19.23,6.85,12.01,130.52,9.96,45
8.58,-14.32,14.75,48.58,-4.49,87.79,1.76,-2.26,19.64,53.37,-4.69,78.27,-10.3,22.21,3.02,-24.02,92.77,10.94,45
8.23,-16.37,15.59,34.86,-11.96,111.77,1.48,6.13,20.2,99.61,5.71,55.22,-10.66,22.27,1.11,-5.22,73.39,7.03,45
4.61,-4.44,18.67,73.97,-4.05,110.94,1.67,7.68,21.05,39.11,14.5,35.64,-12.62,22.9,0.22,-10.11,49.27,0.49,45
2.67,-1.04,18.58,74.8,21.78,116.16,-1.13,7.78,19.52,-19.48,12.89,6.4,-12.04,19.01,1.87,-16.99,-0.88,-15.28,45
2.11,3.91,19.54,103.42,20.8,78.66,1.49,-5.71,21.21,-34.96,1.86,-0.73,-14.07,14.56,4.54,1.56,22.41,-8.11,45
2.6,5.56,21.49,51.37,12.5,46.24,-3.55,-0.3,19.77,-9.67,-1.95,0.59,-14.81,17.39,4.97,-22.12,-0.78,4.2,45
-0.52,10.79,20.6,34.57,14.79,5.03,-2.29,-3.08,19.98,28.52,-3.81,22.9,-11.57,17.98,4.95,31.2,16.6,3.81,45
-1.84,-2.34,21.4,-34.13,5.22,8.79,0.57,-2.31,21.9,8.79,-9.13,13.09,-13.16,14.5,4.67,17.33,16.99,6.93,45
-4.26,0.74,20.58,-9.42,10.21,5.66,0.25,-1.94,21.69,-3.27,-2.44,8.4,-12.1,15.33,3.86,-17.04,11.96,2.83,45
-3.58,-1.46,20.68,10.2,5.03,19.68,0.48,-1.0,20.86,-1.17,-0.68,0.54,-13.26,17.04,3.75,2.25,6.45,4.69,45
-1.01,-1.11,21.45,7.91,-8.74,12.01,0.64,-2.08,21.48,7.76,-1.03,-0.49,-13.17,12.83,3.62,-23.19,8.35,5.08,45
-0.45,-1.16,21.42,-7.52,-8.64,13.43,0.92,-1.24,21.15,-6.64,-5.37,0.54,-12.64,17.42,3.92,-11.28,2.83,8.01,45
2.87,8.27,21.79,12.26,9.03,-78.81,5.54,-8.92,18.57,-49.46,11.72,-109.42,-4.68,16.71,8.28,39.75,-111.87,-17.87,46
3.23,2.39,20.92,-34.23,8.94,-131.4,6.24,-10.19,16.61,-75.93,16.5,-86.47,-6.11,12.99,11.0,-3.17,-100.29,-29.15,46
1.94,-3.95,19.6,-56.15,-6.45,-102.78,7.19,-14.57,16.31,-81.93,5.32,-89.65,-3.64,12.63,13.51,-3.13,-110.25,-24.66,46
3.58,-6.09,20.62,-9.28,2.2,-108.4,0.22,-21.4,13.83,16.45,-18.02,-5.47,-1.98,12.86,18.32,-41.16,-33.98,11.57,46
4.19,-9.73,18.79,-59.72,3.91,-91.5,4.48,-19.06,14.46,33.54,-9.08,25.34,0.49,14.01,17.5,9.03,28.47,8.98,46
6.85,-15.43,18.6,-75.54,-19.87,-97.85,5.42,-14.67,15.43,55.03,-21.39,75.24,-0.02,14.05,14.47,10.06,86.33,13.43,46
1.71,-23.54,13.63,-56.54,-47.22,-16.65,5.95,-13.0,15.79,84.28,-23.58,89.55,-2.79,14.71,12.0,16.21,109.96,25.34,46
5.48,-17.21,16.72,37.16,-5.42,24.85,9.48,-2.94,17.01,101.9,-8.06,95.61,-8.51,19.1,5.62,20.61,127.39,19.82,46
6.49,-14.29,16.31,35.89,-11.82,67.38,7.86,1.95,18.25,103.42,6.45,88.48,-10.19,19.12,2.86,1.95,114.21,23.05,46
4.78,-10.91,16.98,67.92,-15.33,87.35,7.38,7.74,16.29,116.5,27.78,67.77,-11.69,20.06,0.19,13.43,120.9,11.82,46
6.22,-0.28,18.61,103.91,8.45,97.07,6.65,3.02,15.4,59.57,3.47,82.76,-7.73,14.19,-3.48,-13.87,102.1,25.15,46
4.4,5.8,19.57,94.29,20.65,99.71,4.48,10.46,17.45,-25.39,-3.37,26.95,-10.42,21.55,-3.57,2.0,31.01,15.67,46
3.84,7.77,18.8,105.96,35.69,90.04,2.78,9.53,19.28,3.32,1.12,11.57,-9.34,20.2,0.34,-5.03,10.74,9.28,46
1.67,5.87,16.62,52.73,13.62,100.54,3.23,9.68,18.68,4.54,3.86,4.59,-8.88,20.75,-0.12,-3.52,5.03,2.54,46
4.19,14.17,18.53,-3.27,-11.33,12.26,1.43,7.78,19.86,-22.17,-4.3,-4.15,-9.03,16.51,1.23,-7.23,-3.76,-2.34,46
2.27,9.48,20.64,2.15,-3.86,13.96,2.76,6.4,19.27,-17.24,-0.63,0.49,-8.48,19.77,1.9,-20.9,-0.05,-10.21,46
2.05,8.3,20.54,-1.71,-0.39,7.76,2.52,6.58,18.98,0.24,0.59,-1.66,-8.98,19.56,2.46,-5.62,0.05,-2.88,46
0.63,6.42,19.5,-8.79,1.95,-1.81,2.22,6.83,19.02,8.79,1.9,8.11,-8.7,20.66,2.34,7.91,3.22,1.27,46
1.86,6.52,20.27,-16.55,15.58,1.95,3.24,6.15,19.74,14.21,-1.27,0.73,-9.19,15.66,2.84,2.49,2.39,1.22,46
0.31,5.34,20.02,-10.4,-2.2,-1.03,2.65,4.17,20.2,-4.3,-2.93,0.98,-9.05,17.48,2.59,-3.17,0.73,0.73,46
2.39,4.18,21.64,9.62,4.59,-40.53,8.59,5.48,19.64,-11.04,-6.79,-87.21,-6.88,19.93,8.88,4.05,-112.6,-32.96,47
5.45,4.72,21.22,9.67,-8.11,-82.23,7.06,2.21,19.41,-33.98,-12.84,-101.37,-4.32,14.81,13.93,19.24,-107.52,-38.23,47
3.93,3.1,20.14,-11.91,-5.66,-96.63,6.69,-0.42,18.73,-47.95,-7.86,-96.53,0.52,14.43,18.24,38.13,-50.88,-13.33,47
3.78,1.79,20.38,-21.34,-5.81,-100.0,4.56,-4.99,17.38,-90.43,-0.2,-105.62,-3.89,13.85,17.71,21.44,30.96,6.49,47
2.54,-3.12,19.01,-38.67,9.86,-111.82,4.02,-13.63,16.77,-131.45,-15.09,-103.37,-6.16,16.36,14.4,0.93,74.37,23.54,47
2.19,-11.1,18.16,-78.13,1.07,-103.96,2.7,-22.09,16.3,-33.79,-5.18,-60.16,-7.43,19.12,10.52,3.91,126.32,38.67,47
2.8,-18.63,17.32,-35.84,-18.31,-69.97,3.01,-17.6,16.26,36.87,-7.86,16.11,-11.73,19.65,5.67,-23.44,137.6,23.0,47
1.76,-17.44,18.0,20.95,0.88,9.77,5.79,-14.63,17.94,58.35,-15.97,63.09,-10.9,17.86,3.31,-40.23,104.25,23.24,47
2.84,-12.87,19.28,34.18,-7.03,57.28,11.32,-12.91,18.1,118.95,-9.72,114.45,-10.92,19.89,0.66,-28.66,79.93,23.0,47
4.5,-13.84,18.49,61.77,0.98,100.2,8.78,-4.82,18.35,87.01,4.88,121.58,-16.18,17.39,0.94,-35.25,50.2,16.89,47
6.65,-8.08,18.11,57.03,15.48,122.61,5.77,2.51,17.53,66.85,12.06,108.5,-12.71,18.67,1.49,-3.27,0.98,14.21,47
4.33,1.27,19.03,49.12,11.13,112.6,7.86,6.88,17.66,79.15,13.92,82.47,-11.43,16.38,3.68,0.05,3.27,10.74,47
5.87,4.98,19.46,37.5,-3.17,98.39,3.86,11.11,17.55,12.21,21.0,41.21,-8.12,15.9,6.26,7.81,1.12,6.49,47
2.35,7.46,20.04,14.26,11.72,75.83,2.71,9.08,19.1,8.06,10.84,2.1,-9.65,15.79,5.4,5.08,6.3,10.06,47
1.89,5.64,20.77,0.24,-5.71,34.08,3.49,5.22,20.89,3.81,-9.23,0.2,-10.1,17.5,4.67,-8.11,1.37,-0.44,47
2.11,3.39,20.91,-4.74,-0.83,16.6,2.12,1.11,20.23,-8.35,-5.22,5.86,-10.2,17.97,5.14,-6.59,-0.34,1.71,47
1.76,2.11,21.27,8.25,-2.69,1.03,4.29,2.21,20.7,4.15,-8.59,6.59,-9.88,16.44,5.8,1.42,3.32,-2.1,47
1.5,-0.09,20.21,-1.12,-10.06,3.56,2.97,3.1,20.26,-16.7,0.78,3.56,-10.21,16.57,5.49,-6.45,4.98,0.73,47
3.03,2.46,21.37,-8.74,-2.25,2.59,5.33,3.55,20.46,-4.54,-0.83,0.63,-10.06,18.6,5.67,-4.98,2.73,1.46,47
0.88,2.61,20.15,-1.9,3.91,1.12,2.91,2.48,19.96,4.35,2.73,3.86,-10.46,17.55,6.19,3.17,0.63,-4.64,47
6.32,-1.29,17.15,-57.23,19.58,-140.23,8.5,2.95,21.38,-37.6,-3.86,-76.07,-8.28,19.51,3.63,33.5,-144.92,-36.43,48
7.53,-11.03,15.3,-80.37,9.03,-116.89,7.71,2.0,18.03,-49.12,3.27,-105.08,0.24,16.42,8.35,-3.61,-148.54,-23.58,48
9.76,-11.3,16.72,-45.46,-43.55,-67.68,9.67,-3.19,16.17,-103.27,0.1,-138.13,1.94,13.13,13.48,-15.63,-92.19,8.89,48
7.29,-18.85,15.7,-8.69,4.39,-18.8,6.04,-12.71,14.83,-112.65,15.97,-110.84,5.59,15.57,19.34,0.44,-25.83,-14.55,48
7.65,-16.96,17.47,32.62,11.57,36.57,9.67,-15.36,15.68,-42.97,-10.6,-65.33,3.44,14.77,18.14,-4.39,34.86,-0.54,48
6.37,-16.5,16.04,44.24,21.58,73.68,5.97,-22.11,13.97,-16.21,5.47,-17.09,1.96,8.94,15.58,-11.72,87.5,-1.81,48
4.42,-9.78,17.57,42.63,-0.49,96.34,6.15,-18.89,16.84,38.82,9.42,39.36,-3.0,14.06,9.9,-16.36,109.47,17.19,48
4.02,-6.08,19.23,33.3,-8.89,87.55,4.58,-18.12,16.57,39.7,5.71,85.84,-5.86,14.34,8.45,-21.24,93.7,21.92,48
5.42,-4.41,19.62,21.58,-17.53,72.41,4.91,-8.93,18.32,44.73,-8.3,103.03,-7.86,12.98,7.03,-20.22,74.41,23.88,48
1.81,-1.49,20.25,13.72,-15.19,58.01,3.18,-4.84,19.22,23.39,-4.49,87.01,-9.58,15.13,6.08,-12.89,53.66,28.03,48
3.32,-0.84,21.48,15.23,-5.71,40.63,3.54,-0.87,19.37,14.31,-7.76,77.88,-8.91,18.03,6.75,-6.2,41.06,19.04,48
1.09,-0.93,19.94,11.28,4.05,31.1,3.67,0.57,20.67,11.13,-12.35,55.81,-9.47,15.42,6.71,-7.81,33.59,12.7,48
4.78,2.38,22.28,10.2,-7.37,20.41,4.01,-0.86,21.21,-1.12,-8.2,45.21,-9.93,19.48,5.15,2.88,22.61,14.06,48
4.3,1.86,22.19,-1.51,-3.32,11.38,2.76,-0.21,20.48,-12.4,-15.72,36.67,-10.23,17.8,6.05,-4.3,13.04,7.67,48
2.83,1.2,21.65,4.2,-1.66,1.9,4.87,2.97,20.58,-6.45,-2.59,19.78,-9.97,17.39,5.78,2.39,3.22,2.69,48
3.49,-0.04,21.55,-0.54,-1.56,-0.15,4.22,3.52,20.05,8.5,2.59,12.3,-9.51,17.14,6.42,0.24,1.42,-2.2,48
2.0,0.18,21.12,-2.64,-0.2,-2.88,4.9,2.06,20.54,-0.54,0.2,-0.29,-10.27,17.49,6.27,2.93,0.05,-3.03,48
1.43,-1.23,20.53,-1.76,3.17,-1.66,4.09,1.09,20.4,-1.12,3.86,-2.69,-9.54,16.16,7.15,-0.88,-1.17,-5.22,48
1.67,-1.45,20.7,-3.76,5.03,0.78,3.9,0.6,20.32,-7.91,0.49,-4.05,-9.44,15.42,7.43,-5.66,0.73,-4.39,48
2.0,-0.05,21.23,1.56,1.51,3.42,3.55,-0.09,20.17,-2.39,1.76,-3.61,-10.25,17.08,6.99,0.44,5.08,-2.88,48
4.06,4.78,20.59,-26.95,7.42,-122.85,2.38,-3.44,20.72,-1.03,-1.76,-0.24,-8.79,24.78,2.89,49.56,-119.82,-42.43,49
6.94,-3.41,19.42,-64.8,20.21,-125.0,3.67,-2.46,21.08,4.74,-0.24,-0.54,-6.94,13.82,5.52,18.16,-126.56,-44.78,49
4.89,-10.47,16.94,-75.83,10.01,-90.43,2.53,-2.42,20.8,-1.76,0.34,2.29,-6.0,9.72,9.32,-18.02,-100.93,-42.77,49
5.45,-13.93,16.23,-60.45,-8.4,-67.24,3.68,-2.73,20.62,-3.32,-2.34,4.69,-0.69,12.65,15.67,-22.9,-86.04,-22.07,49
4.62,-20.37,16.05,-12.6,-0.68,-28.03,1.92,-1.86,20.47,1.95,-0.24,0.68,1.95,13.88,20.84,9.91,-25.78,-10.6,49
3.14,-18.63,15.17,30.96,-5.42,35.89,3.27,-2.02,20.95,2.25,2.34,0.34,0.33,11.59,20.51,3.03,30.71,12.89,49
3.78,-7.67,17.05,65.19,-9.37,82.47,2.94,-2.55,20.53,-0.39,0.63,1.95,-1.54,13.76,16.3,9.81,83.2,37.6,49
4.83,-5.29,18.59,38.82,-21.04,94.92,2.3,-2.73,20.34,-2.44,2.64,2.98,-5.36,16.32,11.76,-12.06,100.34,40.19,49
4.75,-3.41,19.03,45.41,-32.42,87.94,2.82,-1.88,20.85,-0.44,1.66,0.59,-8.31,15.42,9.4,-6.84,88.92,52.98,49
3.84,-1.13,20.33,19.68,-23.83,74.51,2.56,-2.02,20.38,1.9,1.32,-0.15,-7.99,18.33,8.55,-20.12,68.31,46.44,49
5.97,-2.47,22.72,23.19,-26.37,53.81,2.91,-2.39,20.4,1.81,-0.49,0.44,-9.18,20.11,7.94,-4.1,47.17,38.28,49
4.68,-1.97,21.2,9.37,-20.02,36.28,2.98,-2.16,21.06,1.61,-3.17,3.91,-8.59,18.27,8.37,-4.64,28.76,26.56,49
3.42,-2.81,20.27,9.62,-16.89,29.59,2.11,-1.75,20.7,-1.51,0.1,0.44,-8.57,17.49,8.49,-3.47,27.39,20.12,49
3.59,-1.69,21.87,10.6,-4.35,22.66,3.75,-2.61,20.64,-2.88,-2.15,-0.54,-9.26,17.33,8.5,-2.44,25.2,9.33,49
1.92,-2.72,21.03,8.15,-0.34,19.38,2.64,-3.03,20.84,-1.95,2.59,-1.32,-10.47,16.03,9.23,-5.86,22.46,2.69,49
2.55,-3.23,21.08,-0.2,-6.25,4.69,2.26,-1.94,20.27,2.44,-0.1,-0.15,-8.83,16.87,9.62,-1.76,4.69,2.98,49
3.16,-5.28,20.86,0.59,3.08,0.59,2.83,-1.89,20.52,1.51,2.49,-0.63,-7.79,15.32,11.02,1.66,0.29,-2.83,49
2.77,-3.44,20.74,0.93,-7.81,-1.17,2.5,-1.97,20.27,-0.0,-0.39,0.0,-9.18,16.16,9.77,6.79,0.59,-1.27,49
2.74,-3.7,20.4,-13.53,-2.39,-12.01,2.73,-1.84,20.41,3.95,-0.59,-2.39,-9.16,15.77,9.98,-2.93,-13.62,-8.15,49
3.21,-5.48,20.87,0.93,-3.96,-10.21,3.29,-3.22,20.95,-5.13,-1.12,-2.2,-8.83,15.38,11.24,13.28,-5.42,-3.81,49
3.82,-3.07,18.85,-41.85,15.09,-97.85,6.36,-3.61,18.86,-42.09,12.6,-101.51,-6.59,16.2,4.56,23.97,-102.49,-34.13,50
10.57,-8.63,17.98,-51.76,8.11,-95.56,9.59,-10.35,17.11,-79.2,9.91,-93.8,0.09,18.58,10.18,1.03,-100.78,-30.27,50
5.03,-11.84,15.39,-43.95,25.39,-71.14,4.8,-13.19,14.92,-48.39,19.43,-71.14,-1.86,15.34,14.14,-9.47,-75.93,-33.15,50
4.23,-17.93,15.38,-28.32,8.98,-50.63,3.31,-20.08,15.16,-32.23,1.81,-41.8,-0.6,13.5,19.12,12.6,-47.02,-21.73,50
5.62,-20.0,16.05,-2.98,-8.74,-13.67,4.39,-20.38,15.97,0.44,0.88,-2.05,0.63,13.14,19.66,7.62,-5.03,0.2,50
5.46,-17.84,14.75,22.7,-9.91,35.16,3.67,-16.7,15.4,27.73,-8.15,40.33,-0.9,11.99,16.9,-5.03,42.68,16.55,50
5.41,-14.15,16.13,36.57,-18.12,59.47,5.56,-13.62,16.26,39.7,-17.53,63.23,-2.83,14.38,14.24,-0.83,66.85,32.08,50
7.33,-10.38,18.56,33.89,-18.21,72.46,7.06,-11.27,18.18,35.84,-12.01,77.64,-2.94,17.33,11.78,-6.54,83.59,24.46,50
4.55,-5.05,19.65,29.15,-16.31,74.46,4.33,-5.04,19.25,34.03,-7.28,76.32,-5.46,17.51,9.76,-11.77,76.27,29.2,50
3.87,-1.23,20.6,39.84,-12.21,78.86,4.34,-1.64,19.05,43.55,2.88,61.28,-8.69,15.99,8.92,-28.86,69.58,25.29,50
2.49,0.35,21.28,23.49,-12.45,61.87,3.01,-0.34,19.12,29.83,-1.56,54.44,-9.79,16.68,7.93,-22.95,57.08,25.24,50
2.07,0.74,21.29,13.33,-22.27,48.54,2.4,1.08,20.73,21.87,-8.35,33.54,-10.89,16.5,7.75,-19.38,31.01,33.79,50
1.01,1.57,21.75,13.67,-7.91,34.81,0.74,1.48,20.79,21.44,4.0,8.84,-12.66,14.77,7.38,-15.67,20.8,13.92,50
1.96,-1.1,22.09,14.79,-9.42,19.09,2.48,-0.78,20.85,17.63,1.61,3.17,-10.47,16.04,8.47,5.71,15.72,3.96,50
1.16,-3.27,21.14,9.03,-5.22,13.28,2.21,-2.32,20.65,13.87,0.68,5.42,-10.16,15.64,9.22,0.63,14.26,5.96,50
2.94,-3.6,21.0,6.64,-2.25,13.18,0.83,-3.72,20.34,6.59,4.35,16.41,-8.79,16.07,9.39,-7.13,18.16,-2.29,50
0.85,-2.85,20.98,4.64,-1.95,7.81,1.61,-1.89,21.04,0.68,-4.69,10.64,-9.93,16.7,8.1,0.73,11.23,3.37,50
1.07,-2.66,21.51,5.42,0.98,5.27,1.62,-1.07,20.31,5.76,1.46,1.42,-10.24,17.51,7.63,3.71,8.3,-0.98,50
2.16,-2.2,21.07,5.32,-0.78,1.37,1.08,-1.76,20.5,0.2,-4.49,0.68,-9.82,16.15,7.92,3.17,6.1,-3.03,50
1.47,-2.94,21.17,8.89,-9.62,0.68,3.04,-1.59,20.92,10.2,-2.15,0.34,-9.43,16.66,8.07,8.06,6.3,3.66,50
4.91,-8.23,18.5,2.54,5.81,0.83,6.11,-8.63,18.45,-0.2,-0.44,1.51,-2.72,17.55,10.65,5.32,2.15,-3.56,51
4.55,-7.35,18.53,2.49,0.68,3.56,5.7,-8.42,18.26,2.44,-1.81,1.37,-3.54,18.35,10.46,2.29,4.39,-0.73,51
5.63,-7.87,18.82,0.05,-2.73,3.17,4.74,-7.33,17.65,-2.83,2.64,-0.83,-3.51,16.64,10.6,-3.96,2.93,0.05,51
5.62,-7.93,18.81,-0.98,-1.76,1.81,4.8,-7.93,17.77,-5.03,-0.24,1.86,-3.97,15.6,10.44,-4.54,1.37,-0.59,51
5.95,-7.94,18.84,1.71,0.34,0.98,6.15,-8.35,18.5,-2.25,-2.2,1.07,-3.57,16.31,10.41,1.17,2.15,-1.12,51
5.15,-6.75,19.03,0.05,-1.76,-2.0,5.59,-7.79,18.6,-2.64,-1.42,-0.49,-4.36,16.32,9.75,1.37,-2.0,0.24,51
7.56,-4.17,20.2,-5.27,14.6,-19.38,5.91,-8.04,18.56,-1.03,0.49,-1.03,-3.82,17.65,8.02,4.35,-13.48,-7.23,51
7.05,-9.39,20.0,-63.72,61.57,-75.29,5.59,-7.2,18.78,-1.86,-1.46,-3.03,-3.82,19.1,6.94,45.65,-45.65,-41.16,51
7.35,-8.51,16.47,-56.25,17.33,-65.82,10.81,-4.16,19.88,-1.81,22.75,-30.22,0.41,14.54,6.8,21.87,-21.68,1.95,51
4.09,-10.1,17.08,-12.4,27.34,-56.05,1.16,-11.04,19.23,-38.97,53.03,-60.3,1.41,20.04,7.24,34.77,-36.28,8.54,51
1.36,-13.71,15.98,4.44,24.07,-41.7,5.52,-8.82,15.62,-79.2,41.65,-104.49,-1.0,18.36,9.0,33.5,-26.76,5.76,51
2.15,-15.98,15.05,20.56,0.44,-12.89,7.03,-9.8,16.45,-6.1,6.84,-58.45,-2.65,16.68,9.08,8.98,-0.2,1.56,51
5.34,-13.84,17.99,6.88,1.61,15.92,5.75,-13.94,14.05,-25.88,-23.0,-40.19,-1.57,22.09,7.05,-2.34,23.63,-11.18,51
5.19,-12.81,16.58,26.61,-12.3,48.39,4.31,-13.17,14.07,18.21,-16.06,-9.42,-2.02,22.68,6.27,10.74,52.98,-6.3,51
8.56,-9.69,16.42,24.9,-55.96,52.78,5.23,-13.37,15.79,4.74,-7.37,23.49,-0.76,17.69,4.58,-30.86,58.98,-14.26,51
5.38,-8.9,15.36,51.81,-22.61,75.54,5.73,-11.58,16.19,34.03,-21.58,75.44,-3.34,18.55,3.53,-23.78,79.79,-15.09,51
11.03,-6.77,17.34,37.16,-28.61,78.17,10.04,-7.63,15.48,33.01,-22.07,56.69,-1.67,15.61,4.89,-20.95,86.38,-5.71,51
9.55,-5.9,18.71,55.13,-16.06,95.85,9.43,-8.68,13.84,50.34,-66.06,93.31,-1.72,17.09,1.62,10.16,95.56,-7.81,51
7.15,3.23,20.32,8.06,-34.96,72.95,8.96,-9.87,16.09,18.99,-36.43,85.21,-7.42,15.13,-0.53,-48.29,82.08,-9.81,51
3.8,-3.17,21.56,-5.81,-16.89,32.37,8.15,-11.54,17.02,43.31,-21.19,96.58,-8.04,17.51,-0.77,-10.21,43.36,-12.74,51
4.78,2.96,21.06,-22.41,10.35,-64.84,9.68,-9.93,19.25,-72.12,2.93,-75.88,-2.92,19.13,5.27,1.56,-96.0,-9.23,52
3.7,0.7,20.34,-14.16,-4.39,-130.18,3.56,-7.09,16.03,-43.26,-0.15,-72.46,-2.35,18.6,8.87,35.06,-76.95,0.05,52
4.45,0.65,19.33,-63.04,-24.46,-149.95,2.79,-15.95,16.1,-28.61,-13.09,-58.84,-0.47,11.58,15.15,14.45,-65.53,4.88,52
3.84,-6.63,18.99,-36.23,20.21,-78.66,9.66,-18.12,19.22,25.29,0.63,3.03,4.39,19.18,15.84,9.81,7.81,6.2,52
2.83,-7.02,17.52,-29.64,4.64,-71.44,6.32,-9.02,22.7,33.01,2.15,44.58,0.01,18.99,10.15,-15.38,50.68,8.15,52
2.89,-15.72,16.26,-17.04,-14.36,-59.13,6.81,-7.53,18.07,24.66,4.15,73.93,-0.42,17.09,8.79,-24.56,76.81,-0.39,52
12.32,-17.93,18.09,30.27,-16.94,7.13,6.74,-5.3,19.21,12.16,-3.03,86.96,-2.47,17.78,7.95,-22.8,84.13,6.15,52
6.54,-6.43,15.2,30.62,-6.01,51.9,7.64,-5.73,17.3,71.0,-0.73,99.51,-6.43,18.16,6.84,-2.93,106.54,15.33,52
6.34,-7.28,19.06,25.39,10.99,80.62,5.38,-3.19,15.6,57.52,-4.93,65.28,-6.6,19.47,6.68,-3.81,78.37,29.2,52
6.53,-4.58,19.16,17.19,8.15,89.45,7.87,7.03,19.47,89.45,-3.86,66.36,-10.39,20.21,2.45,-27.05,77.93,38.18,52
4.08,-3.61,17.28,61.43,6.54,102.0,4.04,3.76,20.12,-10.99,-3.47,48.44,-9.21,19.57,3.29,-34.81,46.68,13.18,52
2.96,0.51,17.66,56.64,3.61,76.81,3.39,3.98,20.87,24.66,-3.61,17.09,-10.55,16.71,3.52,-6.93,25.34,3.76,52
3.39,6.98,22.71,44.48,-17.29,67.92,4.92,-1.18,21.31,-12.99,-6.25,4.15,-8.77,17.74,5.43,-4.54,7.08,0.98,52
2.37,1.51,21.98,-12.6,0.15,50.1,3.61,-0.3,20.8,1.42,1.07,-1.12,-9.55,16.62,6.34,-4.15,8.4,-5.91,52
0.61,2.37,22.6,3.91,-9.37,16.75,3.83,-0.91,20.59,9.91,7.67,2.25,-9.27,17.72,6.41,2.2,8.74,-4.59,52
1.29,-1.41,21.81,-6.93,3.91,9.23,3.5,-1.71,20.99,-4.59,3.17,2.25,-9.59,17.34,6.39,-4.15,3.13,-0.59,52
1.12,-1.36,21.48,-2.2,8.59,2.69,2.6,-1.06,19.82,-1.42,-0.54,-0.63,-10.12,16.12,6.56,-8.15,6.45,-4.35,52
3.28,-1.92,21.02,2.15,1.61,4.35,3.56,-0.38,20.16,12.11,5.32,4.05,-10.45,17.49,6.84,3.32,17.48,-2.34,52
2.47,-2.01,21.55,-2.88,-3.96,3.13,3.85,0.37,20.5,13.67,2.2,2.64,-10.43,17.26,5.67,7.86,12.6,3.27,52
0.84,-1.94,20.66,-0.63,-1.37,1.17,4.32,0.58,20.59,6.45,1.95,0.49,-10.83,16.69,5.37,-1.51,7.81,4.69,52
2.37,4.69,21.53,-12.99,4.83,-64.31,8.01,1.24,19.75,-25.78,7.81,-106.54,-3.23,10.69,9.1,-7.28,-95.21,-26.95,53
6.01,2.41,21.02,-11.62,-9.42,-96.19,7.65,0.6,18.78,-52.83,-0.2,-118.51,-2.52,13.37,13.46,-8.74,-68.26,-10.35,53
5.46,1.97,20.56,-30.81,-4.54,-128.42,6.37,-7.73,18.43,-88.33,-6.25,-85.99,1.59,19.9,16.77,21.92,-52.98,10.06,53
4.35,-2.32,18.94,-56.35,6.35,-109.08,4.81,-11.23,16.07,-57.52,-1.46,-78.76,1.86,16.47,16.68,9.08,15.77,12.5,53
3.23,-8.71,17.11,-35.69,24.56,-91.02,4.33,-13.25,15.86,-32.52,-2.59,-64.65,0.71,16.25,13.99,4.39,57.86,11.43,53
4.17,-14.24,16.37,-45.36,4.54,-63.04,6.11,-19.63,17.67,1.07,-3.03,-3.81,-1.79,17.19,10.19,-0.63,96.24,20.02,53
6.74,-18.94,18.7,-28.71,-22.66,-26.76,7.3,-13.64,17.99,39.31,-3.52,39.7,-4.12,17.16,6.28,1.76,117.53,11.18,53
5.1,-14.08,19.86,23.24,-15.58,27.1,7.81,-13.75,17.97,45.07,-5.57,80.37,-8.05,19.4,4.86,-10.69,110.01,18.85,53
5.12,-11.6,19.05,36.77,-6.1,61.28,8.49,-6.52,18.85,41.21,-2.15,97.27,-9.61,19.24,6.02,-15.77,104.79,22.61,53
5.79,-6.24,19.87,42.87,-8.11,90.82,3.26,-0.08,18.56,29.44,6.45,83.4,-13.48,20.18,5.74,-19.24,88.28,27.25,53
5.59,4.8,18.77,71.83,1.66,97.27,0.61,0.76,18.18,31.49,8.54,63.28,-10.75,17.04,5.33,-26.17,46.44,43.16,53
3.02,3.81,19.64,69.24,8.11,87.11,1.34,-0.02,19.35,16.16,-9.96,79.74,-11.23,19.63,3.81,7.57,17.24,15.72,53
1.62,5.69,18.56,54.49,10.16,97.66,1.88,-2.63,19.32,-34.52,-29.05,71.92,-9.27,17.61,6.32,4.69,4.59,1.03,53
-0.11,2.79,19.67,-6.88,1.03,57.03,5.31,3.66,21.04,34.18,-10.99,27.1,-8.57,18.0,6.89,5.96,6.54,-9.86,53
3.14,0.49,22.6,14.36,-27.05,44.34,5.64,0.92,21.29,-8.45,-1.86,6.64,-8.03,17.21,7.1,1.32,4.2,-1.27,53
0.58,4.66,22.8,3.81,-14.94,12.99,5.07,-0.34,21.36,3.86,4.83,-0.59,-7.58,19.03,6.83,7.67,4.44,0.83,53
-0.16,0.47,21.81,-2.78,-0.54,2.54,2.38,0.73,20.3,6.35,1.46,-3.96,-8.85,18.2,6.33,6.98,2.88,1.12,53
-0.59,0.06,21.72,6.59,9.57,-0.15,3.68,0.02,20.24,10.79,-0.59,-3.12,-8.74,18.74,5.91,5.13,2.88,-2.1,53
1.04,-0.68,20.92,5.66,1.76,3.86,3.43,0.56,20.63,5.76,-1.46,-2.0,-9.22,17.3,6.65,-0.24,4.64,-2.29,53
2.14,0.24,21.5,2.98,-2.88,7.96,2.84,1.68,20.08,4.93,3.52,-2.83,-8.83,18.23,6.27,-2.64,4.15,-2.49,53
5.49,0.71,19.83,-39.75,2.78,-108.2,3.73,-29.79,13.4,-125.44,1.86,-59.13,0.94,11.82,17.28,-17.53,-74.37,-11.96,54
5.05,-0.36,18.92,-40.48,-19.14,-110.69,4.55,-23.46,14.57,-3.03,-2.05,-7.08,2.5,9.94,21.62,1.61,-13.96,-5.47,54
2.82,-8.59,18.56,-18.99,8.35,-74.46,4.65,-16.66,15.81,30.91,-10.25,38.13,-0.3,13.12,17.97,1.61,42.77,14.11,54
6.08,-16.65,15.85,-83.98,-17.09,-62.7,5.41,-11.83,17.02,39.89,-17.38,59.72,-2.87,13.74,14.18,-0.34,68.31,22.71,54
5.75,-21.64,14.84,-3.86,-2.2,-9.52,5.56,-10.88,18.33,46.58,-19.53,66.94,-3.14,15.71,12.05,9.96,77.93,28.47,54
5.63,-14.96,16.51,26.46,-8.98,37.06,4.99,-7.16,17.4,65.23,-9.52,76.22,-4.67,15.53,9.26,14.84,92.09,17.82,54
5.67,-11.41,17.61,28.42,-10.94,56.88,3.93,-5.66,19.17,35.6,-10.3,63.09,-6.14,13.33,7.04,-1.66,77.34,26.37,54
5.88,-9.69,18.63,44.29,-16.02,66.02,4.05,-3.26,20.99,16.94,-7.57,52.1,-6.91,19.1,5.73,6.05,57.81,17.33,54
4.62,-6.21,18.16,63.13,4.15,74.41,4.67,-1.7,20.45,5.86,-2.83,42.38,-7.9,19.42,5.81,-5.96,44.92,10.35,54
5.1,-5.33,18.52,42.58,-4.44,67.92,2.91,-1.24,20.14,15.87,-0.78,35.99,-8.3,16.61,5.75,-3.86,43.51,3.47,54
4.48,-3.14,20.91,34.77,-1.07,54.98,2.77,0.22,20.38,7.62,-1.07,36.18,-9.61,16.8,4.37,-13.09,43.26,6.15,54
4.63,-0.87,21.65,17.82,-2.64,41.8,2.07,-0.29,21.03,14.36,-4.35,31.45,-8.83,17.61,4.66,2.98,39.11,1.03,54
2.48,-1.43,20.96,16.6,2.25,36.52,1.34,2.2,20.25,17.33,3.32,16.8,-10.18,17.36,3.84,17.82,24.02,-3.22,54
2.47,-0.06,20.96,10.11,1.17,39.21,2.19,2.53,20.73,4.54,-2.05,4.88,-11.19,15.75,2.91,1.27,11.33,3.42,54
1.36,-0.58,21.46,13.77,-1.56,29.15,2.0,2.81,19.76,11.72,-1.07,3.47,-11.28,17.91,2.4,-5.81,4.3,2.1,54
2.38,1.23,21.66,18.31,-0.78,9.08,2.58,2.12,20.49,-3.13,-1.9,3.08,-10.47,18.29,3.24,0.78,2.54,0.49,54
2.24,1.11,21.41,0.05,-7.91,6.59,1.72,2.38,19.58,-1.71,1.07,0.73,-10.32,17.14,3.39,1.86,4.98,-1.56,54
1.79,2.34,21.62,6.1,-2.29,13.96,2.02,1.21,19.98,-3.56,-1.46,1.81,-9.57,16.47,3.64,-11.18,5.71,-0.2,54
1.48,2.33,21.45,-2.2,-1.71,-0.49,3.64,2.03,20.55,-0.44,-1.07,0.93,-9.83,17.6,3.82,-5.96,6.59,6.05,54
1.55,1.61,21.05,1.03,2.64,2.34,1.13,3.02,19.87,-1.42,6.59,2.73,-9.86,18.17,3.67,-3.61,4.15,-3.27,54
6.02,2.72,20.46,-25.24,12.6,-96.92,3.0,-14.66,16.02,-29.54,6.88,-53.03,-6.71,21.34,5.03,13.62,-93.31,-45.51,55
3.26,0.35,19.4,-28.08,7.67,-100.44,2.89,-20.49,15.54,-9.33,-12.06,-17.53,-6.12,19.79,6.66,15.04,-93.8,-41.7,55
1.51,-9.6,18.14,-80.57,3.42,-96.24,5.97,-16.82,16.66,16.65,1.86,34.33,-5.41,12.59,13.41,5.91,-87.79,-33.54,55
0.79,-13.77,17.77,-40.23,2.93,-58.94,1.79,-15.6,16.71,17.63,-10.84,41.02,-5.81,10.24,15.78,4.3,-63.38,-15.23,55
1.38,-17.6,17.0,-19.97,-14.11,-20.36,3.64,-9.54,17.53,34.33,-20.75,54.0,-4.09,10.14,19.28,-4.54,-19.82,1.51,55
1.39,-12.54,17.98,-2.3,-20.56,23.14,4.32,-9.09,18.66,25.63,-21.53,59.13,-4.42,13.62,17.21,-2.34,32.28,19.48,55
3.05,-11.79,17.69,26.76,-8.45,47.41,5.11,-5.34,20.02,30.13,-15.87,61.28,-3.96,12.53,14.97,-4.88,49.8,20.75,55
3.06,-8.0,18.88,31.35,-16.75,56.98,3.33,-3.63,18.92,22.85,-11.57,71.24,-5.85,14.75,12.29,-2.78,61.18,30.08,55
4.17,-7.84,19.48,22.17,-15.67,60.45,3.24,-0.74,20.72,97.41,4.88,67.24,-6.01,15.61,10.93,-3.32,64.16,28.61,55
4.88,-3.63,21.53,28.47,-17.68,67.38,-0.05,2.73,18.59,52.73,3.66,54.93,-6.07,18.2,9.0,-7.62,63.67,28.66,55
5.71,-3.81,21.17,8.64,-14.75,67.43,1.08,3.53,18.91,43.12,2.05,30.62,-4.78,19.17,8.31,-23.58,69.73,19.73,55
4.13,2.13,19.77,42.43,1.42,67.19,1.1,2.68,20.67,24.66,-6.2,25.05,-7.74,17.82,7.07,-16.89,66.8,11.57,55
-1.22,4.4,20.94,18.9,-1.32,57.81,2.7,3.07,20.98,24.07,-2.73,10.79,-12.23,14.52,4.2,-18.07,62.45,12.99,55
1.38,1.68,21.58,17.77,-15.77,31.93,4.01,0.98,21.3,13.92,-0.24,17.82,-12.48,17.1,4.72,-1.17,39.31,14.89,55
0.91,1.71,21.74,7.91,-17.38,24.41,3.89,1.54,20.6,8.4,4.25,8.98,-12.59,16.17,4.01,-3.61,26.66,13.96,55
0.36,1.59,22.17,10.74,-8.01,15.53,2.12,0.48,20.41,8.01,2.05,10.74,-13.44,16.25,3.92,-0.24,23.78,8.11,55
2.38,0.42,21.82,2.05,-7.81,20.85,4.88,-2.27,21.13,10.01,-9.33,15.82,-12.15,16.23,4.81,-12.21,26.03,0.73,55
1.9,0.53,21.69,2.98,-11.23,13.09,3.67,-0.37,21.4,6.35,-5.76,7.57,-11.3,17.14,4.28,-8.69,13.33,2.93,55
1.48,-0.46,21.08,0.63,-4.25,5.91,3.44,-0.36,21.05,1.51,-4.39,0.24,-10.12,18.4,4.38,-5.66,10.79,-0.54,55
1.32,-0.67,21.45,5.76,-14.84,4.98,3.28,0.08,20.82,-0.88,-2.54,-4.2,-9.67,17.53,4.63,9.18,5.62,7.57,55
3.28,3.66,21.93,-13.92,5.42,-54.74,5.97,-2.16,19.33,-33.11,8.25,-68.12,-9.69,14.93,6.61,35.69,-73.34,-35.16,56
3.68,-0.19,20.07,-26.56,4.44,-66.46,4.97,-3.97,19.69,-19.09,14.45,-67.19,-13.06,18.18,3.02,97.7,-144.04,-69.38,56
2.85,-2.79,19.96,-19.24,14.26,-66.46,4.11,-3.87,19.67,-24.17,18.07,-79.74,-5.05,6.43,10.56,-25.39,-103.27,-18.16,56
2.74,-2.47,20.07,-19.78,15.48,-71.29,4.29,-0.39,17.9,-21.88,40.28,-154.88,0.66,15.81,15.13,-43.07,-61.33,-4.79,56
4.66,-0.91,20.82,-5.22,22.46,-147.95,8.05,-13.25,16.79,-89.21,-8.35,-85.94,-1.37,15.75,16.64,11.28,-40.33,-0.93,56
4.7,-7.57,16.55,-89.94,-27.29,-84.86,7.91,-16.97,14.97,-69.97,-10.79,-49.8,2.0,18.79,20.31,25.24,12.5,14.5,56
7.29,-10.58,16.46,-51.56,-18.55,-63.28,2.69,-15.26,14.87,-20.12,-8.06,-33.94,-6.77,21.03,14.86,19.09,48.14,12.3,56
2.86,-12.82,16.11,-16.89,-0.83,-44.68,6.47,-21.72,16.4,16.45,-17.33,11.23,-5.43,15.44,13.97,-4.35,73.0,2.0,56
6.53,-20.31,17.13,9.96,-12.5,-10.64,6.93,-12.01,20.95,50.39,-9.86,34.77,-7.92,15.74,9.65,-8.94,82.42,20.21,56
6.15,-13.14,20.29,39.26,-4.98,35.45,3.04,-14.56,17.8,44.24,-2.39,64.11,-6.81,14.41,10.41,-12.21,73.97,42.14,56
2.87,-12.63,18.99,33.98,18.21,55.91,3.21,-5.76,16.09,52.29,-12.3,73.63,-2.98,17.04,8.73,-13.72,65.87,41.16,56
2.24,-6.17,17.68,51.76,2.49,72.71,5.25,-8.21,17.37,35.79,-34.47,72.31,-5.13,14.68,8.5,-28.76,76.95,23.49,56
3.44,-7.56,17.76,28.32,-16.8,77.88,8.52,-6.94,16.06,31.01,-28.56,68.16,-5.87,15.38,8.9,-30.71,67.53,17.38,56
8.79,-6.53,18.38,29.05,-30.52,69.38,7.16,-8.27,18.71,21.58,-12.16,73.83,-5.79,18.9,7.82,-26.76,48.93,16.41,56
8.01,-5.71,18.94,15.23,-12.5,75.24,6.59,-8.54,19.93,13.53,-0.34,64.65,-8.47,18.53,8.43,-36.04,41.89,28.03,56
8.03,-5.4,19.99,15.92,-5.86,69.68,6.52,-6.14,18.15,6.64,1.61,55.86,-8.98,19.13,7.36,-15.92,41.26,24.66,56
6.04,-3.51,21.0,17.72,-8.35,52.64,5.23,-7.59,19.4,-8.2,-13.23,48.73,-9.91,17.42,7.04,-15.04,28.47,19.97,56
1.8,-2.13,20.07,9.23,-7.03,50.1,4.54,-2.08,20.34,9.72,-8.54,46.63,-9.64,18.8,7.27,-2.83,24.07,11.08,56
3.81,-2.02,21.12,17.87,-23.14,42.43,4.22,-4.06,20.3,-0.29,-5.96,31.1,-10.67,15.16,7.3,-2.78,12.6,9.57,56
0.65,-1.6,21.45,4.25,-11.04,37.4,3.99,-1.78,20.05,0.63,-4.44,27.73,-9.32,15.98,8.49,-12.01,16.41,1.61,56
6.62,1.19,21.42,-26.22,21.68,-89.45,6.08,-13.39,15.05,-87.79,20.7,-69.09,-2.42,13.17,13.64,-32.37,-87.01,-39.65,57
5.22,-3.39,19.53,-30.47,27.34,-112.99,-0.02,-16.42,15.21,-44.73,30.03,-62.21,-4.47,13.34,17.52,-9.72,-66.99,-37.16,57
2.8,-5.96,15.6,-56.3,32.86,-88.72,-1.15,-19.08,15.14,-17.97,10.35,-44.82,-3.57,12.3,19.85,28.71,-42.97,-20.65,57
5.81,-12.14,15.79,-67.24,26.42,-66.7,-0.95,-18.89,14.33,0.83,-0.1,-15.09,-4.56,8.9,20.07,22.36,-12.45,-4.64,57
