ACC-X-Ring1,ACC-Y-Ring1,ACC-Z-Ring1,GYRO-X-Ring1,GYRO-Y-Ring1,GYRO-Z-Ring1,ACC-X-Ring2,ACC-Y-Ring2,ACC-Z-Ring2,GYRO-X-Ring2,GYRO-Y-Ring2,GYRO-Z-Ring2,ACC-X-Ring3,ACC-Y-Ring3,ACC-Z-Ring3,GYRO-X-Ring3,GYRO-Y-Ring3,GYRO-Z-Ring3,TEST
-9.54,0.47,20.03,-34.13,45.12,9.91,24.47,-4.66,36.51,12.4,-283.2,-41.21,-3.95,11.94,-11.9,58.59,85.06,-28.71,1
-13.55,-2.54,17.57,-74.95,-191.02,91.11,7.83,-22.68,24.71,-115.87,-139.89,-51.81,-42.35,39.88,-23.33,83.59,27.05,-758.69,1
-18.72,-16.99,36.37,50.05,194.63,-20.41,-1.67,-3.49,11.59,-12.16,-42.87,-38.28,-15.66,-17.51,-2.18,236.82,-83.2,95.95,1
19.92,-14.67,17.77,-2.2,-52.25,-79.05,0.54,-7.83,15.07,34.86,45.65,0.05,-15.56,5.76,-7.74,-43.31,7.28,19.87,1
12.22,-17.72,26.74,-84.03,-60.6,-42.24,1.33,-17.07,16.54,37.79,69.19,-6.74,-11.59,11.42,-8.32,-9.28,5.13,38.82,1
4.3,-0.68,18.74,7.71,16.46,-36.28,2.79,-10.38,18.37,41.36,51.66,2.39,-6.23,19.47,-13.54,-9.57,-35.16,35.99,1
-1.34,1.25,22.58,43.75,56.01,-44.14,0.59,-10.35,18.85,12.65,11.23,-6.88,-13.08,12.39,-10.47,10.2,-15.92,61.96,1
0.17,-1.43,22.05,2.34,46.29,-21.04,-0.32,-10.87,19.48,-8.89,3.42,-1.86,-3.32,20.16,-11.73,27.69,-41.75,38.53,1
-2.88,1.15,21.05,-3.76,-3.52,0.2,-0.8,-9.31,18.9,21.63,-0.59,-6.93,-5.81,12.46,-8.8,-7.23,-24.61,44.87,1
-4.97,-1.14,21.33,-0.44,-2.78,-0.59,-2.53,-9.22,18.62,9.91,15.87,-9.77,-5.2,14.82,-9.8,18.7,-0.34,12.35,1
-2.47,0.03,22.28,4.05,-6.35,0.0,-2.4,-9.94,18.87,17.14,13.18,-3.17,-3.98,17.69,-12.39,2.49,18.65,2.29,1
-3.48,0.98,20.97,-3.17,-34.91,11.72,-2.4,-9.86,19.12,0.05,4.64,0.05,-4.47,16.5,-10.6,5.42,1.95,-10.89,1
-1.04,1.77,20.77,18.21,13.28,7.23,-2.3,-9.08,19.2,-10.25,-0.29,-0.88,-4.02,16.05,-10.68,15.82,9.13,2.39,1
-0.74,3.16,21.45,-3.66,-12.01,-1.17,-2.39,-9.0,18.85,0.2,-2.98,1.27,-7.12,14.07,-11.4,-12.94,4.44,-3.71,1
-1.91,3.11,20.97,9.13,-2.88,2.29,-2.22,-11.24,19.33,-2.64,-2.39,3.76,-6.86,15.05,-11.41,-8.45,9.47,-2.1,1
-0.84,0.48,21.58,-13.77,-7.47,-2.29,-1.43,-11.37,18.79,-0.98,-1.81,-0.34,-6.43,16.36,-11.64,-21.0,6.74,-8.89,1
-2.43,1.83,21.58,-12.01,-4.39,-2.25,-0.45,-10.52,19.07,-4.74,-3.76,0.98,-6.3,14.46,-10.2,2.88,6.88,-1.61,1
-2.4,0.63,21.54,7.86,0.05,1.95,-0.9,-10.47,18.73,3.32,-1.42,-0.98,-5.22,14.46,-10.27,-5.32,4.64,-0.24,1
-2.56,0.13,21.49,5.08,-1.81,0.68,-0.85,-12.08,19.06,-1.56,-0.05,1.9,-4.67,15.92,-10.25,-4.64,1.71,1.66,1
-1.7,-0.44,21.88,-4.1,-3.42,0.29,-0.9,-10.95,18.74,-6.54,-1.86,0.2,-4.41,15.51,-9.9,-3.66,-1.71,0.93,1
-6.33,3.31,22.96,76.37,88.13,24.56,-5.7,-9.38,12.64,-132.32,-105.52,18.21,-3.16,12.01,-11.91,-66.36,-39.45,-27.73,2
-7.24,1.73,19.9,-57.03,48.29,6.01,-1.91,-21.0,4.99,24.27,-199.76,-19.14,-6.9,12.85,-12.51,25.68,74.71,-35.84,2
-20.18,-5.4,13.75,-147.27,-210.55,124.46,-22.86,-5.87,34.03,-185.11,105.08,23.24,-42.35,39.88,7.42,63.77,-123.78,-1053.03,2
-16.99,6.02,26.21,45.75,146.04,-25.98,-3.33,-8.17,13.84,105.62,77.64,-46.39,-11.11,-17.82,-3.1,295.46,-107.08,114.99,2
-3.4,-4.39,14.54,182.23,102.78,-57.28,7.31,-21.55,16.35,10.89,65.33,-26.27,-16.07,16.86,-13.81,-17.24,2.0,5.47,2
7.36,-9.43,21.81,-1.86,-22.95,-30.52,5.93,-15.8,16.62,54.0,98.97,10.21,-9.28,13.24,-7.18,2.25,-43.16,21.83,2
5.24,-8.0,17.59,79.78,80.81,-23.88,1.01,-7.63,18.41,48.1,36.67,2.15,-12.35,15.08,-7.68,-72.46,11.18,49.56,2
5.19,3.15,22.77,-28.13,31.54,-27.15,-3.04,-8.75,17.19,64.55,53.52,-27.29,-17.16,9.67,-7.79,47.31,-9.77,49.76,2
-5.08,5.24,20.33,59.13,70.7,-46.48,-1.16,-6.56,21.04,-3.08,-17.09,4.64,-9.04,16.96,-11.53,21.68,42.72,10.45,2
-2.22,-0.01,21.93,35.25,8.79,18.51,2.15,-8.9,21.82,-2.69,-15.97,4.93,1.37,23.22,-9.99,7.08,7.23,5.96,2
-4.79,2.73,22.43,-25.0,-17.97,3.47,-1.0,-8.02,20.23,-20.22,-3.27,-4.49,-3.41,18.09,-7.09,-17.29,0.2,9.77,2
-6.55,2.2,20.87,-23.68,2.83,-10.64,-0.05,-5.82,20.1,-18.02,-12.16,-4.79,-3.75,15.69,-7.32,3.91,6.15,17.14,2
-4.28,3.94,21.4,-6.69,-15.43,-0.93,-1.87,-7.87,20.32,-5.18,0.1,0.59,-3.01,16.41,-8.25,-7.62,-8.79,9.67,2
-4.15,2.11,20.55,-1.66,-5.52,2.69,-2.92,-6.55,19.64,1.37,2.49,0.24,-3.46,13.36,-9.57,-5.32,9.67,0.44,2
-3.97,2.83,19.09,-6.1,2.49,-0.2,-2.13,-6.42,19.83,-7.03,-2.88,2.39,-7.28,17.12,-10.29,-0.1,5.03,-3.91,2
-3.55,3.69,19.79,-10.45,8.98,-5.66,-2.15,-6.11,19.53,3.81,-2.0,0.68,-3.14,17.47,-9.1,22.51,5.18,1.46,2
-4.22,3.94,20.14,-2.64,-2.78,-2.83,-0.7,-8.65,20.55,-0.05,3.86,4.49,-3.54,14.51,-8.24,-0.15,-7.42,4.25,2
-0.93,1.0,23.01,-8.35,-26.71,6.35,-1.9,-8.27,19.94,3.32,6.1,2.54,-5.49,19.75,-11.45,15.19,8.5,-3.17,2
-2.81,2.69,21.54,2.29,-12.94,3.42,-2.22,-7.11,19.68,2.93,-0.63,-1.27,-3.4,15.31,-8.95,7.91,6.93,0.63,2
-3.81,2.57,20.13,3.08,4.54,-1.51,-0.76,-6.22,20.26,1.12,-1.71,-0.88,-2.62,16.53,-9.66,-3.47,-3.76,0.63,2
-4.48,-5.66,21.94,-57.18,53.03,16.5,-2.65,-7.58,9.46,-114.84,-140.33,-18.9,-1.16,10.94,-15.55,72.66,65.92,-20.17,3
-6.03,-0.09,18.73,-49.95,-32.62,38.48,34.37,-14.04,41.65,84.81,-275.54,-11.13,11.2,22.53,-13.82,11.18,166.75,-158.15,3
2.69,-12.36,24.27,-94.09,-253.96,113.33,6.61,-20.67,17.57,-188.53,-128.37,-78.08,0.79,-23.66,-37.24,-539.4,-22.41,-243.85,3
2.37,-9.69,14.39,-27.1,-34.47,6.4,-5.3,-6.49,14.58,49.17,122.71,-18.41,-10.37,31.77,-20.69,403.61,-50.54,-0.73,3
0.05,0.28,18.14,67.09,113.96,-78.22,8.03,-22.02,16.96,-61.96,50.68,-10.01,-14.12,6.2,-7.13,-86.91,31.3,39.7,3
9.41,-7.22,21.67,-54.59,43.02,-24.51,2.85,-10.16,15.74,32.62,84.03,-3.91,-9.82,13.25,-7.54,25.39,14.36,41.46,3
1.6,1.34,20.88,60.94,95.12,-54.83,0.27,-7.19,17.26,40.77,53.96,-4.93,-6.12,18.2,-11.44,-3.61,15.04,52.1,3
-3.82,1.93,21.59,14.11,43.51,-21.58,-2.24,-9.16,18.53,20.07,18.85,-8.5,-3.5,21.58,-13.12,36.47,-6.2,23.05,3
-3.5,0.04,21.59,14.75,30.96,-5.22,-1.72,-10.39,21.0,4.1,13.48,-8.59,-5.8,17.73,-13.12,38.72,-11.23,19.82,3
-6.09,0.58,19.93,2.98,14.75,-10.16,-2.85,-5.34,19.47,25.05,8.3,-10.45,-4.95,15.58,-12.73,18.65,4.88,10.55,3
-3.93,2.23,20.35,11.08,-12.3,-5.32,-1.71,-7.77,20.89,0.29,-2.05,-0.78,-3.78,14.14,-12.76,2.44,-0.98,-1.12,3
-5.97,1.69,21.42,4.49,3.08,-1.61,-0.93,-6.69,20.19,-2.2,-12.35,-1.95,-4.86,12.23,-12.48,-7.42,13.18,-3.12,3
-4.88,0.08,21.22,10.01,-11.43,0.93,0.35,-6.72,19.76,-8.5,-5.57,1.22,-0.16,14.96,-12.52,-10.55,-6.3,-2.39,3
-3.09,1.89,21.56,-5.32,8.06,-1.07,-0.24,-6.58,19.71,-1.42,-5.62,1.37,-2.32,14.84,-11.28,-13.28,4.88,-4.15,3
-4.17,0.84,21.74,-7.47,-4.05,1.86,0.66,-8.44,19.76,4.49,-0.78,-2.0,-0.48,14.63,-11.7,-1.51,-6.84,7.32,3
-3.35,1.65,22.07,2.05,-11.23,-0.2,1.2,-6.31,20.76,4.88,1.07,-2.0,-3.92,14.04,-12.82,13.48,11.04,3.37,3
-5.12,-0.15,18.47,9.03,-7.86,-1.86,-0.12,-9.75,20.3,-9.33,9.13,-4.35,-7.06,13.72,-11.25,8.15,-3.32,2.98,3
0.02,-0.79,24.01,-6.01,-43.65,4.59,-0.19,-10.15,19.63,3.86,5.18,2.05,-0.53,16.76,-12.36,-3.61,-12.06,-3.96,3
-3.41,0.29,20.95,9.18,10.74,-2.05,-0.35,-10.55,19.59,-4.0,-1.56,-2.88,-5.04,15.0,-11.98,-8.01,0.83,-6.01,3
-4.21,-0.69,20.32,2.54,4.1,-1.9,0.66,-10.51,19.84,-14.65,-4.88,2.98,-3.71,15.49,-10.96,5.18,7.13,-0.34,3
-7.41,0.95,19.93,-64.31,-71.63,43.51,-8.18,-12.8,18.15,-48.49,72.31,31.4,-10.53,14.51,-10.74,-52.0,16.94,13.13,4
38.88,-33.93,-20.03,-280.66,-534.62,85.99,-0.66,-10.09,12.17,-118.07,-161.77,-27.93,-7.73,17.93,-8.83,8.69,-5.08,51.76,4
9.14,-7.97,17.6,-25.34,-100.39,5.32,39.05,-39.94,2.7,-208.94,-500.88,-13.57,-2.72,19.73,-8.75,49.95,-35.16,48.05,4
7.49,-1.05,20.67,-54.39,-75.59,2.88,26.44,-27.04,12.48,-50.2,-35.3,8.54,-3.87,24.37,-14.85,80.52,-16.8,31.2,4
5.81,-5.56,18.85,0.73,116.85,-42.09,7.09,-13.71,12.12,-87.94,-18.75,4.15,-6.76,15.07,-12.34,17.82,5.76,19.73,4
-0.13,4.14,22.1,68.31,49.76,-40.19,4.24,-15.16,14.24,0.44,85.21,5.96,-4.86,11.81,-11.12,-2.78,18.12,13.72,4
2.54,-0.44,23.62,4.2,-2.15,-13.33,1.79,-7.66,15.65,65.19,73.54,-14.36,-4.02,15.94,-11.87,-11.62,5.37,-2.25,4
-3.23,7.63,23.8,23.49,39.4,-31.4,3.06,-8.85,18.73,3.12,13.18,-11.87,-0.95,18.43,-11.95,1.12,6.64,4.35,4
-6.62,11.08,20.15,43.12,-4.93,-2.39,-0.92,-5.48,21.89,54.05,26.61,-20.17,-1.93,17.48,-12.43,9.37,5.03,4.05,4
-4.92,4.09,22.13,17.14,-8.11,2.15,-2.28,-5.21,19.32,94.24,14.89,-13.48,-0.93,16.09,-11.47,15.67,-7.08,5.91,4
-1.75,2.9,21.14,3.81,-8.06,-2.1,-0.74,-6.21,19.7,22.31,3.03,-7.37,-1.32,14.72,-11.36,6.64,-9.62,-0.93,4
-0.32,2.35,21.63,0.2,-8.35,-1.86,-0.88,-5.89,20.26,10.2,4.44,-2.69,-4.12,11.94,-11.14,-17.63,2.49,-5.66,4
-0.09,2.37,21.65,-5.81,-21.83,4.79,1.84,-7.12,20.65,0.63,-1.95,-2.93,-3.47,15.94,-11.79,-2.44,-0.2,0.0,4
-1.16,3.82,22.08,-10.69,-20.95,-0.68,0.42,-4.98,20.69,2.59,-4.93,-1.22,-2.73,16.73,-12.32,3.12,3.13,-2.2,4
-2.98,3.82,21.14,-0.1,-15.82,-3.03,0.81,-5.37,20.73,2.54,-1.71,-2.34,-0.95,15.55,-12.26,5.76,10.55,1.81,4
-3.51,2.91,20.63,2.59,5.03,-0.1,-0.6,-5.75,20.1,18.75,3.27,-3.42,-7.35,11.32,-10.89,-6.01,14.21,0.39,4
-3.61,2.31,20.36,3.86,8.74,-0.88,-0.4,-6.48,20.58,-3.52,2.59,2.0,-7.87,14.31,-12.07,5.13,6.88,-1.56,4
-1.02,2.23,21.44,-1.61,-1.37,1.07,-0.5,-6.78,20.38,-9.86,-0.59,-1.22,-4.68,14.97,-11.64,-1.42,-1.61,-3.86,4
-2.12,1.51,21.14,-4.49,-10.45,2.34,-0.23,-6.27,20.67,-4.44,-0.44,0.88,-3.56,14.2,-11.89,-3.52,9.23,-2.73,4
-1.45,2.25,20.97,2.49,2.64,-1.03,-0.6,-6.66,20.09,0.44,-2.93,-0.15,-3.39,14.44,-11.44,-10.01,10.55,-1.07,4
-2.61,-0.13,21.03,-33.84,56.15,8.4,-4.0,-18.97,26.45,-125.15,119.29,72.61,-13.14,11.88,-12.61,-41.41,44.92,51.07,5
-12.85,0.75,17.24,-97.27,-139.26,69.29,4.51,-9.49,13.83,7.13,27.49,-46.83,-9.31,19.32,-11.4,-71.24,14.26,37.55,5
-0.44,-11.7,6.43,94.82,269.29,242.29,8.12,-16.76,17.37,-43.65,29.2,-25.0,-5.0,21.12,-10.15,4.98,-9.13,42.43,5
4.76,-3.02,16.28,44.63,-39.11,-38.28,8.21,-14.72,15.42,104.64,68.6,-53.12,-6.82,15.55,-9.05,27.39,-4.54,25.68,5
4.68,1.01,22.75,-6.88,-14.01,-27.15,2.0,-9.41,18.91,-3.52,34.38,-28.22,-6.08,16.9,-9.7,12.74,2.88,4.2,5
5.91,-8.08,18.93,5.66,36.23,-34.47,2.77,-10.74,19.5,43.55,11.28,-3.52,-4.39,16.03,-8.0,24.85,-3.22,1.61,5
7.35,-2.18,21.18,-7.47,7.71,-4.49,0.83,-8.81,19.47,-15.38,-15.97,0.05,-5.25,15.01,-9.03,-7.67,4.39,2.98,5
-0.15,-3.9,21.07,-2.3,31.59,-4.69,2.67,-9.09,19.38,-3.32,-15.72,2.64,-3.16,15.18,-8.72,-10.11,-16.26,1.51,5
0.65,-0.79,20.56,-5.47,23.97,-2.49,2.46,-8.23,18.91,-1.66,-11.04,-2.59,-7.26,15.37,-9.08,12.7,-4.69,-3.12,5
2.43,-1.32,20.95,-12.79,8.45,-1.56,2.02,-9.2,18.71,-8.25,-2.44,-3.81,-4.7,15.32,-8.99,8.35,-5.08,2.25,5
0.26,-0.19,20.59,-1.51,5.57,0.49,2.9,-9.9,18.95,-10.6,3.17,0.73,-6.55,17.6,-11.35,-14.45,12.4,-8.69,5
2.28,0.11,20.75,0.73,9.28,0.34,1.36,-8.49,17.85,-0.49,0.93,1.51,-4.57,17.66,-8.46,0.88,5.08,7.71,5
1.58,-0.06,21.93,-6.69,0.54,-1.32,3.04,-8.98,18.48,0.1,-7.28,-2.78,-3.18,19.56,-8.12,11.52,4.39,3.56,5
-0.04,0.44,21.38,-5.62,-18.12,-0.39,3.08,-11.29,18.3,2.05,-4.69,-8.35,-5.18,17.77,-8.67,21.97,2.88,0.63,5
-0.86,0.68,20.69,-5.03,-4.35,0.78,0.92,-9.59,18.19,4.49,4.05,1.76,-5.74,14.85,-8.39,2.29,2.98,-2.1,5
-1.85,-0.08,20.42,-0.83,17.29,-5.96,0.83,-8.77,19.01,10.45,15.77,6.93,-6.31,14.62,-9.46,-4.59,2.59,-3.47,5
1.28,-0.73,21.08,15.82,22.12,-4.98,1.41,-8.04,19.36,3.27,-3.66,1.46,-6.4,15.62,-8.99,-19.04,2.69,-6.35,5
2.11,-0.59,21.54,13.87,12.45,-0.98,1.96,-9.75,19.89,-0.34,-4.64,0.59,-5.09,18.07,-9.42,7.76,-0.05,0.44,5
-0.05,-0.79,20.83,-4.69,-1.61,4.25,1.21,-10.26,19.86,-17.04,0.1,2.98,-5.66,19.01,-9.45,6.35,4.98,1.56,5
-0.7,0.38,21.41,-5.52,3.86,4.39,0.74,-9.32,18.98,3.42,2.64,0.15,-5.27,17.43,-8.7,1.03,0.44,-3.32,5
1.38,1.12,21.68,29.15,56.69,4.05,2.02,-9.21,19.88,3.03,-3.91,-0.78,0.52,6.4,-10.73,3.86,51.37,-31.25,6
-0.12,0.75,22.9,-37.79,54.93,19.48,1.9,-9.61,19.27,-3.37,0.29,4.98,5.85,16.19,-7.11,-8.45,157.81,-149.46,6
-20.2,1.38,12.1,-79.2,-15.82,71.29,1.33,-8.06,18.91,-5.81,-5.86,3.37,-19.24,-36.12,-27.56,-583.55,137.21,-95.36,6
39.07,-32.0,0.38,-275.49,-438.82,6.15,1.54,-11.13,19.63,-3.32,-0.1,0.29,-9.5,36.75,-21.3,257.13,1.51,14.36,6
7.85,-6.33,13.57,-13.09,-164.16,-10.6,1.05,-9.48,18.79,1.32,-2.98,-0.59,-15.77,15.87,-11.95,-90.67,1.17,22.8,6
5.93,1.75,22.42,-2.98,-17.58,-50.78,1.38,-10.02,18.97,0.15,-2.73,-2.05,-11.07,11.7,-6.75,1.81,-9.67,16.94,6
2.62,-1.04,20.65,59.91,110.06,-65.67,2.11,-10.99,19.26,-5.03,-3.17,-0.78,-11.24,12.71,-6.54,26.86,8.2,19.48,6
-0.72,0.35,21.31,52.44,71.04,-50.34,0.55,-9.16,18.9,0.83,-3.42,-1.32,-10.51,12.65,-6.53,18.16,3.61,21.14,6
-3.1,-1.12,21.15,36.33,32.23,-33.4,1.48,-10.72,19.41,-0.0,-1.86,-2.1,-7.27,15.61,-7.32,4.35,-3.17,8.3,6
-1.11,2.53,22.18,28.22,-0.1,-17.77,0.65,-9.18,19.16,-4.1,-1.07,-0.39,-7.55,18.03,-7.4,13.09,-5.22,-1.27,6
-0.48,1.19,21.87,8.2,12.4,-14.11,0.84,-8.46,18.9,-0.83,-0.83,-1.17,-6.45,17.49,-7.64,-2.93,5.62,1.12,6
-1.26,0.5,20.89,5.13,3.17,1.12,-0.23,-9.42,18.82,3.86,1.61,-0.93,-9.01,15.26,-9.21,-4.79,7.57,-2.54,6
-0.79,0.9,22.09,-0.15,-5.71,5.22,2.07,-10.31,19.84,-3.37,-8.5,0.0,-6.97,17.0,-9.02,2.78,4.59,0.49,6
0.12,-0.01,21.16,-10.89,-4.93,3.96,0.3,-10.13,18.97,-5.13,1.17,-1.56,-6.08,20.0,-10.74,32.42,-13.82,3.32,6
-1.61,-0.07,20.97,3.86,-4.39,-1.81,0.55,-9.62,19.32,2.64,0.39,-0.63,-6.85,17.76,-10.58,7.96,-1.86,-3.17,6
-1.72,-0.17,21.08,5.27,6.54,-4.69,0.11,-10.23,18.81,-1.66,6.54,2.1,-8.32,15.74,-10.36,-6.25,5.27,-5.86,6
-2.03,0.18,21.7,4.74,17.38,-1.86,-0.96,-9.01,18.57,3.03,-2.05,0.68,-7.01,16.0,-10.96,-2.93,2.29,-6.84,6
-0.61,1.47,21.44,-4.69,3.37,3.86,0.3,-8.83,18.85,-1.95,-0.39,0.1,-7.02,16.52,-10.29,-0.05,4.88,0.83,6
-2.58,1.11,21.05,-2.2,6.3,0.15,0.62,-9.52,18.68,2.1,2.54,0.2,-9.33,13.4,-9.55,21.34,0.68,-0.59,6
-0.29,0.12,20.74,2.0,-3.56,2.05,-0.08,-9.03,19.05,2.98,-2.73,-0.49,-7.99,13.36,-9.73,6.1,4.2,2.64,6
-24.67,-2.74,13.49,-74.12,-232.91,98.97,-2.43,-24.89,9.98,53.32,-200.15,-12.79,0.7,14.51,-10.41,75.54,56.98,-9.47,7
-7.08,-24.86,41.65,-52.54,201.95,105.62,-4.57,-15.67,24.74,-67.72,90.97,-29.3,12.4,-12.41,-24.64,-439.16,-65.87,-152.1,7
3.66,-1.74,17.05,62.21,48.54,-53.17,-1.54,-2.96,13.98,38.77,77.39,-36.23,-3.38,22.99,-22.53,281.49,-47.61,4.88,7
4.56,-6.82,25.01,-48.34,-12.79,-33.94,6.59,-11.01,17.4,-38.18,41.02,-16.41,-12.74,13.05,-12.35,-92.33,-3.32,-20.8,7
12.4,-6.78,15.74,32.57,119.38,-65.53,8.16,-16.27,13.05,71.19,158.84,-6.2,-14.51,12.73,-7.0,-58.06,-13.53,25.78,7
-9.08,-2.66,26.22,-22.95,81.93,-34.47,-3.53,-7.73,22.53,-2.3,47.36,-9.03,-7.75,19.04,-4.55,12.65,-5.08,35.01,7
-4.88,1.9,22.93,17.72,-14.26,-1.61,-1.57,-3.2,19.66,32.52,-0.93,-3.81,-5.87,19.76,-5.99,17.24,6.25,13.13,7
-5.09,0.69,21.78,7.57,-20.02,1.07,-0.61,-6.81,19.65,12.84,-11.67,-4.93,-7.17,16.45,-6.0,29.44,4.3,-3.91,7
-5.1,0.08,20.76,14.4,-10.84,1.95,-0.6,-8.37,19.75,9.86,-8.25,-0.2,-6.22,18.32,-8.4,35.64,-6.35,1.12,7
-3.21,1.49,22.1,2.44,-7.52,2.25,-1.55,-7.35,20.11,-3.03,-7.52,0.68,-7.78,15.29,-8.62,-9.08,1.95,-7.18,7
-4.39,-0.43,21.2,-0.0,-1.22,3.17,-0.45,-8.45,19.86,-0.73,-6.4,0.98,-6.66,16.59,-8.67,-6.79,8.06,-2.54,7
-5.39,0.19,20.48,1.42,8.06,0.54,-1.89,-8.45,19.13,-7.28,-6.69,-0.59,-5.62,19.83,-9.38,-9.33,4.1,4.05,7
-1.87,-1.52,21.25,-0.63,14.45,-0.34,-0.49,-8.87,19.94,-8.25,1.22,3.17,-6.57,18.15,-8.61,13.28,-4.0,-4.49,7
-2.38,-1.13,20.62,-0.0,-9.86,2.34,-0.65,-7.39,18.96,7.47,-5.57,0.34,-6.52,16.94,-8.14,-2.69,7.67,1.81,7
-1.14,-1.47,20.91,-7.03,5.66,3.08,-1.26,-9.5,19.29,-6.1,3.47,3.13,-5.75,20.22,-7.87,14.5,-8.15,-9.37,7
-2.23,-2.07,21.39,2.49,6.2,1.56,0.4,-8.8,20.24,-1.07,-4.59,2.69,-5.8,17.74,-8.66,3.95,4.44,0.63,7
-4.05,-0.11,22.3,2.54,-10.79,2.59,1.02,-8.48,20.0,1.03,-6.45,-0.29,-7.87,16.27,-8.04,-15.04,7.23,0.2,7
-4.69,-1.69,20.76,5.03,-12.74,-0.29,-0.13,-9.51,19.29,7.76,-2.98,-4.44,-6.68,17.65,-7.66,-1.07,4.69,3.61,7
-1.63,-1.91,20.74,-0.78,8.64,2.44,-1.43,-10.3,19.53,-4.1,3.86,2.54,-6.42,18.16,-7.52,9.81,-0.59,-4.93,7
-0.44,-0.35,21.77,-2.73,-7.13,2.98,0.68,-8.07,19.25,-4.74,1.81,1.51,-7.2,16.0,-7.72,9.67,-3.56,-4.05,7
3.72,-4.61,20.41,57.37,78.81,-2.1,-0.84,-3.97,9.93,-70.56,137.79,37.65,-14.84,-10.4,-8.67,253.56,-87.01,116.36,8
-7.51,0.11,18.87,-86.67,82.03,-15.14,-8.21,-12.11,7.28,-150.24,-225.34,-42.92,-10.17,11.05,-8.7,-82.76,24.46,68.16,8
-21.22,-3.89,11.02,-84.52,-170.65,84.13,39.05,-29.63,13.22,-200.0,-432.57,39.06,-6.29,12.5,-4.25,-110.4,-9.67,82.81,8
2.66,-17.21,13.02,-16.16,217.14,159.18,25.75,-18.74,12.47,39.06,13.48,-18.8,-7.27,20.22,-9.04,8.59,17.53,21.09,8
8.85,-9.39,16.81,48.78,-14.06,-72.85,-2.8,-6.07,13.03,-90.38,21.24,-25.49,-7.34,16.2,-6.55,-26.86,8.59,14.31,8
0.94,-5.34,16.11,-71.92,-6.05,-64.75,4.45,-10.49,14.8,20.7,51.46,-10.74,-5.47,16.0,-6.0,9.57,-0.1,17.04,8
13.87,-6.03,19.45,-2.93,-41.31,19.04,3.27,-9.19,18.6,57.32,37.55,-4.35,-7.23,14.31,-6.33,29.74,0.54,10.99,8
1.67,3.45,21.29,24.9,54.05,-20.12,1.25,-9.15,18.55,8.4,42.97,-20.75,-6.14,15.83,-7.86,20.31,-0.83,3.17,8
1.55,1.07,22.66,-32.18,9.33,-33.94,2.07,-11.28,18.79,-3.17,26.86,-12.3,-4.79,16.21,-8.2,9.37,0.24,1.61,8
-0.75,1.05,22.22,-2.98,24.12,-21.97,0.9,-10.89,19.23,1.42,12.26,-1.95,-7.03,14.28,-8.11,3.95,-5.76,-3.17,8
-1.38,0.05,21.38,16.55,5.76,-8.4,1.01,-9.13,19.09,-4.0,3.66,-1.42,-5.72,16.1,-9.99,-18.07,0.05,-7.67,8
-1.89,0.61,20.95,13.57,8.4,-3.42,1.65,-8.94,19.11,-4.74,4.0,-0.73,-5.73,17.9,-9.27,2.39,-1.9,-6.74,8
-1.05,-0.02,20.6,17.24,10.94,-0.98,2.96,-7.2,19.23,-4.0,1.86,-3.52,-5.37,17.31,-9.02,1.61,-1.12,-1.95,8
1.23,-1.11,20.92,14.06,12.55,-5.22,1.64,-6.77,19.2,-1.9,4.25,2.64,-6.44,16.87,-9.29,22.61,-5.27,-5.71,8
0.25,-0.7,21.54,-4.83,6.05,1.07,1.1,-8.22,18.77,1.81,5.96,3.13,-5.26,17.56,-9.31,12.3,-3.91,0.24,8
-2.45,0.62,20.62,3.22,8.64,-2.88,1.02,-8.2,18.68,-1.03,2.0,0.93,-5.86,17.34,-9.67,-6.45,3.13,-0.93,8
-1.39,-0.66,21.76,-0.54,2.69,-1.03,2.64,-7.52,19.47,-3.81,3.27,4.39,-4.79,19.31,-9.47,14.31,0.83,2.59,8
1.34,-0.58,20.82,1.81,14.21,0.15,0.51,-7.75,18.63,1.51,5.62,0.63,-7.36,15.56,-9.11,-0.83,-2.25,-1.17,8
-1.11,1.8,21.06,-0.98,7.47,1.56,1.3,-7.14,18.9,2.88,-0.24,2.49,-5.88,16.26,-9.06,-2.25,0.29,0.54,8
-0.17,-0.24,21.53,-11.43,-0.44,2.69,0.99,-7.79,18.68,9.33,2.44,-1.03,-5.62,17.28,-9.23,4.1,1.03,0.98,8
-0.09,2.4,22.3,42.58,65.87,0.39,-5.82,-9.5,10.3,-92.04,-92.43,-1.46,-0.18,5.04,-15.53,-131.54,-19.09,-33.59,9
-1.09,-0.76,21.5,-45.12,65.87,11.52,9.55,-11.4,27.83,57.23,-239.6,-57.13,3.41,1.74,-11.52,24.51,79.25,-30.42,9
-15.5,-0.54,12.72,-65.14,-66.65,70.61,-3.81,-12.41,9.27,-103.76,-139.79,-82.13,18.68,-24.11,-40.43,164.4,126.56,-245.7,9
4.59,-13.3,38.67,-31.2,111.38,7.67,-0.47,-8.09,14.08,6.1,54.93,-41.7,-42.35,-37.93,19.82,-387.45,217.29,118.31,9
10.18,-8.6,14.21,51.32,42.77,-54.74,11.39,-9.57,20.15,16.21,103.86,-22.8,-4.29,39.86,-20.31,190.14,-17.97,55.81,9
11.85,-4.7,19.21,32.91,-22.51,-2.39,10.32,-12.23,17.56,21.04,4.69,-28.08,-12.29,18.18,-12.38,-80.96,-3.66,40.38,9
7.48,-5.13,18.6,-24.51,43.9,-17.87,2.94,-7.9,18.99,21.14,-2.15,4.0,-7.05,15.24,-6.1,-52.64,-5.47,27.78,9
3.95,0.17,21.57,16.7,30.52,-44.68,3.95,-9.82,19.2,-6.3,11.28,4.54,-4.57,21.99,-5.79,11.52,-2.93,7.76,9
2.2,1.42,22.78,-1.76,20.21,-2.54,3.08,-9.2,18.84,-2.88,2.64,0.68,-5.8,17.77,-7.27,14.06,7.52,-0.54,9
1.15,1.35,21.28,2.49,12.4,-5.27,3.22,-9.21,18.15,4.0,0.1,-6.3,-6.82,18.37,-7.33,-0.83,-4.54,-3.86,9
2.8,0.07,21.18,-0.59,-6.15,-1.42,4.1,-9.14,19.35,-2.78,-4.49,-0.54,-3.03,17.37,-8.18,20.02,17.87,13.04,9
2.55,1.08,21.18,14.26,-0.49,-1.51,3.78,-8.27,18.56,-10.3,-5.32,0.98,-5.51,16.45,-8.53,12.4,4.69,-4.3,9
1.88,1.78,21.2,1.32,4.59,-2.64,4.28,-7.86,19.06,-2.69,-3.96,-0.05,-5.5,15.57,-8.68,-3.86,5.57,-0.54,9
2.37,1.44,21.33,3.37,-12.3,2.39,3.28,-7.89,18.7,2.44,1.76,2.15,-5.6,16.33,-9.24,0.34,7.03,-3.52,9
1.64,0.48,20.9,4.78,0.78,1.81,3.09,-7.36,18.3,9.47,6.05,1.42,-3.08,17.59,-7.2,-8.69,-1.9,-3.08,9
3.33,-0.47,20.73,5.32,-3.96,1.22,4.53,-9.06,19.13,8.94,4.69,0.73,-4.19,21.48,-9.48,1.56,3.86,-1.32,9
2.77,-1.27,20.96,-4.1,-8.54,3.76,3.46,-8.02,18.35,2.98,-1.03,0.05,-4.07,17.19,-8.48,18.46,1.9,0.73,9
1.8,0.41,20.24,3.52,2.54,0.98,4.06,-7.58,18.97,-1.42,-3.27,-1.46,-4.88,11.89,-5.85,-37.89,4.0,-11.23,9
1.13,1.38,20.88,15.19,8.79,-1.56,3.39,-7.36,19.03,9.72,1.51,2.1,-4.22,19.17,-8.45,-10.4,2.64,-2.59,9
2.34,-0.33,21.05,5.13,-2.0,0.54,2.89,-8.46,18.38,2.44,-0.2,0.24,-3.73,20.72,-8.36,4.83,-5.22,-1.22,9
3.73,-9.06,19.4,-38.04,-71.48,6.93,14.05,-13.96,12.51,23.93,57.67,-26.86,-29.35,-41.9,25.77,-129.35,145.8,71.0,10
4.02,0.63,17.74,39.89,-53.96,-38.62,8.47,-9.6,13.32,-35.74,24.17,-4.64,-15.93,23.27,-15.35,46.68,30.66,14.79,10
3.79,-3.69,19.5,-38.33,53.03,-34.37,10.76,-17.9,13.26,-57.03,47.71,-6.54,-10.55,16.88,-6.93,-49.27,10.21,38.53,10
7.45,-5.78,18.59,82.57,88.96,-73.44,0.37,-7.43,14.84,107.08,86.28,-38.72,-8.65,22.55,-9.91,-42.58,16.16,50.44,10
10.75,-4.4,21.35,0.49,-2.0,-9.42,2.65,-13.76,19.85,-16.7,60.55,-18.21,-5.39,12.67,-4.08,5.62,-23.68,58.25,10
-5.49,-2.18,24.66,18.6,51.76,-1.46,2.19,-5.43,20.71,33.45,7.08,-0.93,-6.76,15.41,-6.3,-28.42,6.35,2.98,10
-1.84,1.46,20.31,22.46,5.62,2.73,1.11,-5.36,19.17,24.56,-2.64,-4.2,-4.04,19.34,-8.52,6.64,-3.96,7.57,10
2.3,1.2,21.36,-9.62,-11.57,2.1,1.95,-9.55,20.14,-12.7,3.71,-0.59,-2.76,19.02,-9.06,19.58,-6.98,5.18,10
-0.65,0.53,21.68,-1.51,-20.51,1.42,3.02,-6.24,18.84,5.08,0.54,2.73,-6.85,15.6,-9.37,8.35,2.78,-6.4,10
-2.77,1.3,18.64,8.98,-17.04,2.59,2.88,-10.06,19.62,-5.62,3.66,3.76,-4.05,13.17,-8.19,0.98,7.13,-0.34,10
-0.02,0.15,22.51,0.2,15.19,1.12,3.26,-9.12,20.03,-6.93,0.05,2.69,-3.92,16.01,-9.06,-11.33,4.98,-9.91,10
-0.64,1.45,21.29,-2.25,4.1,3.56,3.28,-7.3,19.27,-10.6,-4.83,0.83,-2.76,17.82,-8.86,-5.81,8.2,-4.2,10
-0.74,1.1,21.41,4.83,-1.37,2.05,4.27,-8.54,19.8,0.78,-1.71,-2.54,-1.94,19.01,-8.27,2.44,-0.98,1.12,10
0.46,-0.3,19.72,8.79,25.49,2.88,3.4,-8.2,20.37,4.98,-1.46,0.24,-2.07,17.07,-9.65,23.49,21.97,7.67,10
0.43,0.88,21.38,-7.28,-1.07,-2.73,3.01,-7.6,19.53,-7.57,-5.13,1.71,-3.8,12.99,-9.75,-9.33,11.33,5.71,10
0.99,0.49,23.65,0.59,-24.56,5.76,2.15,-6.28,19.02,8.15,-0.59,-1.95,-0.13,17.86,-10.03,18.16,-11.04,9.38,10
1.52,0.7,21.35,4.15,1.07,-0.54,3.29,-7.4,19.53,1.76,-0.78,0.39,-1.63,17.47,-10.27,-14.55,-12.6,-10.3,10
1.0,0.12,19.98,3.81,8.79,0.49,1.82,-7.44,18.91,1.61,-0.34,-1.46,-1.24,16.1,-8.92,-5.42,-0.78,2.0,10
1.59,-0.23,21.24,-1.12,7.86,1.27,2.6,-7.85,19.37,2.49,2.88,0.34,-1.9,18.43,-10.75,8.06,-6.3,0.39,10
2.23,-1.63,23.43,-4.1,12.16,-0.34,2.07,-6.38,19.54,7.32,-1.22,-2.49,-2.94,15.16,-11.1,8.64,2.44,2.78,10
-1.79,-1.43,19.99,21.29,89.4,-6.64,2.85,-7.56,19.86,16.26,-1.27,1.07,-1.35,10.81,-12.89,40.77,62.06,-27.0,11
-4.05,1.13,21.25,-11.28,55.62,39.01,2.48,-9.63,20.27,-3.47,-3.76,-1.17,-42.35,39.88,-40.43,459.96,-32.57,-695.31,11
-12.78,-0.35,11.36,-80.22,1.61,49.37,2.04,-9.31,19.86,-5.81,-8.15,1.37,-42.35,-38.54,6.8,-76.07,45.12,43.75,11
23.16,-15.79,-31.62,111.43,-182.32,178.71,1.63,-9.36,20.02,-16.5,-5.96,3.61,-11.82,17.52,-13.17,27.78,17.04,46.97,11
6.13,-11.23,17.82,-17.33,-78.03,-22.95,1.3,-7.68,19.35,1.46,-5.37,8.45,-14.0,15.47,-9.73,-24.32,12.6,47.95,11
6.14,-3.62,19.16,-16.89,-81.1,-18.51,1.63,-8.07,19.75,-4.59,-5.76,0.0,-10.23,9.49,-9.44,-5.47,43.12,58.64,11
6.44,-1.61,15.71,18.36,47.8,-38.09,1.08,-8.3,19.45,-8.55,-0.49,4.69,-7.82,14.11,-10.12,13.48,-13.09,84.08,11
8.74,-3.25,18.87,82.57,52.05,-71.39,0.99,-7.54,18.78,3.56,-3.86,2.29,-1.11,21.43,-13.11,-7.23,-11.62,29.64,11
-1.32,-0.49,20.16,69.87,70.21,-52.93,1.25,-8.07,19.18,-6.69,1.42,6.64,-6.09,15.56,-14.05,18.95,3.27,-1.9,11
-0.38,3.02,21.26,55.18,45.75,-23.68,2.03,-8.19,19.09,-5.62,1.86,-1.56,-5.57,14.49,-13.0,-3.42,-0.29,-8.2,11
-1.7,2.4,21.27,18.85,11.33,2.05,2.06,-7.52,19.34,5.66,-0.05,-2.88,-4.64,13.95,-12.94,-7.81,10.55,-4.1,11
-2.28,2.96,20.9,3.61,-3.56,0.29,2.36,-7.58,19.58,11.33,2.0,-2.25,-1.71,14.61,-11.39,-31.35,14.65,-6.93,11
-3.98,-0.23,21.15,5.71,-0.83,-1.07,2.17,-8.23,19.79,4.0,2.78,-1.03,-2.03,15.61,-11.44,-8.55,10.25,-1.32,11
-4.83,1.67,21.34,-7.42,10.45,-19.38,1.63,-8.68,19.08,2.34,-0.05,-1.32,-1.63,13.51,-9.94,2.54,7.71,6.93,11
-4.56,0.91,21.11,3.91,-0.24,0.54,2.62,-8.44,19.75,7.32,-1.66,-0.05,-2.01,12.16,-10.3,-22.46,7.52,-4.54,11
-1.69,0.36,20.87,-2.93,13.87,-2.69,2.59,-9.2,19.93,3.61,-1.81,-0.78,-0.2,17.51,-9.97,-17.48,-8.11,-5.71,11
0.02,2.39,21.1,-14.36,-11.47,1.32,2.87,-10.33,20.12,2.59,-3.08,-0.78,-0.77,16.67,-9.77,-6.98,-3.52,4.74,11
-3.2,2.49,21.17,-0.93,-13.53,3.61,2.12,-10.93,20.09,-3.81,-4.3,-2.05,-1.91,15.72,-9.62,-0.88,-4.0,4.39,11
-0.6,1.91,21.79,-1.22,1.17,0.24,2.56,-9.82,20.24,-8.98,-4.74,1.22,-2.41,15.21,-10.53,2.78,10.3,7.08,11
-2.03,1.61,21.28,5.86,-7.08,-1.12,2.48,-9.04,19.63,-8.89,-7.67,1.37,-2.39,15.43,-10.31,6.79,8.11,1.46,11
2.89,2.02,20.21,-20.36,35.79,44.04,4.23,-16.13,14.16,-87.79,10.69,61.38,5.19,19.07,-18.99,-44.78,-145.51,54.98,12
-7.49,-0.24,22.41,33.79,112.79,24.12,0.78,-7.66,14.23,-7.72,104.44,68.75,0.61,10.69,-9.7,-63.38,-31.1,-42.09,12
-13.87,3.7,15.26,2.2,65.28,-3.08,-10.97,-2.34,8.5,-173.19,-216.26,-9.77,4.26,16.41,-12.08,14.06,116.31,-18.51,12
-21.73,-0.84,14.86,-139.99,-244.78,112.16,39.05,-32.73,-6.13,0.39,-313.33,99.66,-1.02,4.55,-36.18,-377.05,-155.27,-339.75,12
-15.07,17.87,29.23,142.68,108.2,-89.45,14.3,-24.7,13.14,-48.0,82.08,19.19,-4.93,11.3,-8.62,293.07,-36.67,41.65,12
2.09,-3.95,12.7,85.5,38.18,-80.57,0.48,-6.92,14.99,-13.04,-42.29,-60.16,-1.39,26.05,-11.69,115.38,10.5,55.47,12
5.31,-7.14,14.79,-46.34,-60.5,-80.91,7.18,-11.89,16.58,-31.93,62.11,-31.45,-0.04,18.08,-11.02,51.17,18.7,59.38,12
13.27,-6.98,17.1,-19.68,38.38,-22.22,8.36,-5.41,18.14,48.39,23.29,-35.6,-1.56,12.98,-11.66,27.49,9.13,49.17,12
9.69,-7.52,21.92,-33.3,-10.5,-8.74,5.53,-10.3,17.95,50.78,30.18,-4.98,-2.21,12.75,-10.34,-26.07,19.38,26.03,12
3.17,-1.85,23.07,-2.1,-12.26,-23.05,4.59,-13.41,19.78,17.14,28.47,-0.73,0.97,13.51,-10.28,28.27,4.64,1.76,12
3.26,3.38,22.88,47.8,17.04,-8.45,5.09,-6.34,20.08,15.04,14.65,9.81,0.9,15.95,-13.73,-4.0,-8.11,-6.88,12
1.64,6.88,20.12,10.55,8.69,-5.66,3.97,-8.32,18.9,-28.71,-9.91,-3.96,-0.28,16.73,-12.07,9.13,-0.1,-7.86,12
3.59,-0.09,20.16,4.74,5.71,0.68,5.36,-6.67,19.1,-0.54,-6.3,3.37,-0.16,15.95,-11.96,6.59,1.46,-10.11,12
1.66,1.5,18.94,4.05,22.95,3.17,5.05,-7.52,18.77,-0.15,-12.16,-3.56,-0.99,13.59,-11.49,-4.74,-10.6,-7.47,12
7.48,1.74,21.51,4.39,4.88,-0.59,2.94,-7.55,18.89,-9.57,-0.93,1.37,-2.57,13.58,-11.7,-18.55,-1.95,-11.87,12
5.1,0.77,21.63,-4.54,-12.26,-0.93,2.07,-9.19,18.22,-6.45,9.57,-0.54,-1.58,15.48,-11.6,4.64,5.76,-3.22,12
4.03,0.21,21.63,10.4,-13.04,-0.15,1.08,-8.03,18.38,3.86,19.63,3.17,-1.13,17.03,-12.33,3.71,6.45,-4.0,12
2.31,2.04,20.66,7.76,-8.98,1.71,2.96,-7.97,19.68,-2.34,16.36,0.0,-0.36,14.87,-13.18,-1.42,6.59,2.1,12
0.23,-0.02,21.27,9.96,-1.76,2.1,2.41,-6.25,17.76,8.3,-5.37,-1.07,-1.17,12.17,-9.81,-14.6,19.92,4.74,12
4.33,1.09,23.13,11.91,-37.26,-4.49,1.33,-7.26,19.16,-8.98,6.59,11.77,-1.37,16.68,-12.79,-28.76,4.49,-10.74,12
5.86,4.31,20.88,-72.61,25.78,113.96,16.53,-19.57,14.53,52.64,-352.29,-43.26,-2.68,7.74,-16.97,126.66,-266.65,197.36,13
-7.38,-1.87,21.56,48.29,77.98,44.92,-1.42,-15.8,18.07,-271.14,-33.5,-115.87,-5.62,7.91,-12.43,-130.81,-27.83,-83.4,13
-19.13,-5.19,26.3,-150.44,-83.01,50.83,-1.29,-6.55,12.54,64.36,90.14,-15.82,-0.62,15.7,-12.92,84.28,145.07,-108.89,13
29.88,-9.22,18.28,28.12,-282.28,120.61,8.4,-12.35,18.01,-28.96,35.16,-36.72,16.76,-2.07,-19.01,-474.95,-113.82,-204.49,13
10.36,-12.68,14.06,87.35,37.74,-11.72,4.59,-8.79,15.73,58.54,81.25,-55.32,-6.25,-2.82,-6.52,296.48,-112.89,96.63,13
5.79,-6.49,18.91,-11.04,1.37,-10.35,2.51,-9.2,20.35,8.5,-10.21,-78.71,-10.63,17.39,-10.69,-12.89,23.49,94.58,13
4.09,-5.94,21.91,-2.73,82.18,-77.05,2.71,-7.7,18.17,0.34,25.2,12.06,-9.41,9.99,-9.3,-28.86,73.44,92.87,13
-2.36,-1.74,20.49,42.63,51.22,-68.12,3.67,-12.03,18.64,7.86,20.17,0.05,4.11,23.87,-14.56,50.39,59.67,82.81,13
3.98,-2.57,26.65,26.42,-23.63,-7.23,5.0,-9.75,19.46,4.39,9.81,-1.71,5.3,20.48,-15.91,12.01,-25.2,15.43,13
-4.4,-4.68,19.98,-8.4,1.22,1.61,4.13,-9.46,19.67,24.12,9.77,-6.64,3.53,11.17,-9.3,36.67,-13.82,16.99,13
-5.38,-1.6,19.75,4.05,18.41,4.98,3.85,-8.25,19.86,17.24,5.57,-1.71,2.43,14.0,-12.7,-3.42,1.22,-6.15,13
-4.96,-2.07,20.84,3.86,14.01,7.23,3.01,-8.5,18.97,14.65,-1.07,-1.46,1.95,11.05,-12.03,8.54,5.37,1.81,13
-3.39,-0.53,21.43,5.57,10.64,2.2,3.19,-8.24,19.48,-1.51,-0.54,2.25,3.83,13.91,-14.42,0.88,5.22,-5.71,13
-1.39,-0.62,20.56,-1.81,5.03,-1.86,2.81,-8.39,19.77,6.05,-1.07,-1.86,4.16,13.08,-12.29,5.03,-0.2,2.59,13
-0.4,1.01,21.61,6.3,-8.4,-1.27,3.09,-9.34,19.47,0.78,-1.76,-0.78,2.56,12.18,-12.78,-5.52,2.49,-0.24,13
-2.43,-0.49,20.43,-7.52,6.2,-1.86,3.13,-9.25,19.39,-1.12,-2.05,-0.44,2.11,12.79,-12.76,-8.89,-0.98,-3.42,13
-1.57,0.9,21.08,-5.66,6.35,0.0,3.1,-8.74,19.34,4.54,-3.17,-1.07,2.8,12.62,-12.74,-8.94,3.52,-0.98,13
-0.52,0.99,21.16,-2.05,3.22,2.1,1.84,-8.85,18.95,-2.54,-1.22,1.22,2.86,12.66,-12.25,-2.0,1.22,0.15,13
-0.54,0.55,21.32,-3.52,4.1,1.07,1.65,-8.6,18.76,-9.91,0.73,1.32,3.03,13.01,-12.71,-2.05,3.81,-1.32,13
-0.82,1.2,21.3,3.91,2.34,0.0,2.24,-8.4,19.0,-0.54,1.56,-0.44,3.31,14.19,-13.7,-0.24,4.49,-2.15,13
4.96,-14.14,17.29,-3.27,84.91,77.83,-2.97,-9.82,11.58,-5.57,170.85,91.46,13.06,14.08,-21.29,-560.69,-464.7,-266.89,14
-9.75,-0.66,16.9,-1.95,124.95,41.55,-10.08,-10.25,8.86,-169.29,-228.32,-1.51,-1.14,-7.13,-9.82,302.98,-152.15,222.41,14
-16.16,-0.42,15.68,-99.56,-59.18,34.77,-23.45,-41.9,-40.41,142.63,-197.56,-183.35,-1.31,11.21,-9.09,13.57,5.32,184.38,14
-4.05,3.0,12.51,-187.79,-352.83,-90.72,12.84,-22.24,9.65,-174.95,-85.74,-72.66,-3.54,11.19,-11.62,-7.08,58.01,94.82,14
8.33,-12.75,17.83,-7.67,-51.76,-21.48,-3.74,-2.46,13.48,104.15,46.68,-50.88,1.34,19.08,-17.87,17.09,101.81,41.06,14
-6.6,2.49,20.47,24.9,52.49,-74.71,6.6,-15.19,17.66,-39.6,3.17,-43.75,5.46,19.09,-16.49,2.73,36.67,17.33,14
9.44,-8.06,22.08,-14.21,-61.82,-19.24,5.14,-13.97,16.24,4.78,64.75,-59.18,5.15,7.4,-13.83,-11.96,5.18,6.05,14
-1.1,-6.76,21.92,10.89,97.95,-35.55,1.18,-8.91,19.61,52.15,31.25,-7.32,6.35,13.92,-14.35,15.33,-14.16,-5.37,14
-0.8,0.02,25.03,45.7,-9.37,-6.3,2.8,-6.02,20.16,4.44,-0.44,11.87,6.44,11.97,-11.99,3.42,-8.64,-5.96,14
-1.73,1.37,21.02,15.28,-1.27,-2.59,0.75,-7.29,20.95,-1.61,2.39,-6.93,4.24,11.52,-15.33,3.27,13.77,-0.44,14
-1.38,0.02,23.21,-1.32,-0.88,-4.35,1.65,-8.21,18.62,-1.9,2.54,-3.66,5.44,13.72,-14.87,-6.74,3.71,-8.79,14
-1.97,-1.23,20.38,-4.49,-8.06,-2.49,1.26,-7.12,18.46,14.84,0.83,-0.29,6.35,13.66,-13.29,16.36,3.81,5.18,14
-3.16,0.51,22.2,7.96,-5.57,-0.78,1.76,-6.69,19.03,3.32,0.29,0.15,5.38,11.58,-13.07,1.56,-3.86,-1.27,14
-1.46,0.91,21.4,-0.2,-3.37,-0.34,1.84,-6.89,19.65,2.25,2.64,-0.49,4.49,11.31,-13.14,-3.08,0.88,-0.59,14
-1.06,1.8,20.98,1.12,1.27,-0.88,2.03,-6.99,19.65,3.27,2.59,-0.29,4.36,11.94,-13.84,-7.81,8.54,-5.27,14
-0.12,1.3,21.46,-1.42,-0.83,0.39,2.43,-7.32,19.53,2.0,-2.05,-0.39,5.68,13.66,-12.82,-10.01,8.01,-3.81,14
-0.5,1.87,21.67,1.07,-2.69,1.03,2.65,-7.07,19.7,2.39,-6.79,1.42,5.3,11.44,-13.35,7.03,3.27,5.18,14
-1.14,1.79,20.48,6.74,-6.79,0.98,0.6,-6.53,19.06,-3.76,0.24,0.83,4.64,11.1,-13.36,1.12,2.98,5.52,14
-1.97,1.38,20.14,-1.17,-7.76,0.2,1.51,-7.41,19.3,-2.59,4.98,0.05,5.83,11.41,-13.11,10.99,-6.01,-0.24,14
-3.1,1.1,19.74,0.49,3.42,-0.1,1.48,-7.23,18.95,-3.13,3.71,1.81,7.0,13.07,-12.43,1.9,-6.2,-1.9,14
9.09,0.8,27.79,-121.24,-32.08,101.9,-5.07,-6.55,3.22,-174.41,-323.44,-19.04,6.99,17.74,-12.23,90.33,182.47,-79.49,15
-1.26,3.26,16.52,119.09,162.79,48.05,-19.44,32.07,0.19,270.31,308.59,-97.12,16.1,-5.98,-18.11,-458.84,-123.44,-166.16,15
-23.19,1.15,13.89,-102.64,-41.99,90.04,5.55,-15.87,11.62,109.62,125.24,17.04,-4.51,-1.73,-14.76,410.79,-91.46,146.78,15
4.23,-22.26,-0.98,-396.39,-402.29,-125.93,6.48,-8.95,15.05,-12.84,1.51,-38.67,-2.23,14.04,-11.32,-35.3,38.33,69.78,15
3.95,-17.93,21.89,13.09,74.56,-13.13,8.52,-12.44,17.51,-27.93,17.68,-44.24,-1.3,10.21,-8.74,-12.01,5.91,88.82,15
-2.87,0.84,20.08,42.48,24.32,-115.53,3.17,-9.62,14.76,3.95,62.4,-30.66,-0.88,16.36,-11.29,-32.13,32.18,42.68,15
3.82,-4.43,20.33,-46.63,-40.92,-49.51,6.02,-14.17,19.59,82.76,51.56,6.69,0.28,17.91,-11.64,33.01,10.69,29.64,15
4.19,-4.51,20.39,28.22,53.17,-75.98,3.57,-4.95,19.67,3.86,20.12,10.06,-0.41,10.04,-12.7,-19.34,15.14,9.13,15
2.53,-6.0,22.13,57.23,46.34,-31.69,1.58,-5.57,18.4,10.94,1.32,-3.08,1.68,14.02,-11.93,-13.57,14.01,2.34,15
-0.1,2.95,20.95,34.77,19.53,12.65,0.48,-5.63,17.85,12.6,0.59,4.35,3.3,14.95,-10.64,-6.2,5.86,-0.63,15
-0.55,3.11,19.68,15.53,-4.69,2.83,1.68,-6.38,18.6,12.01,5.37,4.59,4.57,17.53,-12.81,4.93,5.27,4.25,15
-0.47,1.17,20.04,7.86,9.08,1.03,0.92,-6.14,18.72,7.81,1.51,3.08,4.06,14.9,-11.46,-8.06,-0.05,0.63,15
1.38,2.06,22.78,10.45,-15.19,2.29,1.66,-6.96,19.53,-7.13,4.54,2.44,3.03,12.26,-11.56,0.93,-1.81,1.56,15
1.74,2.41,22.34,6.84,-10.69,-1.42,0.79,-7.77,18.35,-8.64,4.88,0.05,2.12,10.31,-11.11,-16.06,2.83,3.17,15
0.41,2.44,21.52,0.29,-0.83,-0.63,0.71,-5.82,18.97,-9.38,-1.32,4.25,2.69,12.79,-11.53,-9.47,0.44,-4.2,15
1.84,2.47,20.51,-6.54,-5.08,-0.29,1.5,-5.75,19.29,-0.2,1.71,2.69,2.76,13.82,-11.64,8.15,-9.13,-2.25,15
1.95,3.28,21.19,6.59,0.73,-1.56,3.38,-8.05,19.69,7.03,-0.93,-9.81,4.17,16.58,-11.88,10.64,0.15,2.83,15
1.12,1.99,20.72,6.45,-7.67,0.54,1.89,-9.08,19.56,0.05,-2.93,-1.51,2.12,11.69,-10.92,-6.35,-0.29,2.44,15
-0.27,0.98,22.65,6.84,-18.7,0.59,0.91,-8.87,19.27,1.32,-0.93,0.78,3.06,14.83,-12.74,-10.74,2.64,-3.61,15
-0.18,1.09,20.16,-8.69,12.01,0.98,1.8,-8.04,19.76,-1.17,4.74,2.69,4.3,15.99,-13.32,10.55,0.44,0.44,15
-2.02,-2.1,21.28,51.76,77.83,51.76,-9.49,-10.95,7.13,-5.22,150.0,90.67,-7.88,22.7,-19.58,423.73,-67.04,126.56,16
-13.36,2.06,16.67,37.89,68.36,29.39,0.95,-19.79,11.69,-202.15,-247.95,-13.96,-9.11,19.96,-9.45,-33.84,36.52,21.19,16
-15.68,4.29,13.73,-87.35,-139.21,74.07,39.05,36.61,41.65,373.88,-406.2,-319.58,-8.82,15.69,-10.21,22.17,18.36,41.89,16
0.1,-2.29,-1.03,213.09,271.88,108.69,20.2,-33.63,13.46,-130.18,-44.24,45.07,-5.56,16.05,-8.27,-17.38,35.06,50.68,16
2.27,-6.08,16.16,-10.3,-47.07,-50.78,6.12,-8.99,14.74,-11.47,-14.36,-7.42,0.28,16.65,-5.65,36.82,9.96,44.24,16
5.15,-5.12,19.27,-2.1,49.32,-11.91,7.26,-9.17,15.6,-56.88,58.94,-45.46,0.33,16.73,-6.25,18.75,6.79,28.71,16
-1.45,-7.78,20.96,-10.4,51.81,-46.97,2.19,-7.84,16.04,78.81,21.88,-54.2,-0.99,15.4,-8.07,19.78,2.34,2.1,16
3.53,-1.27,21.89,1.46,-39.55,-28.61,0.03,-11.66,19.19,19.92,27.39,-22.66,-0.02,16.65,-8.12,2.2,6.98,-0.44,16
-3.16,-4.47,23.72,5.37,13.92,-27.1,-2.12,-8.48,18.73,58.74,10.99,-17.43,-0.01,17.98,-9.14,10.79,5.13,-0.39,16
-0.86,1.36,23.34,28.27,-20.9,-0.98,-1.99,-3.76,20.5,40.53,-2.49,-11.87,0.82,17.78,-8.85,15.09,3.52,-0.44,16
-3.14,-0.27,24.37,18.02,-17.77,-2.2,0.08,-5.57,19.67,13.67,2.29,2.2,1.05,17.63,-9.31,10.79,4.35,2.98,16
-2.93,1.27,20.52,20.75,-9.33,5.32,0.93,-6.31,19.72,-10.25,-6.45,2.49,0.99,17.0,-9.11,9.23,0.05,-0.39,16
-2.65,0.52,21.25,9.13,-3.81,4.05,1.43,-4.93,19.6,-2.73,-0.2,0.44,0.56,15.17,-9.2,7.96,1.37,0.54,16
-1.58,1.24,21.26,-2.3,9.33,0.78,0.79,-5.41,19.76,7.96,2.83,-3.56,-0.31,14.77,-9.46,-7.86,3.52,-3.22,16
-1.21,2.2,21.58,4.05,4.64,1.86,0.97,-5.99,20.12,0.15,0.98,-0.54,0.49,15.93,-9.48,-5.32,2.05,-3.52,16
-0.95,2.48,21.79,2.1,2.73,1.17,0.91,-7.24,19.63,-0.44,-1.46,-0.49,0.93,17.55,-8.89,-2.2,2.0,-3.61,16
-0.35,2.08,21.64,5.08,-5.08,1.27,0.83,-6.5,19.66,-1.27,0.73,-0.1,1.28,18.42,-9.54,14.6,4.93,4.54,16
-0.43,1.55,21.43,2.1,-7.18,0.0,0.73,-6.29,20.29,-2.59,0.78,1.03,0.66,14.92,-8.14,-1.9,2.98,2.2,16
-0.57,0.71,21.13,-0.93,-4.98,-1.03,1.44,-5.94,20.68,-3.71,-1.22,2.39,0.61,14.73,-8.75,-16.11,1.46,-3.86,16
-0.95,1.24,20.84,-4.39,-1.66,-1.86,0.99,-6.57,20.32,0.15,-1.61,1.86,1.12,16.62,-9.3,-5.47,-0.24,-0.93,16
2.3,-2.83,20.46,0.34,3.13,3.37,8.61,-12.26,16.39,-41.02,36.18,-6.05,-4.47,23.04,-11.06,78.95,1.27,35.35,17
1.15,-3.0,19.27,35.89,27.73,-30.91,6.49,-12.79,15.9,38.43,57.57,-22.07,-8.19,8.98,-9.84,21.78,20.36,40.48,17
3.06,-0.78,18.85,46.0,29.39,-81.88,6.95,-12.53,16.7,-42.87,94.04,-16.41,10.92,-0.58,-38.86,343.55,-189.4,341.65,17
4.31,-2.95,19.32,15.14,36.87,-28.17,4.88,-9.08,20.18,-11.87,16.94,-26.22,-7.71,8.33,-16.15,-114.4,-11.13,-21.53,17
4.59,-4.49,24.77,-30.42,-14.06,18.12,7.34,-16.81,20.46,-65.82,-4.15,47.46,7.22,15.81,-15.54,101.22,114.01,-79.0,17
-1.11,-4.4,13.08,79.35,144.29,-5.91,-5.82,-4.63,19.8,166.85,86.23,20.02,8.92,-8.4,-30.32,-498.68,-75.24,-295.41,17
-3.51,-0.87,20.28,-91.65,-60.45,47.95,-15.08,-5.03,6.25,-113.87,-154.98,-3.86,-6.92,25.32,-29.11,522.61,-70.7,63.09,17
-13.21,-6.83,18.07,-132.37,-190.48,66.75,39.05,23.94,40.83,269.73,-331.01,-218.7,-11.13,10.82,-12.32,-25.63,12.79,17.68,17
-3.0,-5.04,28.67,29.93,94.19,-9.23,22.19,-20.13,9.19,-14.21,-27.25,41.46,-8.26,12.49,-8.37,-5.57,-12.4,74.66,17
4.84,-3.06,17.01,21.92,-10.55,-7.76,7.89,-8.3,14.88,-15.77,-7.13,-9.77,-2.95,18.99,-13.55,42.77,34.13,64.7,17
9.71,-9.96,19.84,-15.63,-23.88,-7.13,8.29,-10.33,13.43,-30.37,33.35,-14.7,2.06,16.57,-13.84,19.43,14.45,36.33,17
3.16,-4.28,18.36,-20.51,181.15,-54.98,11.23,-17.94,14.15,-18.9,68.85,-11.28,1.52,16.2,-13.58,13.92,29.79,29.74,17
-6.88,-8.94,19.95,38.92,116.8,-36.87,1.72,-13.75,15.58,3.95,40.33,-11.38,0.84,17.17,-15.28,35.3,2.44,16.85,17
-4.47,-3.53,19.95,42.38,-8.45,-15.38,1.48,-10.51,15.49,54.44,41.85,-17.04,1.35,12.12,-13.13,10.89,15.23,7.52,17
0.27,-0.52,22.04,27.78,-55.08,6.49,3.85,-9.74,18.8,9.47,24.76,-25.05,3.5,15.65,-13.69,-16.8,10.55,-6.35,17
0.75,-5.12,22.43,2.64,9.33,8.11,3.18,-7.92,18.13,54.59,14.06,8.98,3.39,15.34,-12.46,-7.23,1.61,-6.88,17
-3.35,3.22,21.42,28.47,-13.48,8.35,2.86,-9.68,20.88,0.88,0.24,4.15,2.98,15.14,-12.97,2.34,-0.1,0.73,17
-6.35,2.03,20.58,8.98,-10.64,-4.88,1.94,-12.74,20.0,-24.56,-4.69,-3.52,1.46,13.89,-11.72,22.9,-3.61,3.08,17
-2.78,-2.8,22.4,-10.3,15.14,-6.93,1.96,-8.58,19.31,-23.0,2.73,-4.79,4.12,15.21,-13.0,-13.33,-4.64,-11.87,17
-3.39,2.19,20.58,9.18,-1.12,-5.47,3.5,-6.9,19.5,5.18,-12.01,-1.07,2.53,17.14,-12.49,-0.44,2.83,-5.96,17
-1.06,-2.68,22.87,5.22,54.39,53.96,1.34,-9.41,19.07,-0.93,-3.27,8.3,11.97,23.53,-25.47,-3.56,-211.72,30.96,18
-4.39,1.3,20.65,-35.84,69.19,28.32,2.0,-8.65,19.36,-14.26,1.95,-0.15,1.24,9.37,-14.43,-65.19,-52.39,-71.29,18
-10.48,4.87,16.68,28.37,35.74,38.87,1.68,-7.39,18.78,1.81,1.46,-0.05,2.58,8.15,-11.46,16.02,-33.74,-28.08,18
-11.08,0.77,15.71,-35.11,-22.07,4.69,1.44,-9.14,18.98,15.82,0.68,0.68,0.8,7.98,-14.32,17.53,28.13,5.71,18
8.17,8.37,18.37,50.93,-244.43,-18.41,1.1,-8.34,18.82,1.37,-4.39,-2.88,21.88,-6.93,-28.5,-580.57,-501.22,-371.0,18
-11.39,4.46,16.78,-69.53,-37.26,-9.81,1.06,-8.23,18.56,5.03,-0.44,0.34,-12.4,-5.87,-13.47,270.65,-151.37,45.07,18
3.12,-0.31,20.75,51.61,-14.4,-18.95,0.84,-8.1,19.16,4.93,0.15,2.78,-10.13,22.18,-16.1,66.41,-20.8,26.27,18
-0.37,-5.54,22.32,-8.98,14.65,-21.63,0.19,-8.7,18.2,0.29,5.08,-0.34,-8.09,15.97,-11.7,7.37,10.11,25.63,18
4.6,-4.72,20.28,12.94,46.53,-9.18,0.57,-7.9,18.63,7.03,2.59,3.03,-10.4,15.6,-12.46,3.03,17.63,7.96,18
3.36,-5.77,20.96,34.18,55.37,-8.2,1.4,-8.71,19.24,-1.32,4.25,2.98,-10.13,13.62,-11.47,21.14,10.3,25.88,18
-2.73,-1.3,20.36,15.14,-3.61,-21.92,1.65,-10.21,19.4,4.78,0.2,5.18,-8.26,11.46,-11.01,-11.72,32.67,40.87,18
1.88,-0.6,20.66,-38.43,-31.45,-32.23,1.52,-8.61,19.58,3.71,1.37,2.49,-4.94,15.78,-13.35,-17.82,26.56,33.64,18
2.3,-4.34,20.6,-6.69,26.07,-29.54,1.56,-9.67,19.37,-5.81,0.2,-0.63,-3.47,14.09,-11.99,-10.4,29.05,41.65,18
1.66,-4.82,21.78,2.98,12.79,-27.78,0.91,-9.2,19.29,-0.54,0.88,-0.59,-1.41,15.09,-13.22,25.15,17.63,41.06,18
-0.18,-1.2,20.69,30.57,45.75,-14.11,1.66,-8.82,19.61,-1.51,2.69,-0.29,0.15,14.52,-13.47,-17.43,24.76,15.23,18
0.56,-3.62,22.89,-0.59,26.95,-25.05,1.61,-8.82,19.67,-0.93,2.59,-0.88,2.84,14.87,-14.4,23.68,-1.51,14.45,18
-0.07,0.34,20.37,15.28,13.72,-0.15,1.7,-9.07,19.52,1.95,2.25,-3.12,2.05,14.43,-12.51,-6.69,-1.66,-4.35,18
-1.0,0.18,22.58,10.06,-30.22,1.66,1.79,-8.47,19.27,-1.51,1.46,-0.88,2.52,16.29,-12.96,5.42,10.01,0.78,18
-3.95,0.27,20.16,10.16,8.79,1.27,2.25,-8.22,19.49,-6.15,2.15,-0.05,0.13,12.96,-13.75,-11.23,14.89,-5.42,18
-0.3,-1.76,21.08,-12.01,0.34,-5.08,2.21,-8.2,19.22,-2.15,3.37,-3.47,2.98,16.24,-11.5,-4.25,2.2,-4.64,18
5.18,-4.27,27.7,-32.57,-57.23,88.48,11.32,-18.78,19.15,-66.55,-38.62,47.95,9.11,14.28,-22.89,118.31,-198.0,133.64,19
-3.21,5.13,22.15,44.24,53.66,6.84,7.26,-8.06,18.28,-0.34,53.81,55.86,4.58,9.95,-12.32,-60.06,-78.66,-7.57,19
-3.52,-0.36,20.82,-24.61,97.61,7.67,-22.98,-11.55,12.11,-0.44,113.28,69.58,0.02,6.66,-11.43,-8.11,-18.99,-31.49,19
-15.07,1.47,15.82,6.88,2.98,73.34,-2.28,-23.3,8.21,-133.89,-244.14,-18.12,5.37,13.52,-11.83,83.69,107.32,-41.21,19
4.3,-33.28,21.84,-152.93,-238.92,126.07,-7.76,39.86,41.65,395.07,37.26,-484.28,25.85,-6.93,-35.89,-562.65,-469.53,8.98,19
1.96,5.96,20.13,43.16,11.13,10.74,14.73,-17.15,13.91,-34.52,-23.88,-15.19,-1.27,-6.27,-12.71,362.89,-138.13,157.18,19
-3.65,3.22,19.05,15.58,20.95,-62.11,6.79,-10.97,14.75,-52.88,-22.71,-30.27,-11.61,16.6,-11.58,-19.97,23.49,52.39,19
9.75,-3.81,20.39,-65.33,34.67,-45.46,14.95,-21.43,19.16,-125.05,31.45,-21.14,0.34,15.14,-10.49,120.31,-34.18,148.24,19
-1.35,-9.8,22.45,45.8,126.81,-58.89,6.0,-9.29,12.09,44.92,88.43,-24.02,1.7,20.23,-16.44,71.53,29.3,74.32,19
-2.84,-1.15,23.73,20.12,54.1,-16.36,2.07,-9.71,18.44,-1.95,10.45,-9.13,-2.52,7.1,-15.93,-0.63,23.78,79.79,19
-3.8,-5.52,18.76,87.11,14.79,-24.66,-0.7,-6.51,14.73,39.16,-25.44,-41.55,14.6,22.19,-19.22,162.99,-2.05,68.46,19
-5.54,5.85,22.37,40.38,8.5,-1.81,3.43,-5.12,18.61,13.92,-16.89,-2.15,4.1,8.63,-17.94,-31.88,13.28,-46.63,19
-7.2,1.74,23.47,14.65,6.35,-8.74,6.01,-6.67,21.26,4.25,-17.97,-9.67,8.58,13.99,-17.51,54.15,-4.2,-3.17,19
-6.85,1.55,21.03,9.57,-2.73,4.69,4.63,-9.36,20.42,12.79,-10.3,-3.91,5.47,8.34,-15.76,21.58,-8.15,-6.15,19
-5.88,7.66,21.59,7.03,-14.26,8.89,6.1,-6.03,20.52,0.29,-12.21,3.47,2.31,8.36,-17.59,-8.94,6.15,-6.35,19
-4.8,4.15,20.45,-7.18,-11.43,1.42,4.19,-8.18,19.13,-1.81,-7.03,0.68,4.3,7.75,-17.08,-12.84,10.94,-16.46,19
-2.92,7.52,20.82,-14.01,0.44,-2.0,5.17,-6.38,18.88,-21.14,-5.18,7.13,4.11,7.11,-14.57,-24.22,1.07,-8.45,19
-3.11,4.55,18.86,-9.42,3.37,1.27,3.67,-8.18,17.77,-4.69,-1.86,6.93,3.19,7.37,-15.3,-3.81,5.13,-10.21,19
-5.45,3.19,19.96,-1.37,2.2,0.24,4.45,-8.66,19.27,0.39,-1.9,-2.0,4.1,10.51,-15.39,8.3,-0.73,-1.17,19
-4.25,3.08,20.44,-2.98,-3.76,0.34,5.43,-7.85,19.4,-0.24,-3.47,-2.25,4.74,11.56,-16.47,8.79,-0.59,-0.68,19
0.2,2.79,21.04,-27.49,24.71,13.57,5.52,-9.38,19.73,-26.81,-0.49,36.23,7.46,7.03,-14.77,-8.15,-32.32,29.1,20
0.42,1.16,27.33,13.43,-24.32,32.71,3.15,-10.64,17.78,3.37,6.64,62.79,7.92,19.89,-24.02,72.75,-153.81,31.4,20
-1.43,-0.83,12.15,-18.26,91.06,46.83,13.26,-3.64,20.57,-68.07,108.25,84.52,1.01,10.24,-11.09,-73.39,-54.79,-54.54,20
-8.17,2.12,17.48,4.83,-17.29,68.46,-5.44,10.03,13.92,-2.44,-161.47,64.75,0.61,3.72,-13.52,-1.95,-6.74,-30.81,20
2.31,3.33,26.02,-57.72,-77.2,73.05,18.15,-36.61,41.2,104.2,-221.48,3.13,9.43,9.67,-20.34,39.31,128.66,-109.08,20
7.8,2.49,12.12,110.11,65.82,51.95,-10.86,-9.48,20.74,-178.47,-16.26,-45.12,8.6,-6.77,-36.96,-404.64,-115.28,-321.44,20
2.07,-10.5,18.67,-18.55,-3.12,-67.92,5.73,-7.99,12.69,-22.31,-7.18,-29.05,2.35,17.89,-19.14,410.55,-85.3,82.52,20
5.06,-5.3,19.48,-51.07,-60.69,-9.47,12.05,-12.36,15.27,-26.42,-12.26,-25.73,-7.73,18.74,-13.83,-11.04,21.04,26.42,20
9.2,-9.84,17.07,-1.71,2.73,-17.19,13.22,-16.93,13.53,15.87,46.24,-12.65,-6.89,15.44,-13.03,-5.13,7.71,11.08,20
5.03,-5.21,22.09,40.23,41.8,-65.67,4.57,-7.35,15.74,38.48,91.65,3.61,-7.6,9.48,-10.91,-10.6,40.33,40.43,20
5.5,-0.56,20.99,-13.09,48.63,-37.26,5.35,-6.06,17.8,-3.71,67.43,-27.78,-1.76,11.27,-12.06,51.27,1.9,70.07,20
4.26,-5.33,22.44,7.18,21.73,-22.36,6.79,-9.07,18.67,3.17,32.23,-7.52,-6.65,17.93,-16.57,-16.11,-25.39,19.73,20
0.73,-0.5,19.84,39.31,90.19,-60.94,4.38,-7.05,19.36,10.5,50.44,-16.75,-4.02,13.25,-11.99,-37.16,54.59,26.66,20
-4.64,-2.49,23.59,43.26,24.07,-37.26,-1.45,-9.65,21.86,58.64,9.18,-1.37,2.83,23.09,-12.96,24.12,14.75,14.11,20
-2.38,6.47,17.3,54.69,25.15,7.62,1.13,-8.12,19.04,-2.05,-4.0,-7.96,2.3,15.64,-11.38,-1.12,12.55,2.34,20
-2.66,3.54,20.39,10.45,-5.22,-0.59,4.09,-1.66,23.65,19.92,-11.28,-4.3,3.78,15.56,-10.47,15.62,2.69,7.81,20
-5.27,6.66,17.85,2.54,-0.44,1.71,3.58,-5.18,21.42,-5.71,-6.4,-3.08,2.93,16.53,-9.39,-23.0,-3.32,-2.98,20
-5.13,1.92,19.28,-3.52,14.06,-3.12,1.92,-5.36,21.24,3.76,-8.89,1.42,1.53,15.3,-9.07,2.78,5.52,-3.27,20
-5.22,1.21,22.02,-8.69,-4.39,-2.59,4.88,-4.81,21.95,10.74,-14.26,7.32,0.89,13.53,-10.86,-8.35,5.81,3.17,20
-3.34,3.43,21.34,-1.27,-3.71,2.15,2.38,-3.36,20.41,5.71,-2.98,0.34,0.95,14.28,-10.43,-9.13,-1.86,-6.3,20
-5.49,-2.4,19.17,5.81,51.07,-4.79,1.08,-6.41,21.22,48.44,-2.39,7.86,8.22,6.91,-10.12,-100.05,-14.45,-7.96,21
0.98,-0.82,24.25,7.28,21.73,64.4,3.08,-11.61,20.23,-20.65,-3.61,21.24,10.65,14.79,-15.0,97.75,92.33,-96.44,21
-12.31,13.01,21.94,125.83,21.04,39.45,1.3,-11.33,21.75,-48.29,-16.75,48.05,10.78,-8.33,-35.4,-437.26,-106.93,-158.11,21
-9.13,3.12,22.55,-25.59,60.16,29.88,-1.85,-4.99,23.29,79.1,91.5,54.93,-5.86,21.94,-16.91,410.4,-112.06,-13.28,21
-9.41,-5.17,16.32,-290.77,-225.63,12.11,-10.42,-2.94,10.69,-68.02,-45.65,31.79,-11.93,17.0,-11.15,-36.23,5.27,-9.13,21
-7.56,11.79,17.97,50.73,117.43,-64.06,5.91,-10.06,-2.14,65.28,-305.52,-44.73,-10.36,15.21,-11.3,8.15,14.01,12.84,21
1.56,-7.64,18.74,68.55,66.31,-45.56,-14.07,-4.4,21.42,-225.98,-24.8,24.9,-9.66,7.11,-7.22,-23.97,20.46,133.98,21
5.51,-10.03,20.62,-12.84,13.57,-3.32,3.37,-12.69,15.3,15.97,-12.99,-38.87,-5.33,13.43,-11.23,-18.31,39.79,53.91,21
2.39,-7.35,22.79,-6.2,63.13,-27.73,7.05,-13.19,15.61,-3.61,-3.91,-0.24,-0.88,16.21,-9.21,-45.8,25.49,7.91,21
-4.1,-3.97,16.5,0.1,120.12,-96.14,3.5,-12.59,13.4,-36.38,71.92,6.98,-3.09,14.8,-8.51,-58.64,37.7,24.17,21
-1.44,-5.16,21.64,-9.23,22.56,-38.67,6.62,-10.59,12.13,1.12,102.15,-46.44,-2.51,15.24,-8.14,-13.72,13.38,20.07,21
-5.56,-8.69,20.24,24.95,-3.17,-20.41,4.14,-12.76,15.17,-43.99,42.33,-29.79,0.27,17.97,-7.67,-19.43,7.86,6.45,21
-6.71,-5.38,19.94,74.27,-11.77,-6.15,0.94,-16.86,15.51,9.18,45.07,-17.19,1.78,18.27,-5.93,-0.2,-8.89,5.42,21
-5.79,-1.43,22.46,26.71,5.52,-7.96,1.58,-10.67,17.38,50.93,54.93,-39.55,1.62,19.42,-7.3,-6.69,8.2,-0.68,21
-4.41,3.12,21.63,26.27,-7.28,0.0,-0.54,-9.61,19.0,27.54,-0.98,3.03,1.35,17.58,-5.94,-42.43,7.62,-17.19,21
-2.54,2.26,21.21,28.17,-3.66,7.08,3.56,-9.67,20.98,24.32,-1.71,-6.25,0.63,18.02,-3.89,-7.91,1.95,0.15,21
-2.14,2.41,21.96,8.89,-12.65,0.1,5.63,-7.71,21.26,24.37,-14.31,0.73,0.86,19.2,-4.6,-18.75,1.42,-8.35,21
-2.29,1.97,22.6,4.49,3.76,1.27,2.81,-4.48,19.62,25.88,-8.64,1.03,-0.02,16.11,-2.27,-9.38,-1.22,-4.64,21
-2.41,0.55,21.75,6.59,-3.17,1.51,0.18,-4.53,19.92,-2.39,9.13,-5.96,0.34,18.03,-3.15,-2.59,-0.68,-2.15,21
-2.94,1.46,21.56,-11.67,-15.14,3.13,3.64,-5.37,20.79,3.03,0.2,-0.68,-0.07,17.68,-2.23,-11.43,-1.17,-4.93,21
-13.11,10.35,12.84,-56.01,-128.42,58.4,1.1,-16.27,12.45,-90.72,83.35,6.69,-42.35,-41.9,30.19,-532.72,206.49,30.91,22
9.97,-6.95,28.85,68.65,14.65,8.94,5.5,-15.06,13.25,143.95,120.7,-17.72,-11.14,37.8,-18.49,253.32,36.47,86.96,22
-4.18,-6.54,17.35,37.3,68.21,-32.03,0.3,-8.96,20.27,5.76,34.67,0.49,-13.98,8.12,-9.6,-43.6,51.32,52.0,22
15.4,-7.78,20.31,-12.55,-12.7,-18.07,-0.87,-11.33,18.74,47.27,27.34,3.86,-0.85,18.99,-14.27,34.28,45.9,53.76,22
0.54,-9.05,15.68,25.0,229.35,-68.7,-1.42,-10.86,19.81,-10.84,-8.98,8.84,-9.25,13.66,-14.12,-161.38,33.11,-61.28,22
0.38,1.83,24.87,74.8,-48.97,7.96,1.1,-11.46,19.46,-13.33,0.59,2.78,-7.75,12.49,-8.45,98.24,-24.41,35.4,22
6.24,-9.18,23.66,-5.03,19.58,26.42,0.26,-9.44,19.09,-10.06,-1.37,4.15,-11.85,15.72,-13.65,-20.65,-13.96,-42.33,22
-2.0,3.89,19.3,25.78,9.47,24.27,-0.74,-8.37,18.72,-4.3,-3.08,-1.46,-8.94,11.4,-6.74,-20.8,-11.82,-22.31,22
-2.52,0.26,22.0,-1.61,-12.5,6.98,-1.23,-8.82,19.19,-2.34,-2.78,0.49,-9.09,15.24,-7.28,-9.38,0.34,-10.06,22
-2.42,-0.87,21.38,12.94,-1.07,6.05,-0.45,-9.38,18.58,-3.27,-1.81,-0.49,-10.11,15.58,-7.35,-2.73,-2.98,2.2,22
-1.55,-1.42,20.82,12.4,-0.54,3.56,-0.39,-10.41,19.14,-3.66,0.1,-0.1,-11.25,17.16,-9.29,7.03,1.66,0.73,22
-1.36,-1.22,22.1,-1.86,-5.91,-3.08,-0.3,-11.01,18.67,-6.35,1.12,-1.71,-10.78,15.59,-8.44,4.0,1.46,-0.63,22
-3.55,-0.97,21.54,-7.67,-7.62,-1.42,-1.53,-10.59,18.06,-6.35,0.59,-0.68,-10.5,14.71,-8.15,-3.42,2.39,0.78,22
-3.48,-0.11,21.05,1.12,-1.37,1.66,-0.46,-10.44,18.65,3.56,1.81,-0.68,-10.36,14.9,-9.0,8.35,3.91,2.1,22
-1.92,-1.78,21.45,6.01,5.47,-0.54,-0.99,-11.37,18.59,1.86,4.64,1.42,-10.45,15.1,-8.31,9.81,1.95,-0.39,22
-2.8,-1.3,21.69,-16.8,-16.31,-1.12,-0.38,-10.28,18.26,3.86,1.95,-0.24,-10.39,15.75,-8.59,-4.98,2.78,0.98,22
-4.22,0.02,20.7,-5.37,-13.04,-1.17,-0.91,-11.36,18.73,1.37,0.93,0.39,-9.84,16.13,-8.86,7.47,5.62,-0.59,22
-1.87,-2.53,21.06,8.89,9.42,-1.51,-0.29,-11.47,19.05,-4.59,0.63,2.88,-9.4,15.96,-8.49,11.47,0.1,1.56,22
-3.2,-1.94,22.17,-4.88,-5.91,-1.61,-0.49,-10.06,18.3,-0.24,-0.2,1.46,-10.88,14.16,-8.27,-5.42,3.03,-3.91,22
-2.03,-1.08,20.62,6.59,5.57,4.05,-0.23,-10.6,18.39,1.9,0.0,0.78,-10.58,13.93,-8.26,-5.37,0.68,-8.69,22
-2.54,-7.03,17.42,22.95,59.67,3.27,1.08,-13.42,13.73,-0.39,44.14,27.83,10.49,20.29,-19.65,-29.05,-20.41,-0.68,23
-2.88,-1.56,23.4,-61.47,28.91,11.72,1.5,-19.77,18.9,-84.08,53.56,37.5,-1.83,10.14,-13.37,-30.32,-18.02,-18.46,23
-14.83,0.2,16.86,4.15,12.11,7.81,-13.17,-5.29,12.62,-33.4,-49.27,5.71,-2.41,11.01,-13.34,28.22,25.39,-10.84,23
-11.69,-2.07,17.89,-83.4,-112.26,73.58,0.84,-18.79,8.27,-109.67,-221.53,-18.12,14.82,28.54,2.89,-39.75,115.33,-170.9,23
10.42,-17.11,-18.66,-148.1,-279.59,116.06,-7.55,1.26,14.41,359.96,263.48,-36.43,-37.71,-41.9,-11.99,-711.67,177.73,-47.66,23
4.0,-7.55,16.58,-4.83,22.12,-42.77,-1.5,-9.66,14.23,15.67,90.92,-12.55,-13.15,39.88,-20.01,198.68,19.92,51.61,23
9.92,-7.28,19.03,-41.89,-89.01,-14.11,11.2,-8.52,12.78,-35.45,-20.41,-13.77,-17.53,8.54,-5.68,-23.68,27.93,31.49,23
4.06,-5.59,18.04,22.41,129.15,-42.87,3.48,-17.71,15.78,-0.34,38.38,0.15,-13.41,11.04,-8.4,-16.11,14.16,34.38,23
6.23,-7.27,21.1,36.77,28.86,-7.08,3.19,-13.79,16.7,43.65,36.13,7.13,-13.16,15.79,-10.47,-6.15,1.37,8.74,23
0.03,-2.76,19.78,24.46,90.92,-1.03,1.21,-11.77,18.19,17.33,29.79,6.2,-10.0,15.14,-9.88,14.01,26.51,10.69,23
-0.65,-1.41,20.94,11.23,47.31,3.61,-0.36,-10.95,17.27,6.69,6.84,-1.66,-10.33,18.08,-14.24,48.0,16.5,13.87,23
-10.64,2.25,20.57,34.13,7.03,16.99,2.91,-11.67,19.18,-13.77,-5.91,-2.25,-7.97,14.83,-12.2,27.1,12.4,8.45,23
-8.92,-0.37,19.79,-1.07,-23.54,6.98,1.82,-11.39,18.39,8.35,5.57,-3.27,-8.38,11.97,-10.22,-7.13,4.49,10.69,23
-3.9,-1.89,21.17,-15.63,4.3,-5.52,1.15,-12.35,18.32,-0.05,-1.66,0.05,-8.52,13.49,-11.32,-8.74,-5.66,1.51,23
-0.17,-0.29,21.07,-16.5,-5.42,-6.35,1.07,-10.61,18.05,-3.37,2.29,0.73,-8.07,14.0,-11.61,8.15,-2.98,-1.37,23
-2.66,1.31,22.57,1.03,-25.15,1.9,0.26,-10.88,18.95,12.35,5.96,1.61,-8.66,13.89,-12.19,-1.61,-3.27,-0.98,23
-4.76,-2.08,20.63,17.53,-11.87,6.84,-0.9,-10.43,18.6,10.06,7.62,1.07,-8.06,13.58,-12.1,-1.03,7.91,-2.05,23
-4.54,-1.38,21.11,-8.89,2.0,-3.32,-1.8,-9.97,18.41,5.91,8.5,-0.88,-8.37,15.42,-11.41,-9.03,-1.46,-4.49,23
-3.63,-1.37,21.2,-14.26,5.32,-6.25,-0.67,-12.6,18.63,-8.98,2.15,-0.39,-8.41,13.53,-10.93,-1.66,-2.59,-0.29,23
-4.21,0.05,20.37,-2.15,3.03,-3.42,-0.41,-9.79,18.24,-20.31,-10.4,-7.96,-7.13,14.81,-11.64,-1.07,-3.08,-0.49,23
1.14,-0.9,19.49,6.69,-60.55,-26.17,16.69,-27.38,28.95,-81.15,-300.49,15.33,5.12,25.11,-15.02,-59.23,144.53,-168.26,24
7.81,-9.14,20.89,-18.95,-14.94,-2.1,-1.19,-15.11,17.85,-102.78,-17.09,-2.05,-5.92,-13.9,-32.9,-443.95,-72.66,-79.44,24
4.9,-6.47,19.3,13.96,17.14,-2.69,-3.19,-9.79,13.9,5.86,33.2,-34.23,-12.09,27.8,-17.06,307.62,3.86,32.62,24
1.21,-6.12,15.23,87.26,175.63,-70.41,8.79,-13.06,13.59,-34.08,7.57,-5.37,-13.94,10.28,-9.11,-39.26,22.56,5.37,24
1.84,-2.36,19.69,-31.35,61.13,-62.65,7.35,-13.05,14.59,-0.39,13.87,9.62,-13.41,9.27,-10.77,-8.84,-1.95,-8.64,24
0.64,-0.27,23.22,23.73,10.84,12.74,6.93,-14.24,9.83,-8.89,113.04,10.06,-10.58,8.81,-8.7,5.86,12.26,26.95,24
-3.85,-1.63,21.18,6.4,-26.61,9.38,4.58,-8.85,14.66,32.62,67.77,-27.59,-7.42,17.78,-15.15,-46.83,5.76,24.85,24
-4.56,-1.29,21.41,2.1,-9.08,-0.29,0.5,-15.01,20.98,-29.79,-11.33,-17.09,-6.83,20.91,-11.45,-35.5,-56.25,25.68,24
-3.52,-1.47,21.36,-0.1,-10.64,-1.46,-0.18,-11.91,18.15,28.86,1.95,4.0,-8.66,16.44,-7.2,-2.59,0.05,6.74,24
-1.81,-0.0,21.34,17.04,7.08,5.22,-2.18,-9.67,18.12,15.09,3.52,-4.25,-8.72,16.95,-8.59,31.05,-2.2,4.74,24
-1.88,-0.48,21.23,16.85,10.45,5.62,-1.44,-11.3,18.72,3.42,-3.81,-4.64,-8.86,16.68,-8.21,11.28,8.5,4.59,24
-1.98,0.39,21.8,-2.59,-10.4,1.81,-1.12,-10.28,19.22,12.5,-8.45,2.93,-8.15,16.92,-9.72,7.57,5.18,-1.56,24
-4.35,-0.46,20.06,8.25,-18.6,0.63,-0.77,-9.25,19.05,-6.1,-3.37,-3.86,-9.12,15.44,-9.78,7.18,4.25,4.74,24
-2.65,0.76,21.12,2.98,-3.12,0.0,-0.64,-9.91,19.03,-5.27,-3.71,0.0,-7.43,14.26,-9.81,0.39,20.17,6.69,24
-2.31,-0.61,21.8,-4.15,-6.98,-0.49,-1.73,-10.99,18.45,-6.54,-1.17,-5.32,-8.08,14.27,-12.34,48.05,29.3,40.48,24
-3.96,0.49,20.65,5.96,4.44,-2.98,-1.1,-8.69,19.0,5.18,-3.56,-1.9,-3.91,14.95,-13.11,18.6,-20.95,46.58,24
-2.93,0.59,21.61,-9.77,1.07,-5.71,-0.83,-9.36,19.34,-4.1,-0.44,-1.27,-5.58,13.93,-12.34,-33.69,-10.45,-9.23,24
-2.75,0.34,21.0,-0.49,-4.93,1.76,-1.0,-8.36,18.63,6.4,-1.07,-1.17,-4.56,14.71,-10.23,-11.87,-10.89,-10.25,24
-2.33,1.03,21.62,8.01,0.05,5.27,-1.45,-10.27,19.58,-12.94,2.93,-6.05,-5.31,16.57,-11.13,8.54,-12.74,4.49,24
-2.33,0.68,21.2,1.9,-2.0,1.07,-0.96,-9.96,18.64,2.39,-1.66,-2.29,-6.51,14.75,-10.03,0.44,0.88,1.32,24
2.16,-1.35,16.18,15.77,84.33,27.49,-9.05,-11.84,15.67,-35.74,14.16,29.2,-0.86,8.02,-14.44,-70.9,-26.22,-31.3,25
-3.6,-2.39,16.98,3.22,25.44,-33.79,-1.13,-15.71,13.03,-98.93,-133.5,-12.11,-5.88,8.95,-14.38,47.41,41.11,-34.13,25
10.01,-10.73,24.0,-11.33,13.82,-19.87,35.68,-41.9,-40.41,38.87,-257.67,-396.29,27.72,-1.12,25.74,-98.83,157.52,-236.08,25
9.08,-6.34,18.03,10.74,3.27,-6.4,8.04,-21.18,20.11,-70.31,-46.24,39.99,-41.34,-41.9,-3.15,-568.12,414.94,66.11,25
6.06,-0.69,18.32,11.18,68.26,-51.03,-2.8,-10.52,14.61,-15.92,-16.5,-43.02,-10.99,39.88,-28.02,357.32,11.91,2.25,25
11.24,-5.69,21.15,20.02,-4.39,-5.91,4.3,-16.7,17.32,-7.47,2.83,-9.28,-19.35,10.31,-11.11,-4.54,26.9,24.22,25
6.08,-2.44,19.88,41.94,81.15,-2.98,8.02,-8.7,16.2,8.15,28.66,-0.2,-15.0,4.95,-9.4,29.35,14.36,31.25,25
-1.62,-0.79,20.02,39.55,61.52,-10.79,2.69,-11.88,13.92,28.08,58.89,-5.96,-7.74,14.24,-11.75,-41.06,10.06,32.57,25
-0.64,-1.1,21.86,-1.71,37.65,-18.21,7.57,-14.13,18.07,11.57,14.4,-1.46,-8.97,14.74,-12.29,36.96,14.21,22.41,25
-5.2,3.49,21.97,6.79,-7.32,0.63,3.71,-11.0,17.71,39.6,45.61,13.92,-7.25,14.94,-13.56,17.58,9.72,4.59,25
-5.06,3.01,21.24,9.33,-11.82,4.2,0.43,-8.62,18.46,47.95,52.83,-7.28,-8.05,11.8,-12.06,27.98,3.37,44.04,25
-5.09,2.0,19.96,3.56,-16.36,2.88,-3.83,-8.16,18.62,18.07,50.83,-14.31,-4.53,12.92,-16.31,73.05,4.15,72.07,25
-4.85,2.45,20.68,7.47,-3.47,3.17,-0.73,-8.48,20.74,-7.52,-1.17,-2.98,-1.9,13.64,-16.68,15.19,13.23,28.66,25
-5.46,1.4,21.09,3.12,-5.37,3.08,0.09,-9.92,21.06,2.15,-10.45,6.3,-1.09,13.39,-16.26,14.84,-4.3,-1.61,25
-1.31,1.6,20.19,8.3,36.47,-8.94,-0.13,-9.09,20.43,-1.61,7.47,-3.66,-1.79,8.81,-14.89,4.1,13.87,10.25,25
-0.83,2.83,20.46,14.31,-3.27,-0.34,-1.71,-8.25,20.66,-2.0,0.59,0.1,-1.62,11.11,-16.48,8.25,-7.28,13.23,25
-1.34,1.44,21.29,-7.76,-21.09,-0.05,-1.92,-8.17,20.18,-3.66,4.49,-3.42,-0.77,9.81,-16.27,-4.49,0.05,2.69,25
-2.68,2.3,20.51,2.1,9.67,-0.59,-1.57,-6.47,20.09,-8.59,-5.57,-2.29,2.18,12.97,-17.8,2.05,-8.3,-0.68,25
0.3,2.26,22.21,-9.38,-40.23,7.76,-2.99,-3.92,18.8,19.38,-9.08,-1.56,-0.84,14.68,-19.0,19.78,-8.54,0.88,25
-2.11,3.14,22.23,1.61,-7.71,4.35,-2.11,-8.26,19.87,3.71,2.44,-3.71,-0.51,9.25,-16.62,-1.03,-3.66,0.24,25
-14.01,-3.95,15.48,-88.33,-104.25,87.5,11.06,-10.04,12.49,-6.35,-43.36,-21.29,-42.24,39.88,-40.43,325.98,51.61,-587.74,26
26.82,-18.27,20.15,-32.52,-218.55,201.12,10.01,-18.82,11.75,-65.92,65.63,4.59,-42.35,-41.9,23.7,-355.66,140.53,48.73,26
12.14,-9.34,14.7,-5.47,-6.2,-38.23,6.03,-10.29,14.28,46.63,28.03,-1.51,-13.41,20.4,-14.02,42.92,45.07,75.39,26
15.44,-7.32,16.08,-36.04,-106.84,2.98,8.0,-14.48,16.58,-14.45,23.19,9.23,-16.02,11.02,-9.65,-30.42,24.37,34.62,26
10.67,-10.72,15.54,-26.42,17.04,-23.14,4.98,-9.55,17.06,53.08,67.97,4.0,-8.97,12.44,-11.68,3.37,16.16,21.39,26
8.3,-2.82,17.86,33.54,25.54,-15.38,2.75,-3.17,18.65,107.37,57.91,-22.71,-9.29,13.49,-13.11,26.51,18.16,17.38,26
10.83,-5.32,20.22,13.77,81.3,9.86,-0.8,-10.49,21.46,31.3,23.29,-0.83,-3.58,11.42,-12.03,85.2,-7.76,100.59,26
0.02,2.63,18.17,83.35,81.05,-24.32,-2.77,-8.52,20.11,-25.44,12.84,-3.32,3.06,17.87,-23.31,153.61,26.61,81.64,26
-7.04,1.45,20.48,45.56,87.55,-39.31,-0.14,-7.0,20.28,-13.77,-6.25,-5.03,-3.8,8.29,-19.82,-14.01,2.44,19.68,26
-1.12,2.69,21.28,11.38,42.14,-25.73,-0.36,-7.08,20.78,-6.98,-6.49,3.13,-1.31,6.72,-16.12,-27.25,9.23,-6.45,26
-3.41,0.97,20.26,12.4,16.26,-7.08,-1.07,-6.4,20.37,-4.83,-5.42,2.2,-0.24,9.93,-15.09,-10.64,4.93,-0.44,26
-1.09,0.45,21.7,-14.26,-20.31,-1.61,-1.94,-4.46,19.66,13.57,-2.78,-0.29,1.92,11.61,-17.14,0.1,2.59,-6.54,26
-5.2,0.12,22.12,-3.91,-18.02,3.66,-1.95,-7.3,19.67,-7.03,-1.12,-0.2,1.34,10.35,-16.46,-10.69,11.23,-1.46,26
1.89,0.66,21.43,-11.96,-12.4,7.62,-1.71,-6.82,19.58,-5.76,3.13,3.17,0.73,12.15,-16.0,-3.61,-13.87,-3.12,26
-2.99,1.81,19.94,-13.72,-21.92,6.15,-1.75,-5.59,18.81,13.57,5.81,1.12,0.47,11.57,-15.58,0.05,-6.69,-0.05,26
-5.14,-0.07,20.89,3.47,3.86,0.78,-1.74,-8.08,19.99,3.56,0.78,-0.93,0.48,11.69,-15.43,6.15,-5.71,-0.78,26
-1.56,0.34,20.65,-1.71,7.71,1.07,-1.63,-7.51,19.82,-0.78,1.51,-3.27,-0.34,9.84,-15.06,7.08,-10.89,4.3,26
-2.61,0.18,22.9,1.86,-9.03,2.39,-0.63,-6.7,20.2,-1.56,2.93,1.86,-2.37,11.7,-16.47,3.37,-0.83,-4.25,26
-3.16,1.45,21.11,3.91,-2.39,0.2,-1.0,-7.14,19.96,4.25,0.29,1.76,-1.0,11.76,-16.19,2.93,1.32,-6.98,26
-1.09,0.35,21.42,-5.32,4.35,-0.54,-1.24,-6.44,20.05,9.08,-3.27,-1.27,1.11,12.82,-16.14,-0.78,2.88,-2.29,26
2.51,2.81,23.24,-1.56,26.46,21.48,-6.71,-8.79,14.46,-141.02,-71.0,23.05,-0.14,8.87,-12.91,-56.64,-36.13,-25.34,27
-7.2,3.07,19.43,35.84,90.38,24.71,-1.67,-6.41,15.01,13.23,-209.37,-20.41,-6.34,9.51,-13.61,31.05,26.71,-44.58,27
-9.3,1.61,15.62,-41.6,33.89,30.03,-19.08,13.5,18.99,-83.3,-30.81,-52.93,8.59,22.28,-14.95,78.22,77.49,-86.52,27
12.32,-14.85,5.37,-98.44,-191.94,-70.75,-4.72,-5.65,14.44,34.91,56.64,-50.29,15.38,-18.33,-26.22,-525.63,-98.24,-64.06,27
-0.55,-2.59,23.05,-62.26,-36.38,-34.81,9.28,-12.73,14.41,-93.21,90.77,-32.08,3.32,4.81,-17.88,395.61,-61.33,131.49,27
-2.0,0.32,18.29,-6.4,0.29,-69.97,8.65,-22.18,12.1,127.1,178.37,-7.76,-9.73,15.92,-12.63,-50.24,30.96,51.66,27
13.86,-6.12,17.68,-107.81,57.28,-50.15,-3.52,-8.59,21.15,38.57,-12.84,7.13,2.54,15.58,-9.74,56.54,-25.98,107.47,27
-0.91,-8.06,19.46,61.82,196.39,-77.49,-2.23,-6.99,20.46,8.15,-8.3,8.54,-5.11,18.96,-17.84,70.26,50.88,15.77,27
-4.39,1.45,21.02,60.89,37.01,15.58,-1.94,-10.47,19.71,-13.62,-14.36,16.85,-0.48,13.96,-15.61,2.2,6.15,4.74,27
-1.69,-0.27,21.51,-2.15,-1.86,11.33,-1.72,-6.92,20.18,-0.34,-6.93,-1.03,1.23,14.76,-15.05,35.6,11.33,-15.97,27
-0.51,1.59,20.8,-6.01,-22.66,28.27,-0.66,-7.76,20.5,6.05,0.98,0.44,-2.72,13.05,-16.16,-8.4,20.41,-19.04,27
-3.68,2.25,21.88,-21.09,-67.53,10.25,-1.56,-7.79,19.94,-5.03,-3.17,-2.49,-1.79,11.65,-15.2,7.28,11.96,0.05,27
-5.64,2.19,23.56,14.6,15.33,-3.22,-1.43,-7.81,20.18,2.59,-0.73,1.51,-1.61,13.3,-15.77,1.61,7.28,0.49,27
-5.74,1.11,20.78,1.9,4.3,-4.1,-1.57,-6.97,20.12,-7.03,3.56,3.66,-0.64,11.28,-14.46,-0.49,-2.05,-0.29,27
-4.02,1.85,21.46,19.09,14.31,2.1,-2.09,-6.0,19.38,14.01,-2.98,2.93,-0.09,14.17,-15.83,-5.18,-2.05,-8.25,27
-1.74,0.64,20.76,-1.56,5.03,2.69,-0.64,-7.26,19.83,-5.76,0.34,-0.29,-0.04,14.38,-14.86,13.67,-8.01,0.29,27
-2.05,0.66,22.85,-13.33,-19.38,2.49,-1.96,-8.86,20.37,-7.86,4.1,4.54,0.17,14.83,-14.24,-3.96,-0.88,-1.42,27
-4.14,1.19,21.43,0.59,-15.23,3.61,-0.84,-6.84,19.88,-4.69,-7.42,-6.54,-2.27,9.16,-14.31,-12.21,11.28,-2.73,27
1.57,0.13,20.18,-6.59,10.94,1.95,-1.81,-7.14,19.98,-3.17,-2.69,2.39,-1.19,13.44,-14.37,0.24,-5.22,1.07,27
-0.24,0.66,23.39,-10.45,-37.11,4.35,-2.43,-7.26,19.86,18.31,8.25,5.86,-0.29,14.58,-15.11,9.08,1.27,3.52,27
-5.88,-0.95,20.13,-15.09,39.01,21.48,-14.24,-10.67,13.61,-17.58,16.7,21.09,-1.36,9.37,-16.68,-37.35,-62.45,-29.49,28
-16.05,5.76,19.25,-54.39,-7.96,40.43,-12.32,-19.98,5.82,-91.75,-229.54,-25.54,8.97,5.83,-10.86,42.19,76.46,0.24,28
39.07,-41.9,41.65,-384.28,-559.62,-295.61,39.05,-23.74,-37.53,-216.06,-350.59,-93.26,28.53,-6.96,-40.43,-437.74,-549.76,-343.21,28
6.06,-17.7,14.03,-88.97,-110.79,-8.15,28.15,-11.26,12.82,48.88,-24.51,28.13,-0.89,-7.48,-7.69,233.59,-123.24,114.06,28
3.75,0.53,18.64,-7.67,-67.87,-12.84,10.66,-6.34,13.84,11.43,-63.96,-31.3,-10.13,19.56,-15.65,18.16,0.05,13.33,28
9.8,-10.06,20.0,-33.11,-10.35,-12.45,10.67,-15.58,14.42,-74.07,17.68,-10.4,-11.49,13.97,-12.12,21.53,1.81,27.78,28
5.15,-6.28,17.36,35.3,142.38,-37.3,3.54,-12.45,16.66,33.84,83.84,17.43,-7.92,14.58,-11.6,7.67,0.49,41.99,28
1.51,-0.84,20.96,48.78,86.28,-53.37,-1.13,-8.09,17.81,49.8,86.52,-4.0,-8.83,11.86,-11.92,14.79,17.92,38.09,28
-3.92,0.56,22.57,57.86,93.16,-2.49,-0.96,-3.41,20.17,17.68,10.55,-4.88,-4.3,16.27,-16.99,47.07,9.86,46.34,28
-2.86,2.83,20.6,-22.51,-38.09,-0.44,1.21,-7.34,20.89,6.59,-8.5,-8.15,-5.85,14.75,-14.64,-7.03,10.21,8.89,28
-2.98,6.34,19.84,24.37,-31.93,-14.6,-0.54,-3.36,18.79,39.89,-10.74,-23.34,-3.37,16.38,-12.59,-22.51,19.73,22.9,28
-2.75,3.17,21.27,23.44,-35.45,-15.09,-0.76,-5.47,19.09,53.81,-1.56,-23.73,-0.91,17.15,-11.06,6.84,16.94,34.96,28
-2.94,2.78,22.22,-3.17,-12.74,-8.59,0.69,-5.63,21.51,4.54,-8.64,-10.11,-0.71,16.93,-13.38,19.58,-11.77,14.4,28
-4.76,2.87,20.1,0.88,-3.66,-2.83,-0.24,-5.87,21.38,0.05,1.37,-4.54,-0.51,13.89,-11.14,-10.16,-0.63,0.73,28
-3.42,3.69,21.14,1.37,9.38,-6.3,0.27,-5.83,20.99,-4.44,9.23,-2.83,-1.02,13.21,-11.49,-8.2,19.14,-6.1,28
-4.12,4.09,19.35,6.25,-6.3,1.76,-0.87,-5.6,19.86,8.01,-0.83,-1.37,-0.41,15.6,-10.26,-13.09,10.01,5.86,28
-2.35,2.75,21.57,-0.15,6.2,-0.05,-0.39,-5.11,20.88,-8.5,-5.42,0.05,0.06,16.11,-10.57,-18.65,-5.22,0.73,28
-4.84,5.87,18.5,31.45,-49.66,8.89,-0.92,-1.4,18.71,18.9,1.76,-4.49,-0.84,13.89,-9.56,-0.44,11.72,2.83,28
2.2,0.29,21.58,2.54,81.1,1.12,0.72,-4.68,20.51,-35.64,-6.25,-8.01,1.06,16.21,-10.89,10.89,5.62,10.11,28
1.95,0.75,21.26,-5.37,25.49,0.78,-1.08,-5.37,20.24,0.39,6.84,6.84,0.71,15.19,-11.86,16.21,-8.5,11.08,28
0.64,0.59,20.64,20.65,69.38,-1.61,3.22,-11.36,17.89,-26.56,32.86,27.64,1.37,13.96,-19.69,85.94,-102.98,125.44,29
-4.66,-0.14,20.77,-26.56,98.29,29.64,-1.48,-12.57,12.73,-67.38,132.32,61.67,1.0,11.25,-16.84,-79.15,-58.45,-26.71,29
-8.85,-0.55,19.31,-50.2,30.57,22.71,-7.38,-15.43,8.67,-99.51,-103.22,17.53,-1.5,8.94,-11.47,-37.6,4.64,-24.85,29
-23.1,2.99,7.11,-180.57,-196.34,112.11,-17.12,-11.94,-2.86,-3.71,-259.03,-28.96,10.41,29.6,-18.93,43.99,143.6,-169.48,29
17.74,-0.32,22.72,62.89,-21.29,-4.2,-8.64,3.18,15.81,-113.87,-18.99,-67.14,-2.27,-16.89,-30.71,-478.42,31.88,-210.45,29
1.31,-8.18,15.23,49.22,58.74,-53.86,4.9,-13.74,12.78,17.53,71.04,-35.4,-7.1,21.83,-14.98,393.75,-22.46,47.31,29
15.81,-5.52,17.45,30.96,-21.14,-55.91,7.52,-10.3,14.75,1.12,36.38,-29.88,-9.98,21.2,-12.53,7.81,20.41,35.4,29
6.67,-4.74,18.4,-21.58,96.88,-66.6,8.24,-12.37,15.35,21.48,85.64,-17.33,-8.74,10.47,-8.62,-30.18,22.66,60.5,29
4.26,3.28,20.2,46.04,97.02,-60.69,5.8,-5.55,16.68,40.09,106.1,-24.56,-3.23,11.44,-8.74,11.18,50.68,106.05,29
-8.86,2.39,23.49,22.46,21.68,2.93,-1.91,-4.38,20.93,28.91,-1.9,8.5,-0.52,13.23,-14.57,-1.9,22.31,51.27,29
-8.27,0.57,25.07,5.71,33.54,-0.1,0.16,-2.34,21.17,6.54,-15.38,6.45,0.38,12.87,-14.44,-20.85,3.42,-0.05,29
-5.02,0.68,21.22,0.2,0.59,3.42,-1.88,-4.94,20.41,-2.88,-3.37,4.54,1.52,14.75,-15.21,11.62,2.54,-5.76,29
-1.73,1.38,24.04,6.3,-41.41,6.49,1.52,-7.66,21.64,-8.59,3.03,2.69,-1.45,12.08,-12.04,27.73,0.98,6.15,29
-3.02,4.71,21.23,10.6,-33.01,10.35,1.95,-5.38,21.77,-3.13,-16.8,2.88,1.78,12.63,-13.04,-14.01,-3.81,-6.1,29
-4.73,1.84,21.08,10.16,-3.76,2.93,0.57,-7.42,21.15,-4.98,-7.47,-0.2,0.39,14.09,-15.01,-10.5,2.54,-8.59,29
-2.07,1.55,21.6,-0.73,-15.48,4.79,-0.92,-7.75,20.73,-10.21,-7.62,0.54,0.64,12.27,-13.17,-11.04,4.59,-6.74,29
-3.82,1.89,19.98,2.93,2.93,0.1,-0.5,-6.86,20.24,-4.83,-1.37,2.39,0.98,13.6,-12.14,4.54,-13.18,-0.98,29
-3.27,0.9,20.9,-3.13,7.03,-0.05,-1.12,-7.09,20.08,-6.49,1.76,0.39,0.31,12.91,-12.95,-3.22,1.46,-1.27,29
-2.86,0.27,20.59,-10.4,1.61,2.49,-2.32,-6.37,19.37,-14.84,-6.69,1.42,-0.39,13.04,-13.19,-6.59,4.74,-4.44,29
-2.21,0.84,21.32,1.12,0.98,2.0,-0.4,-6.55,20.27,1.51,-0.34,1.12,-0.55,14.05,-12.87,5.22,-2.2,-1.56,29
-4.27,4.44,20.22,70.36,132.47,-2.2,-13.92,-5.98,15.65,33.01,128.61,38.33,-3.11,10.68,-14.52,-97.07,-44.73,-25.78,30
-4.7,-1.65,18.22,-62.6,28.96,1.37,-7.28,-14.42,12.86,-92.14,-5.81,17.19,-5.14,8.47,-10.62,32.62,41.85,-29.69,30
-16.81,1.57,11.79,-65.28,-16.65,26.32,-1.8,-24.35,12.2,-43.8,-180.86,-1.12,8.85,13.68,-9.46,16.7,118.75,-119.34,30
17.08,8.54,7.34,59.81,-239.7,46.34,39.05,-29.73,-30.91,-31.54,-801.51,-292.33,24.35,-19.06,-35.49,-474.46,-48.93,-271.78,30
1.27,-8.8,18.55,47.66,91.75,-39.89,19.79,-21.61,12.97,-64.06,-68.36,40.82,1.0,7.94,-16.33,403.27,-70.17,99.41,30
1.34,2.29,17.64,70.75,8.35,-52.59,-0.59,-1.87,14.96,9.62,-15.33,-26.81,-12.04,13.45,-14.6,-50.59,35.74,10.55,30
15.16,-9.28,19.13,-25.05,-29.79,-30.86,2.44,-13.47,16.82,0.63,78.52,-3.03,-7.07,11.28,-11.32,3.91,-9.18,29.49,30
9.43,-5.12,18.76,42.92,60.11,-34.77,4.08,-13.2,18.88,60.3,62.21,8.4,-8.59,14.06,-10.83,-41.26,22.95,31.79,30
2.94,2.11,15.83,24.8,114.84,-51.76,4.6,-7.28,18.35,13.92,59.96,-12.11,-5.39,13.98,-10.64,-5.13,32.57,41.55,30
-3.02,0.72,18.49,19.92,88.96,-29.35,0.21,-8.31,20.13,32.96,41.21,-20.51,-3.61,12.04,-11.87,-6.35,18.6,98.54,30
-8.93,1.86,25.68,-11.77,-51.32,8.54,1.56,-5.96,22.32,3.37,-34.28,3.71,-0.41,14.8,-12.73,-10.99,11.96,34.13,30
-7.03,1.03,22.08,-19.43,-10.55,-0.63,-0.92,-6.35,21.98,-9.23,-12.5,-0.78,-1.31,13.4,-10.34,-25.83,0.49,3.61,30
-5.24,1.12,19.86,-13.53,-2.78,-3.03,-2.35,-5.6,21.31,-6.69,-11.72,-4.54,-0.76,14.45,-11.1,8.06,2.15,5.18,30
-3.34,3.97,21.55,-0.78,-8.25,0.98,-2.2,-4.82,21.86,-9.77,-5.03,-2.98,0.29,16.19,-11.4,-11.47,-14.16,-8.69,30
-5.06,2.8,20.56,-5.18,0.63,1.07,-1.95,-4.82,20.63,-7.57,-0.78,1.37,-2.35,15.46,-12.36,9.96,-3.17,-8.35,30
-4.94,3.01,19.72,2.78,-1.17,3.61,-2.83,-4.78,19.79,-4.49,-3.81,-0.15,-0.92,15.2,-11.23,5.32,-4.64,-5.03,30
-6.58,1.84,20.03,-8.64,12.35,2.78,-4.11,-5.57,20.92,-13.97,-8.3,1.17,-1.55,15.03,-12.28,11.33,1.27,-1.07,30
-4.1,4.24,19.82,-4.25,11.23,-0.98,-3.26,-4.06,19.54,-13.13,-7.42,0.29,-1.25,13.62,-11.72,-11.96,0.1,-3.61,30
-3.2,3.36,21.35,-4.64,2.59,0.29,-2.58,-4.95,20.31,-6.54,-1.07,-0.44,-0.88,15.38,-12.33,-6.49,0.54,-0.29,30
-3.98,2.28,20.72,-3.37,3.08,1.03,-2.91,-5.08,20.05,-4.64,-5.81,3.17,-2.49,14.88,-11.54,0.59,1.81,-4.3,30
-15.52,-25.05,-2.93,-402.73,-584.23,-156.59,11.51,-16.06,15.42,-56.2,51.32,7.47,14.31,-20.8,-21.81,-601.95,-127.39,-237.55,31
7.62,-17.04,16.14,-91.89,1.56,-35.01,9.81,-10.9,14.15,53.61,123.83,2.15,1.22,14.03,-22.01,537.35,-72.51,103.13,31
6.0,-4.36,15.6,12.89,25.49,-66.31,3.45,-4.23,19.07,66.11,55.37,-8.35,-4.07,24.38,-13.44,28.03,15.53,6.69,31
10.77,-6.69,19.99,18.41,135.06,-33.25,-1.33,-3.49,19.56,25.34,23.24,-33.11,-9.63,8.38,-10.77,0.78,35.79,69.04,31
2.37,-3.72,19.02,57.62,155.66,-62.21,-0.32,-2.96,21.77,23.73,11.28,-12.35,-0.76,14.02,-14.0,51.76,26.27,83.98,31
-7.03,3.89,17.82,79.2,92.14,-34.52,-2.03,-2.6,21.35,0.29,0.2,-5.96,2.85,12.75,-13.11,-3.86,35.64,54.25,31
-0.98,4.67,21.23,-2.05,-27.39,-3.81,-1.65,-3.29,20.24,2.78,-6.84,2.2,2.34,12.59,-13.26,-16.21,-7.52,29.64,31
-1.82,7.09,21.64,3.71,-21.24,-0.2,-1.87,-7.69,21.7,-26.61,26.81,-15.14,1.83,13.93,-15.04,-22.51,-4.88,-6.25,31
-4.7,5.93,19.25,-5.76,-43.55,11.67,0.02,0.75,20.87,4.83,4.49,-10.69,1.71,11.91,-12.67,-7.13,-2.88,7.96,31
-7.57,4.21,17.13,-3.37,-9.13,8.5,0.13,-4.08,21.2,11.38,5.86,2.83,1.34,10.14,-12.9,20.17,47.22,19.73,31
0.86,0.77,19.06,-12.6,23.34,-3.32,0.04,-4.34,20.55,4.59,2.44,1.17,7.18,12.64,-12.48,-13.82,5.71,26.42,31
-0.37,5.65,21.9,-28.96,-16.55,-1.56,-1.48,-7.59,20.9,-18.9,6.64,-0.15,3.8,11.78,-13.4,-32.96,-10.94,-22.61,31
-0.28,5.69,20.58,3.42,2.2,4.59,-0.32,-2.91,20.49,14.94,2.39,4.69,3.88,13.43,-13.74,11.77,-5.91,-8.01,31
-1.93,5.69,19.59,8.69,-10.21,8.11,0.81,-5.46,20.74,-11.08,0.68,-2.49,0.78,13.75,-13.94,8.06,3.52,-11.33,31
-2.02,3.14,19.69,3.08,4.83,-1.71,0.46,-3.26,20.85,-15.14,1.61,-6.05,1.81,12.32,-14.39,32.86,7.71,8.89,31
-1.49,3.71,20.62,15.58,4.35,1.46,0.22,-2.89,20.57,3.37,-3.12,5.57,3.66,11.72,-12.36,-8.69,19.68,3.17,31
-1.2,2.59,21.76,-3.13,1.17,0.78,0.67,-3.6,20.98,4.2,-2.78,2.49,4.02,12.79,-11.25,-14.5,7.57,-5.47,31
-1.08,3.29,20.35,-7.18,5.27,2.78,1.86,-4.55,20.77,-12.74,-0.49,-3.61,4.94,13.32,-12.36,5.76,-10.3,-1.51,31
0.43,5.63,21.47,-5.96,-13.18,7.13,-0.93,-7.62,20.5,-31.35,8.25,-7.23,3.22,14.11,-13.76,-1.86,-8.89,-4.59,31
-0.95,5.08,20.79,3.56,-8.4,1.71,0.1,-3.64,19.76,-12.65,1.9,-4.64,3.59,11.76,-11.27,-15.92,4.0,-6.54,31
2.37,-0.41,24.8,-31.64,25.83,19.87,-24.6,4.52,25.72,486.38,479.54,34.91,-6.32,8.53,-19.45,-69.19,-70.31,-34.47,32
-6.27,1.69,20.4,8.45,67.38,32.71,19.26,-15.81,15.21,-6.4,104.39,-2.88,6.53,3.76,-9.65,87.01,101.66,0.88,32
-8.26,1.48,19.9,-20.95,24.32,30.03,5.03,-7.03,17.06,19.34,-59.28,-39.45,14.85,13.29,-28.24,-487.7,-572.22,-263.72,32
-16.46,-2.87,19.56,-70.56,-54.93,69.04,7.58,-12.64,14.99,27.39,73.93,-19.82,-3.54,-12.66,-5.54,241.26,-136.18,138.67,32
35.1,-25.62,38.96,-122.36,-493.12,7.23,2.45,-9.87,20.0,42.58,79.44,-13.87,-7.55,20.4,-16.41,70.7,15.67,60.06,32
7.54,-11.7,10.39,-114.84,-46.0,-37.55,0.16,-4.59,19.53,43.75,48.54,-28.37,-5.93,14.28,-10.74,-41.8,27.1,68.21,32
-0.59,3.13,21.42,57.52,25.15,-69.78,-0.23,-3.15,21.19,14.6,9.77,-16.8,-4.21,16.64,-13.0,15.92,46.04,44.48,32
10.13,-4.94,18.18,-33.06,23.34,-51.03,-1.33,-3.54,20.17,6.69,-3.66,-3.91,-4.03,14.25,-13.42,2.15,22.51,44.14,32
3.35,-3.43,21.76,27.73,101.12,-24.22,0.42,-7.74,20.67,-6.4,-0.59,3.32,-1.74,14.94,-13.05,-10.01,10.4,11.28,32
-2.56,0.27,20.36,46.83,83.01,-32.71,0.11,-5.7,20.11,9.77,-2.05,-0.34,-0.52,14.54,-11.79,0.15,-1.81,4.79,32
-3.33,3.48,19.88,20.61,16.99,-3.08,0.37,-5.37,20.45,1.66,-1.32,-2.98,-1.95,12.66,-12.81,-1.47,6.64,-3.17,32
-3.84,2.91,20.94,8.94,13.48,-4.98,0.48,-6.21,20.88,5.47,-9.81,8.64,0.47,16.2,-12.34,-1.07,-8.5,-0.59,32
-3.93,3.14,22.39,-5.52,-36.72,4.74,-0.17,-6.37,19.87,-9.28,1.81,0.39,-0.92,14.26,-11.71,5.47,-4.79,2.25,32
-6.57,2.32,20.37,17.58,-4.74,7.18,-0.39,-5.34,19.78,-3.96,-4.79,0.05,-0.93,15.51,-12.27,-0.78,-2.05,-3.96,32
-4.61,0.53,20.55,-5.91,12.01,-3.37,0.73,-5.16,20.06,14.7,0.05,4.25,-0.5,14.95,-12.38,-1.12,5.42,-2.29,32
-3.35,0.83,20.41,-16.41,11.62,-1.56,0.66,-7.19,20.59,-1.07,-8.5,1.07,0.89,15.74,-10.72,1.32,10.16,-5.52,32
-1.59,2.92,20.54,-8.4,6.25,-2.05,0.88,-6.4,21.07,-8.4,-5.13,0.1,0.38,15.65,-10.76,4.49,0.63,-2.64,32
-2.13,3.65,20.89,-3.47,-17.43,5.42,0.32,-6.58,20.82,-3.66,2.1,5.76,-0.13,13.53,-10.6,7.67,-0.24,6.1,32
-3.53,2.15,20.39,7.23,7.71,3.86,0.3,-6.92,20.29,-0.49,1.22,1.42,-0.25,13.78,-10.88,-12.7,-5.13,-1.76,32
-3.96,1.52,20.29,-7.62,9.96,0.63,-0.63,-7.8,20.36,-5.76,-1.95,3.42,-0.94,14.86,-11.46,-16.94,-4.1,-8.4,32
9.76,-5.15,19.29,29.49,38.53,-0.93,-4.6,-14.53,14.57,-12.89,73.14,-50.2,-10.69,26.29,-16.99,326.76,6.25,107.62,33
5.35,-5.99,20.25,38.92,107.81,-56.64,7.7,-12.71,16.19,-30.76,-32.18,-24.8,-11.81,16.14,-14.34,-41.16,25.78,13.62,33
0.98,1.39,20.54,82.57,31.98,-60.5,11.36,-14.08,15.96,12.16,17.97,6.4,-11.9,12.14,-13.74,39.36,-0.49,-1.07,33
-7.41,1.62,19.22,-16.46,114.99,-44.19,5.63,-13.81,11.48,2.39,108.5,7.91,-10.66,9.49,-10.19,-34.91,6.93,39.99,33
0.26,3.68,23.46,10.25,-27.64,-0.63,-3.31,-2.51,16.75,134.08,52.54,-30.22,-12.84,10.38,-14.32,-13.72,38.28,56.05,33
-2.63,0.78,21.55,-8.55,-20.8,9.96,1.7,-5.85,19.38,-7.03,29.25,-26.76,0.72,18.3,-12.18,20.75,69.29,46.78,33
-2.97,3.22,22.91,-25.39,-38.72,10.25,4.92,-13.54,25.74,-51.81,-36.08,-9.33,-2.79,16.69,-14.68,-2.25,21.0,24.85,33
-6.82,4.88,18.3,22.75,-26.32,4.0,2.36,-11.41,22.9,-13.18,-6.84,23.49,-2.39,14.91,-14.57,27.39,0.73,10.16,33
-3.77,-0.92,21.96,-1.42,-2.64,0.1,0.81,-7.63,21.27,-62.4,-8.79,8.54,-3.68,9.91,-12.65,15.72,6.93,4.2,33
-4.42,3.38,20.79,-0.83,-3.42,5.86,-0.96,-2.13,17.6,15.82,-0.05,-10.64,2.99,15.8,-13.55,-11.28,10.79,0.98,33
-3.57,3.87,21.66,-9.57,-19.09,-1.42,1.16,-9.82,22.32,-5.86,-13.87,3.47,-0.88,11.92,-12.04,-43.95,0.98,-11.72,33
-6.2,4.14,19.46,13.43,-2.98,3.66,-0.87,-8.49,21.13,-7.86,-2.98,5.32,0.26,15.84,-13.54,0.15,-3.76,1.17,33
-4.47,2.52,21.2,2.29,6.54,-0.2,-1.35,-5.69,20.41,-3.91,-7.71,-4.49,0.64,14.7,-11.54,-15.23,1.81,-3.32,33
0.96,0.86,20.16,-2.98,1.51,3.96,-1.08,-4.4,19.57,10.35,-4.0,-2.59,1.03,13.48,-10.36,-6.4,13.72,2.88,33
-2.75,1.47,19.57,2.2,8.2,-0.05,-1.57,-7.37,20.06,5.13,-13.87,0.39,1.8,14.07,-11.5,-17.58,-7.57,-1.9,33
-0.96,0.91,20.8,-3.66,6.01,-3.66,-0.51,-9.09,19.92,-8.98,8.59,0.34,-0.08,16.23,-14.1,19.58,-0.68,-6.64,33
0.81,1.09,21.42,-8.35,-6.45,4.74,-1.99,-7.58,18.83,7.13,5.13,1.27,0.86,13.93,-12.38,-14.31,-2.78,-6.74,33
-1.59,1.82,19.76,0.93,1.71,0.98,-1.13,-9.62,19.7,-10.06,-1.56,3.76,-0.42,14.42,-13.16,11.47,2.64,1.61,33
-2.87,2.52,20.89,-1.42,3.03,0.93,-0.2,-9.21,20.97,-14.4,4.25,-1.32,-0.96,16.72,-12.88,2.93,-1.17,-8.64,33
0.58,1.15,21.36,1.12,9.03,2.25,-0.8,-7.68,19.58,16.31,0.2,6.15,1.07,14.82,-11.14,6.15,-2.2,-0.29,33
-6.57,10.05,23.5,66.99,63.53,48.49,1.32,-7.61,20.02,10.4,-2.93,0.15,0.12,8.27,-7.82,-61.72,-31.69,-49.9,34
-7.91,0.51,18.67,-43.26,32.96,23.88,1.11,-9.07,20.05,1.51,1.95,2.69,10.4,20.73,-12.69,57.91,52.25,-62.55,34
-7.98,-4.17,5.42,-180.13,-301.56,200.39,0.71,-7.37,19.63,-2.2,-1.07,-2.0,-14.8,-20.76,-40.43,-567.72,47.07,-297.17,34
0.85,-0.72,20.16,-77.64,30.32,-16.21,1.49,-7.72,19.93,-4.79,-1.17,0.0,-8.16,35.57,-20.75,340.67,17.82,41.36,34
-2.34,-4.53,15.91,76.71,105.76,-92.19,-0.58,-7.57,19.46,4.49,1.07,-0.49,-9.51,11.81,-13.42,-62.65,58.69,57.18,34
14.06,-3.82,20.75,-18.41,-12.74,-22.71,1.98,-8.66,20.2,-3.81,-3.22,-0.93,-5.41,11.45,-14.02,-0.59,14.94,50.83,34
2.49,-8.17,20.27,35.89,64.55,-41.36,1.95,-8.06,19.93,-4.05,4.54,0.49,-3.61,14.82,-15.32,-26.32,52.88,44.19,34
1.84,4.6,19.84,36.28,57.81,-28.91,1.89,-8.38,20.18,-6.54,1.95,3.08,-1.08,13.55,-15.21,-24.17,22.71,34.67,34
-3.27,-0.0,23.89,11.33,46.92,-25.73,0.6,-7.5,19.5,1.51,1.46,0.98,2.24,15.95,-13.04,-22.17,10.74,23.63,34
-4.2,3.43,23.41,-11.04,-26.17,-13.23,0.1,-8.08,19.62,-0.1,0.78,-1.76,2.78,14.5,-12.8,7.37,-0.15,17.48,34
-7.29,4.83,19.58,25.24,-30.47,4.69,1.32,-8.59,19.67,0.63,-0.29,0.73,3.04,13.59,-12.39,-2.78,4.54,7.23,34
-4.69,0.58,22.26,-3.22,0.73,-3.12,1.2,-8.46,20.11,-8.01,-1.27,1.03,3.02,13.22,-11.93,-4.44,0.83,-2.15,34
-4.86,1.1,19.98,0.24,17.19,-7.52,0.85,-8.43,19.69,-4.05,2.39,0.98,0.99,13.6,-12.11,4.0,-0.93,-6.4,34
0.82,1.83,20.69,-2.05,1.66,-0.44,0.76,-7.9,19.65,-2.88,0.54,0.44,1.92,15.17,-13.49,15.92,-0.1,-3.81,34
-1.57,2.89,20.97,7.57,1.51,3.47,0.61,-7.49,19.37,-2.49,1.27,0.2,2.12,13.91,-13.1,-3.32,5.52,-4.05,34
-3.26,3.15,20.11,-1.61,-13.96,-2.29,0.52,-7.55,19.42,5.08,0.78,1.51,2.47,14.23,-12.33,1.86,1.9,-2.39,34
-3.77,1.5,20.51,5.76,0.88,2.54,0.01,-8.34,19.19,0.44,2.05,0.05,1.66,13.93,-12.34,-4.1,-0.2,-4.39,34
-3.4,0.53,21.37,-0.59,9.47,0.24,0.45,-8.26,19.45,2.29,1.07,0.63,1.97,14.05,-13.0,0.2,-0.34,-5.03,34
-2.77,1.26,20.86,-1.61,23.93,0.98,0.51,-8.04,19.54,0.83,1.17,0.1,1.53,14.13,-12.39,-5.42,0.39,-6.1,34
-1.77,1.92,20.46,-9.28,5.47,-0.24,0.91,-8.87,19.42,0.63,2.39,0.68,2.1,13.58,-11.65,-8.06,3.03,-3.86,34
-3.13,0.85,20.52,-23.05,31.84,21.78,1.76,-30.68,13.03,-39.26,-248.14,-3.37,-4.18,13.55,-15.68,-27.69,23.88,37.06,35
-11.89,6.46,14.86,-63.38,-153.22,65.77,39.05,-13.82,-24.29,101.46,-217.63,-6.98,-3.04,13.54,-14.19,-0.63,46.53,29.44,35
39.07,6.27,24.81,94.73,-210.74,116.65,15.99,-17.49,15.45,19.63,100.39,11.57,0.5,15.3,-14.38,-45.07,33.94,24.32,35
9.67,-8.64,16.39,26.42,-60.84,-35.5,21.53,-16.23,11.14,-75.24,-39.45,-45.85,1.19,12.99,-11.79,-25.39,4.05,17.19,35
15.89,-13.72,23.86,-55.22,-32.76,-34.96,14.56,-11.68,15.72,-10.6,70.46,20.41,1.87,15.89,-12.72,-4.74,-9.67,1.07,35
4.71,-3.04,17.69,-4.98,129.88,-58.74,0.89,-6.55,17.0,74.95,87.6,-30.81,0.99,12.66,-10.92,-5.42,5.76,-0.15,35
-5.37,-0.49,19.71,52.73,126.22,-55.37,0.84,-9.62,19.58,-21.34,63.38,-15.23,0.61,15.14,-12.19,-2.1,1.86,-0.78,35
-6.52,-0.43,20.87,5.03,40.23,-23.19,-3.07,-8.49,20.86,-29.59,12.01,-30.66,0.08,15.15,-12.2,-3.86,-3.86,-2.34,35
-4.52,1.25,22.72,-2.69,-17.53,-14.94,0.16,-8.78,21.89,-0.2,3.22,-4.25,0.71,14.17,-11.72,9.13,6.45,-0.05,35
-2.61,1.12,21.76,6.25,-12.65,5.57,0.11,-6.56,19.67,-2.3,-2.29,0.0,0.57,14.62,-11.95,-4.79,2.78,-4.64,35
-6.29,1.32,20.36,-6.01,-17.87,3.61,-0.22,-7.03,20.26,-2.3,-10.3,2.15,0.92,14.66,-11.51,0.78,3.32,0.1,35
-7.46,0.45,20.64,-1.61,1.56,1.46,-0.91,-6.64,19.91,-4.1,-4.69,-2.2,0.37,15.05,-11.46,-5.18,-3.96,-2.88,35
-6.62,-0.07,20.94,-7.86,0.73,-0.68,-0.38,-6.46,19.91,6.88,-1.95,0.98,0.37,15.24,-11.15,-3.86,-4.0,-3.12,35
-6.02,0.4,20.95,-9.52,-2.1,-0.93,-0.67,-8.01,19.77,6.35,-1.51,1.22,-0.39,16.29,-11.93,2.1,-5.37,-1.76,35
-4.31,1.27,21.69,0.1,-8.98,2.29,-0.56,-8.58,19.82,2.34,-1.81,1.76,0.78,14.66,-10.38,2.44,5.13,2.59,35
-5.05,1.08,20.69,4.64,-10.11,2.44,-0.19,-8.96,20.11,-9.18,-3.37,-2.29,0.13,14.68,-11.53,-8.45,4.69,-1.27,35
-5.18,1.58,21.12,2.69,-18.46,1.9,0.33,-8.85,20.06,-9.13,-1.56,0.98,0.37,15.42,-10.95,-4.49,-1.81,-0.1,35
-6.43,0.54,20.04,9.18,-5.37,6.01,-0.14,-7.91,20.15,-4.05,-1.32,2.2,-0.95,15.25,-10.55,-7.72,-4.3,-3.17,35
-6.49,-0.65,20.43,0.29,6.01,2.0,0.3,-7.41,19.75,-3.13,-0.59,0.98,0.87,16.0,-10.46,-5.03,-3.76,-1.51,35
-4.27,-0.0,21.38,-9.38,3.96,0.39,0.37,-7.71,19.71,-3.08,6.69,-2.54,-0.16,16.45,-11.22,0.93,-3.91,0.1,35
-13.58,2.61,10.65,-81.3,-105.71,63.87,17.94,9.16,10.16,470.36,269.73,31.79,-35.28,39.88,-27.08,-214.89,-514.89,-928.56,36
13.59,-41.61,39.02,-190.19,-273.97,-219.09,16.61,-15.83,19.42,5.47,37.4,8.06,-9.24,-1.98,-14.77,254.39,-118.02,90.82,36
-7.18,3.18,17.46,-54.54,-69.82,-20.85,10.27,-14.4,16.7,-41.06,-69.34,-17.29,-11.99,16.9,-15.96,-14.6,20.8,21.97,36
3.92,-0.49,20.79,-4.59,-41.65,7.52,4.07,-13.8,17.33,-35.64,63.87,-1.32,-11.14,15.87,-11.09,2.15,-15.28,25.39,36
4.9,-3.53,22.09,-33.45,57.32,-22.27,1.84,-11.25,18.23,39.99,95.65,-18.02,-12.4,12.77,-12.41,-48.19,16.7,13.48,36
-2.42,-7.06,19.78,29.1,118.95,-38.77,-2.18,-11.85,17.56,-7.81,17.82,-12.11,-8.6,15.29,-10.57,5.37,20.75,13.67,36
-4.73,-2.07,19.49,3.61,52.05,-22.61,-2.83,-8.85,18.82,34.42,9.81,12.01,-7.95,13.17,-8.63,-15.09,20.85,19.82,36
-4.13,-0.05,21.64,13.67,-40.19,18.07,-0.77,-7.18,19.69,16.5,19.53,-3.17,-6.21,16.35,-9.63,-6.01,12.16,14.16,36
-2.92,1.74,21.26,28.08,1.17,4.05,0.95,-7.64,20.38,-5.62,11.91,-7.37,-6.84,15.43,-10.62,-5.66,7.47,8.98,36
-4.57,0.69,20.77,-1.95,3.42,-5.52,0.24,-7.63,20.1,-12.84,0.44,-4.0,-5.55,15.44,-9.35,-2.15,9.67,6.69,36
-2.87,-0.47,21.72,-6.98,-8.45,-5.03,0.17,-7.42,19.65,8.54,-1.51,-2.15,-5.39,17.2,-10.24,1.61,2.25,0.98,36
-3.96,0.65,22.01,-0.83,-20.02,1.66,-0.72,-9.56,19.58,2.49,-1.95,3.71,-6.49,16.38,-11.1,7.62,0.34,-3.96,36
-6.29,0.11,21.45,4.2,-11.33,4.0,-0.67,-10.06,19.51,2.64,1.86,2.29,-5.91,15.37,-9.3,3.52,2.69,-2.69,36
-4.57,-0.77,20.53,0.78,-11.28,6.64,0.72,-9.68,20.08,-3.52,-3.71,3.91,-6.23,15.98,-9.99,1.37,-1.46,-2.69,36
0.97,-1.04,21.5,-11.77,-14.65,3.91,1.73,-10.44,20.02,-5.62,4.15,8.15,-5.82,16.22,-10.65,0.88,5.13,-0.24,36
-3.57,-0.05,23.01,-7.57,-26.95,-0.39,0.66,-9.58,19.76,-6.2,8.45,0.39,-6.56,15.94,-10.24,1.27,3.42,-3.91,36
-4.83,0.92,20.37,3.22,-8.94,1.32,1.71,-10.47,20.49,-5.37,2.2,2.05,-5.91,15.73,-9.73,4.05,3.27,4.79,36
-1.12,-0.66,22.43,-1.07,-14.31,2.83,1.32,-9.81,20.11,3.71,8.59,6.1,-5.32,16.55,-10.0,-5.27,0.98,-5.03,36
-3.61,0.05,22.15,3.56,-13.18,2.1,-0.08,-9.75,19.84,6.49,0.59,-0.93,-6.02,17.35,-10.89,3.86,0.83,-3.81,36
-5.77,-0.15,20.92,6.25,-2.2,0.93,0.11,-10.22,19.69,-0.05,0.59,-1.51,-5.7,15.89,-9.62,3.08,3.03,-0.1,36
-15.09,2.81,16.68,-33.64,21.78,29.79,39.05,-8.52,-36.39,107.32,-259.18,30.08,12.06,-17.49,-38.17,-343.21,28.13,115.14,37
-14.47,-6.44,9.82,-167.48,-304.35,84.18,14.25,-11.78,12.62,82.08,75.59,16.46,-2.53,18.55,-18.37,272.22,-45.9,63.53,37
-1.01,15.81,33.57,67.28,200.78,22.66,16.34,-13.69,15.66,-1.32,23.93,-13.04,-8.26,13.57,-16.22,-26.17,-4.44,2.44,37
9.97,-2.9,18.2,45.12,13.38,-30.03,13.69,-12.64,11.13,-94.24,-4.15,-15.48,-6.29,15.15,-13.5,-3.27,-17.43,3.76,37
6.04,-3.37,22.17,1.07,8.15,-14.89,5.24,-7.3,12.85,29.15,119.82,-46.04,-9.17,15.67,-13.14,-43.55,15.48,49.07,37
9.65,-8.88,16.78,-9.42,50.83,-37.21,2.87,-10.75,18.55,-23.14,97.36,-22.27,-4.63,15.47,-10.35,-36.77,14.06,27.49,37
-1.81,-0.53,20.64,39.55,74.56,-67.48,2.62,-8.79,21.1,17.14,8.25,-1.12,-4.54,16.48,-9.39,1.95,6.64,12.7,37
-2.07,-3.35,22.9,4.15,83.54,-30.27,1.33,-7.48,19.9,-9.96,-4.79,-1.76,-3.71,15.69,-9.63,2.1,10.45,0.39,37
-1.73,-0.14,22.07,11.03,21.0,-1.81,1.42,-10.14,19.74,-8.2,-8.84,1.56,-3.56,16.77,-9.02,0.73,2.1,-2.88,37
-3.81,0.96,19.98,-9.47,15.82,-7.23,1.91,-10.35,20.37,-16.02,-6.79,0.59,-3.2,17.15,-8.81,-0.83,-0.98,-3.76,37
-6.03,1.53,20.49,8.4,1.9,1.22,1.52,-7.83,19.49,-3.27,3.81,-3.22,-5.17,15.31,-10.97,-10.99,1.61,-2.0,37
-4.03,0.86,21.31,7.81,-1.9,3.32,0.76,-7.85,19.23,5.66,-3.32,-2.25,-4.14,18.02,-9.89,5.76,-3.37,2.44,37
-5.45,0.51,21.35,-1.32,-17.14,5.52,-0.16,-9.52,18.93,2.78,-5.62,1.37,-4.08,16.8,-9.07,-6.15,-0.05,-1.56,37
-6.37,0.58,21.79,-6.79,-11.52,-1.37,-0.7,-9.71,18.49,7.47,-0.73,6.2,-4.39,17.05,-9.29,3.03,1.32,-2.0,37
-5.91,0.97,20.64,-0.98,-12.99,2.54,0.24,-9.78,19.52,-7.62,13.28,-4.15,-3.47,16.99,-8.69,1.42,2.73,-1.32,37
-5.2,0.23,20.06,7.57,13.33,1.51,1.38,-11.31,19.92,-7.72,-3.71,7.76,-3.16,17.12,-8.2,-5.81,-3.81,-1.17,37
-2.52,0.78,22.63,-1.37,-9.91,-0.54,-0.11,-9.49,19.17,-14.84,-0.73,2.1,-4.06,16.68,-8.86,-3.52,-2.78,-0.98,37
-6.63,0.28,19.69,3.42,-14.21,6.25,-0.2,-9.05,18.96,-1.95,-1.46,1.86,-4.33,18.15,-10.25,0.68,-1.61,-2.78,37
-4.32,-1.76,21.27,-1.12,3.13,5.42,-0.03,-7.62,18.5,-6.79,1.56,-6.01,-5.2,17.37,-10.44,11.52,5.96,-0.93,37
-3.27,-0.05,21.76,-7.57,-10.06,4.49,2.08,-7.88,19.43,-10.3,2.98,1.17,-4.55,16.83,-8.84,0.63,-1.71,-0.39,37
-4.93,-1.79,23.58,-8.94,16.7,25.34,-3.45,-21.13,13.96,-32.81,-143.6,17.87,0.07,7.45,-13.89,25.54,54.3,-26.81,38
-15.88,-6.1,18.22,-29.79,-38.53,78.17,39.05,-2.49,41.65,88.04,-710.3,-310.55,-42.35,39.88,-40.43,4.0,-433.3,-1166.7,38
-2.66,-24.42,4.76,-237.01,-409.28,-157.47,23.56,-23.49,13.67,-128.22,-140.14,41.55,-31.75,-13.79,-4.47,17.82,28.17,-14.4,38
8.88,-3.31,18.19,8.89,15.58,-15.87,3.06,-6.88,16.64,-18.85,-25.34,-23.88,-9.23,22.83,-18.2,93.46,-19.73,62.06,38
4.36,-1.15,18.07,-1.86,-17.82,-8.4,8.76,-11.16,17.31,-34.42,65.97,1.95,-12.23,11.24,-9.76,0.98,16.16,52.78,38
14.55,-5.63,18.26,-19.68,79.88,-31.35,3.14,-12.44,15.88,24.27,102.34,-7.32,-9.05,8.34,-12.16,14.6,14.5,103.42,38
0.61,-3.52,20.97,15.72,88.33,-35.6,4.52,-7.87,18.56,10.55,26.27,-16.11,-5.62,12.83,-13.2,25.83,22.36,93.31,38
-3.2,0.74,20.72,11.72,39.6,-28.66,6.82,-11.38,19.85,-59.57,-62.26,0.2,1.97,15.39,-17.02,84.18,8.5,64.16,38
-2.49,-4.57,22.54,-7.72,5.76,6.93,2.39,-8.65,19.53,14.94,23.49,-8.89,0.75,10.86,-16.71,-0.63,12.45,25.98,38
-3.35,1.72,22.6,-0.24,5.52,-11.23,0.25,-7.52,18.34,-5.42,14.75,-4.35,-1.39,8.22,-16.08,-22.27,2.88,-7.08,38
-4.34,1.48,23.22,-6.49,-22.56,-2.25,3.06,-7.05,18.9,2.15,11.38,-16.31,1.64,11.14,-14.47,-13.62,10.99,2.2,38
-6.94,1.84,21.18,5.52,-8.3,-9.52,2.91,-8.78,19.55,1.42,-10.84,-4.59,0.51,11.69,-15.11,-2.73,-1.22,3.81,38
-7.16,-1.91,20.93,-5.76,6.59,-8.35,0.74,-9.61,19.03,-3.27,-7.23,-0.39,0.85,11.54,-15.37,-2.73,1.03,-0.88,38
-2.22,-1.54,21.93,-3.32,12.4,-5.22,0.62,-9.29,18.59,14.06,0.05,1.51,0.8,10.99,-15.07,-2.44,-1.66,-2.25,38
-1.91,-0.26,21.32,10.69,1.61,0.98,2.05,-7.52,18.92,12.79,-3.96,-1.37,-0.87,9.21,-14.85,-0.0,4.1,0.15,38
-3.44,0.33,21.57,11.47,-5.37,3.71,1.89,-8.25,18.93,8.69,0.78,-3.76,0.48,11.73,-15.79,-5.03,8.11,1.61,38
-4.19,0.25,21.33,7.96,-2.2,1.07,2.51,-10.61,19.47,9.33,-5.76,2.98,0.85,11.11,-14.6,1.86,-2.88,0.63,38
-2.65,-0.95,21.8,0.78,-0.2,0.78,2.14,-11.29,19.51,-10.64,-0.49,1.76,-0.51,10.42,-15.74,-2.15,2.0,-1.12,38
-2.21,-0.57,21.11,-2.2,-21.29,4.49,2.11,-9.2,18.9,-15.67,-10.45,-2.73,-1.81,11.26,-16.08,4.2,5.47,-6.98,38
-4.52,-0.94,22.0,-5.62,-12.21,4.0,2.89,-9.47,18.97,-0.24,4.64,-1.56,-0.36,10.84,-15.85,-2.93,8.4,-4.15,38
1.49,-14.13,11.37,-83.01,-293.36,-116.6,-9.17,-7.12,13.7,-110.5,-67.97,12.45,-5.33,15.37,-10.11,25.44,21.0,64.79,39
-9.32,-3.33,16.69,-50.34,-13.57,-15.33,-12.44,-11.4,7.81,50.2,-177.49,7.67,-6.71,16.94,-19.23,83.4,12.89,30.32,39
-2.51,4.67,21.53,31.59,-67.53,-2.98,12.08,31.14,41.65,197.36,-127.29,-483.06,-4.28,12.22,-13.98,-8.79,0.68,-0.54,39
3.87,-8.5,20.95,-37.74,-53.91,-51.42,29.08,-28.94,11.44,-137.16,-97.66,-25.15,-5.11,14.04,-14.88,16.5,1.07,2.73,39
7.9,-2.82,19.77,65.97,29.44,-42.58,-2.59,-4.32,13.3,3.91,-73.58,-28.27,-2.89,12.2,-13.34,8.3,3.52,4.88,39
5.04,-1.88,24.4,5.57,69.63,-9.81,6.01,-18.34,15.6,-49.17,51.37,-1.46,-1.69,15.55,-13.61,7.71,3.47,4.59,39
-5.49,4.75,20.47,27.69,44.24,-0.68,4.16,-9.31,16.24,105.71,71.44,-11.72,-1.96,12.6,-13.46,14.99,-7.86,4.25,39
-2.57,1.39,20.87,9.08,-2.49,-1.32,5.45,-8.79,20.05,-44.14,13.38,-2.29,-3.35,13.1,-14.43,-1.51,-3.66,-1.76,39
-3.41,1.25,21.47,-10.74,-5.86,-4.39,3.42,-6.46,18.69,3.76,10.11,-4.59,-4.29,11.22,-14.75,3.95,13.87,5.57,39
-6.09,-0.31,20.54,23.63,5.32,-1.76,1.34,-8.32,18.46,10.16,3.52,-3.03,-4.91,13.02,-15.91,-2.39,-1.56,-5.13,39
-4.27,-1.28,20.94,8.01,20.95,-2.69,1.78,-9.36,19.37,-25.05,1.37,-7.32,-3.82,11.56,-15.01,0.49,5.42,-1.56,39
-4.81,0.18,20.29,7.57,7.03,0.78,-0.22,-11.03,18.52,9.33,-7.42,-4.49,-4.52,13.19,-15.36,-3.61,-4.74,-8.25,39
-4.17,0.09,20.58,-4.49,11.77,-3.22,0.4,-10.85,18.56,-0.63,-7.96,2.29,-2.84,11.53,-13.82,-4.83,-3.76,-3.17,39
-1.53,0.39,22.18,-9.96,-3.66,-2.54,-0.1,-9.51,18.05,8.3,-4.05,1.61,-3.08,13.35,-14.32,4.3,9.33,1.86,39
-2.99,2.18,20.9,0.24,-12.4,0.15,0.52,-10.38,18.51,-1.66,-3.76,-0.59,-2.95,12.08,-13.75,2.29,4.0,2.59,39
-2.91,2.33,21.18,13.33,-5.27,3.08,2.47,-10.91,18.9,-5.08,-3.61,-0.1,-3.06,11.42,-13.6,-10.3,-2.64,-0.24,39
-3.87,0.91,21.15,2.54,-4.54,2.78,1.33,-9.62,18.28,3.66,1.71,-1.42,-3.93,11.31,-14.57,-3.27,2.29,0.73,39
-1.01,0.03,21.32,0.83,6.05,-0.1,2.02,-10.34,18.85,5.37,-4.49,-0.88,-3.37,11.51,-14.0,-7.03,4.05,0.78,39
-0.65,-0.03,21.4,-3.08,-5.42,2.98,1.3,-9.86,18.57,-0.34,1.56,2.59,-2.93,12.61,-14.64,-2.69,4.2,0.24,39
-2.04,0.72,21.43,5.32,-0.63,3.47,0.86,-10.79,18.74,-1.27,2.15,1.17,-2.93,12.94,-14.37,0.98,0.24,-3.17,39
-2.05,-2.77,22.31,-28.27,57.32,-9.81,0.98,-7.53,19.38,6.49,-5.13,-0.2,-6.28,12.17,-17.01,-12.65,7.76,-12.94,40
-7.81,5.05,11.22,-27.39,29.74,10.11,0.14,-8.05,18.98,-6.01,0.05,1.56,-1.42,8.09,-12.21,5.81,23.83,10.35,40
-14.44,-1.35,19.9,-95.85,-199.27,20.17,-0.04,-8.91,19.87,-4.35,1.81,2.44,5.67,32.36,-23.52,49.37,81.98,-161.08,40
32.23,-30.85,38.68,-172.12,137.06,255.37,1.62,-8.12,19.69,-0.0,4.64,0.05,2.16,-33.66,-30.02,-512.74,145.61,-136.67,40
3.76,-0.54,17.49,-64.4,-93.7,-5.42,0.86,-9.86,20.02,-5.18,3.56,2.83,-6.17,22.94,-20.29,414.4,-5.91,22.51,40
-0.16,-1.65,19.78,-15.48,3.91,-16.02,0.64,-8.42,19.87,-3.13,1.17,0.78,-10.81,12.33,-11.6,-52.64,47.27,32.42,40
3.47,-7.85,20.87,-9.42,46.53,-38.67,0.64,-8.71,19.71,-3.37,3.52,-0.59,-7.22,10.16,-11.71,92.58,-22.12,79.59,40
-6.52,-7.28,17.98,148.53,161.33,-35.99,0.69,-8.76,19.69,-4.0,0.15,0.1,-6.46,12.31,-15.51,-52.3,86.13,17.82,40
1.24,-1.03,22.09,28.81,-82.67,12.45,0.83,-8.46,19.15,-7.37,-2.59,-3.22,-3.53,13.45,-15.02,5.81,27.69,11.72,40
-0.65,2.93,22.62,33.25,39.6,8.35,2.64,-8.61,19.93,-2.2,-0.05,1.12,-4.25,11.62,-16.32,3.17,-2.69,29.98,40
-2.72,0.58,20.44,-18.95,9.47,-8.2,0.85,-8.05,19.24,-0.0,3.08,1.22,-3.55,10.7,-13.88,4.3,5.13,12.89,40
-1.85,-0.15,21.01,13.38,15.38,-3.32,1.63,-9.35,19.98,-0.0,-0.24,0.59,-2.07,12.55,-14.47,-2.25,6.98,3.47,40
-1.2,0.29,21.99,4.54,-9.96,4.44,1.22,-8.3,19.4,-6.49,-0.59,0.29,-3.03,13.14,-16.17,12.35,2.98,-0.63,40
-2.78,0.56,20.7,-14.4,-17.97,-3.27,1.48,-8.97,19.26,-1.95,-0.49,0.34,-4.93,11.72,-14.66,2.78,9.08,-2.39,40
-2.14,0.13,21.0,12.26,23.34,-0.1,1.3,-8.01,19.53,-0.59,-3.03,-0.68,-3.47,12.44,-14.54,-6.45,-5.62,-4.83,40
-1.95,-0.68,21.06,-8.2,-3.27,-4.1,1.18,-8.27,19.59,-1.86,-3.52,0.73,-2.43,13.45,-15.22,10.79,-15.14,-2.69,40
-4.54,0.91,21.06,11.96,10.55,0.29,0.96,-8.94,19.56,-2.98,4.15,1.56,-3.6,12.26,-14.8,-0.83,-4.88,-1.03,40
-2.89,-1.0,21.73,-2.93,-1.46,-1.81,1.54,-9.03,19.82,-2.05,-1.46,0.93,-2.28,13.99,-14.38,-0.2,5.18,-1.81,40
-1.66,-0.65,21.93,-3.81,-1.17,0.54,1.32,-8.91,19.57,-0.2,-0.34,0.44,-1.79,12.93,-14.11,10.2,-0.83,2.98,40
-1.92,0.32,20.83,-3.03,-10.74,1.71,1.36,-8.01,19.62,-2.93,-0.1,-0.54,-5.06,12.34,-14.3,0.78,8.2,-8.01,40
9.1,8.97,0.21,227.05,13.23,128.08,16.23,-10.61,17.36,16.5,-7.81,-7.32,-11.69,5.94,-13.51,4.64,9.28,9.77,41
15.58,-7.6,15.6,-80.57,-112.65,-34.23,7.93,-6.77,17.06,7.03,95.8,-3.17,-9.2,7.87,-13.33,-80.13,21.09,73.1,41
4.06,-7.18,20.75,-18.46,-46.44,3.86,1.52,-4.16,17.63,6.35,56.1,-28.81,-2.63,20.48,-14.48,6.69,2.2,3.32,41
15.33,-6.23,19.29,-0.73,-41.11,-8.01,2.96,-15.44,21.16,-28.27,37.11,-3.03,-10.32,7.07,-8.5,-82.91,-8.74,-15.62,41
8.05,3.91,17.71,39.65,103.17,-36.57,-1.04,-5.74,18.57,4.54,23.14,-7.67,-10.12,11.97,-8.06,21.92,6.05,23.83,41
-0.29,-0.21,19.42,28.03,97.31,-51.27,0.07,-6.67,19.24,-7.47,1.46,-10.89,-8.62,15.09,-10.02,-6.1,-2.69,8.94,41
-3.2,1.48,20.59,16.11,27.59,-13.48,0.33,-11.83,19.6,13.23,-1.61,4.59,-7.92,15.6,-9.82,5.66,-6.35,-6.64,41
-3.57,2.21,20.25,16.65,21.78,-12.16,1.13,-7.83,18.6,-22.12,-2.44,-7.03,-8.02,14.32,-9.38,-4.15,-0.59,3.47,41
-5.8,2.63,21.73,-16.31,-3.47,-11.43,1.01,-11.26,19.49,8.25,5.37,7.18,-8.8,16.26,-9.93,-4.49,0.29,-4.3,41
-4.45,-0.85,20.89,31.74,20.41,5.62,-0.67,-7.36,18.68,4.0,-1.27,-4.49,-8.57,15.08,-9.92,14.4,3.61,2.83,41
-1.93,1.01,22.1,-22.9,-4.15,-11.33,1.39,-8.89,19.15,22.17,-1.51,0.05,-8.82,14.13,-10.52,9.72,2.64,3.27,41
-2.08,-0.05,21.69,3.27,-17.24,6.79,1.74,-8.25,19.37,19.97,4.1,-1.66,-7.2,14.34,-10.66,7.86,2.34,14.79,41
-7.55,2.02,20.43,5.52,3.42,-2.0,0.4,-8.66,19.93,7.32,11.62,-6.25,-7.86,14.98,-11.29,6.79,-0.29,1.56,41
-2.82,0.3,21.65,14.7,7.03,-1.22,-0.05,-10.23,20.59,-20.61,-0.15,-0.98,-8.64,14.82,-11.4,15.19,0.83,1.46,41
-1.4,1.2,21.13,16.6,-6.45,0.34,0.78,-6.48,20.64,-2.44,-3.52,0.15,-7.5,16.21,-12.55,7.57,5.13,-1.9,41
-3.63,1.76,20.87,13.92,-15.53,0.63,-0.43,-5.97,19.2,-11.72,2.78,-4.64,-7.24,13.91,-11.32,0.24,-2.69,4.05,41
-4.43,0.76,21.25,-1.47,-10.89,-3.71,0.57,-6.49,19.87,11.96,-2.98,-3.08,-7.0,14.76,-11.11,7.96,4.2,2.88,41
-2.92,3.32,21.03,-1.12,-8.45,-0.05,-0.46,-6.59,20.72,1.27,0.05,0.39,-7.38,15.35,-12.62,9.47,5.47,5.13,41
-4.14,3.79,19.87,-14.36,3.66,-8.64,-0.65,-6.21,19.65,-3.27,2.44,1.12,-8.25,12.86,-11.34,-12.26,0.83,-2.39,41
-4.99,3.54,19.86,15.04,13.82,-4.69,-1.64,-7.58,19.44,-0.15,-0.59,2.15,-7.62,14.12,-10.84,-0.39,1.76,-0.59,41
3.45,-0.54,22.5,-6.64,-18.85,5.37,0.7,-9.58,20.42,-12.11,0.2,0.54,-6.41,12.61,-14.08,-8.15,2.64,-4.69,42
-2.39,2.34,19.99,-0.34,12.79,-1.22,1.04,-10.01,19.86,-15.09,-0.15,1.51,-5.98,12.18,-13.1,-1.07,1.07,-2.29,42
0.65,1.44,20.61,14.5,8.94,2.54,2.24,-9.61,20.46,-26.95,-4.93,11.08,-7.09,7.95,-13.24,27.54,13.04,12.06,42
2.02,1.04,21.58,-8.2,3.03,-2.0,-0.64,-9.67,18.2,-14.06,-14.65,44.04,-8.05,-0.33,-20.22,113.33,-12.01,203.27,42
0.31,0.48,21.29,-2.88,-17.87,5.71,0.32,-7.47,18.78,42.48,96.09,69.04,-11.17,5.02,-20.06,-154.25,-3.56,-48.88,42
1.74,-1.71,23.36,-16.89,-7.96,16.41,-19.66,10.08,12.85,-21.05,-52.88,24.22,-4.31,10.66,-15.49,18.65,66.46,11.96,42
-1.29,-3.32,19.26,49.51,31.69,25.44,39.05,-27.32,14.33,137.65,-264.89,1.61,14.61,4.24,-38.69,91.7,199.32,-286.91,42
-1.48,5.38,17.77,8.98,99.61,14.7,-2.46,0.27,16.31,-63.92,-24.56,-39.84,-26.86,-30.86,-30.23,-468.65,226.07,12.79,42
-5.5,6.81,17.86,-215.77,-157.57,60.5,-5.62,-10.58,16.69,-64.31,110.64,-53.71,-7.75,24.61,-17.29,258.94,-36.18,87.89,42
-12.61,-41.9,41.65,-163.77,-159.86,27.39,5.86,-16.54,19.16,-3.91,117.58,-21.78,-0.9,20.72,-16.16,56.25,17.53,52.05,42
-1.85,8.53,16.18,-36.23,-52.0,-42.29,1.37,-10.69,19.42,51.07,41.94,-2.88,-6.14,16.03,-18.24,19.38,25.78,11.38,42
-2.26,-3.79,20.01,28.61,148.19,-96.83,2.4,-4.66,20.94,6.69,-1.42,8.15,-5.6,14.6,-16.0,18.65,0.2,-3.47,42
-10.17,-6.81,23.82,42.48,19.68,-49.51,0.2,-6.53,18.7,-11.82,-0.44,-3.12,-5.34,13.52,-12.98,-10.25,-2.78,-1.81,42
1.54,1.59,24.76,60.5,-70.65,13.09,2.82,-12.19,21.03,-4.0,-31.4,20.65,-7.78,11.42,-12.33,-6.69,-0.93,-0.73,42
-1.1,2.57,21.57,14.06,20.51,2.25,2.83,-1.65,19.64,8.54,-35.74,-30.27,-5.37,12.77,-12.36,5.62,15.28,7.47,42
-1.06,0.7,21.47,-31.01,-30.27,-1.81,5.43,-8.04,22.44,19.68,3.61,2.73,-5.36,11.13,-12.97,-20.07,7.23,3.32,42
-0.33,1.41,20.46,21.14,-38.33,17.24,2.91,-9.75,19.94,-15.19,4.1,3.81,-4.67,15.47,-13.92,-11.33,-5.81,-7.03,42
4.43,0.54,25.3,-47.17,-87.89,-7.67,2.74,-8.26,19.84,2.2,-7.91,0.93,-4.49,13.7,-12.36,3.12,-0.49,0.93,42
4.98,3.79,21.57,27.83,61.52,-12.4,1.86,-7.72,19.7,-4.3,-0.73,2.0,-4.24,13.04,-12.94,-8.45,-4.54,-2.29,42
-0.75,2.09,21.27,5.03,1.81,-1.27,2.32,-8.73,19.87,-12.99,-1.17,8.35,-5.38,14.98,-14.22,8.98,-1.27,-6.35,42
-0.59,-0.33,19.66,80.76,85.79,15.53,-40.78,13.57,5.56,21.78,-16.11,15.43,-7.09,0.42,-20.56,410.64,-72.85,166.21,43
2.13,7.2,19.03,73.63,103.13,36.62,-3.18,-28.04,5.66,-160.16,-231.79,-51.07,-9.87,12.78,-15.72,-70.85,34.67,8.45,43
-18.89,12.67,11.76,-25.93,38.72,-23.39,-22.87,5.73,31.23,-48.88,177.05,-18.46,-12.19,9.11,-10.85,-3.61,2.83,51.17,43
-17.52,1.01,17.75,-137.26,-147.85,47.41,2.01,-2.08,18.71,-50.0,107.18,-19.68,-8.66,13.42,-15.62,2.44,31.69,55.71,43
-2.69,-7.89,25.11,187.21,7.91,53.37,9.76,-7.81,20.02,33.2,-25.2,-19.19,-8.4,8.61,-13.58,8.94,2.49,45.21,43
6.87,-1.05,13.53,-65.23,-153.37,-44.24,12.92,-9.33,19.31,-9.08,46.53,-9.77,-6.92,11.93,-13.0,-18.7,6.59,4.39,43
6.06,-2.67,18.83,-11.62,-56.88,5.03,4.81,-2.48,18.4,-0.98,50.63,-12.3,-6.77,12.98,-13.67,2.39,2.34,-3.81,43
15.99,-2.53,20.1,-22.85,-24.71,-43.41,3.71,-7.42,19.43,-27.2,20.56,-7.52,-6.09,13.96,-15.21,24.02,8.94,4.49,43
3.05,2.36,17.48,39.99,124.76,-46.0,3.55,-9.26,19.96,-19.29,1.27,-0.78,-6.44,12.24,-14.37,0.88,0.78,-0.15,43
4.12,1.4,19.49,-15.92,45.65,-17.43,2.33,-6.04,18.72,7.13,-2.98,1.12,-6.62,12.49,-13.95,1.81,3.08,-0.83,43
0.87,1.43,20.5,-16.5,-4.15,-3.47,3.05,-11.34,20.22,-13.77,1.66,0.1,-6.3,12.63,-13.73,-0.59,2.1,-3.71,43
-0.88,2.95,20.44,5.81,-6.74,3.71,2.03,-7.35,19.1,-2.49,6.4,2.29,-6.32,12.5,-13.64,-4.74,0.63,-2.98,43
2.57,0.79,21.46,-13.87,-1.66,-4.59,3.24,-8.38,19.44,3.91,8.79,3.61,-6.21,13.15,-13.45,2.69,0.93,0.93,43
1.09,1.8,20.35,-0.98,18.36,-2.29,2.82,-5.99,19.35,7.47,5.66,3.86,-7.24,12.32,-13.63,-4.25,-0.15,-1.76,43
1.28,0.85,20.84,0.24,9.52,0.29,2.91,-7.73,19.88,-2.44,1.22,0.93,-7.44,11.95,-12.64,-6.88,0.63,1.07,43
0.81,2.18,21.18,-0.0,8.69,0.73,3.09,-6.89,19.84,-2.05,3.03,-1.22,-5.88,13.51,-13.87,5.22,2.49,-2.73,43
-0.31,2.14,21.13,-2.44,0.63,-0.05,1.4,-7.24,20.03,-5.03,16.5,-2.0,-6.97,13.27,-13.44,-1.9,0.78,-2.88,43
-0.81,2.55,21.32,1.27,-2.34,-0.1,1.07,-8.24,19.38,1.95,1.32,-4.39,-6.26,12.05,-12.85,-3.61,2.69,1.46,43
-1.89,2.66,21.51,0.05,11.33,-2.59,2.82,-7.26,19.95,3.42,-3.32,1.71,-7.32,12.98,-13.33,-3.86,0.54,-3.08,43
-2.09,2.29,21.23,5.18,-5.91,-1.71,1.4,-7.82,19.88,-4.49,3.81,0.93,-6.55,12.92,-12.63,1.51,0.0,-1.61,43
-4.24,0.75,14.98,85.79,144.87,-0.49,-11.87,-2.72,18.63,36.87,4.98,29.59,-7.36,14.95,-10.81,3.42,1.66,-2.1,44
-6.19,4.66,22.61,-23.14,-18.75,38.87,-2.25,-9.47,12.18,-152.88,-65.62,33.11,-5.74,14.31,-10.02,-2.73,-2.69,2.25,44
-7.3,3.98,17.03,-31.88,36.62,23.68,-28.23,-41.9,-40.41,189.94,-114.94,-124.8,-6.78,14.34,-11.59,0.59,5.47,-0.93,44
-2.4,-16.27,14.38,-280.03,-256.01,96.48,7.83,-7.68,13.73,-159.77,-95.46,-54.93,-6.73,14.75,-11.51,-4.39,3.52,-1.17,44
-8.37,18.88,17.63,125.78,64.89,-58.35,-8.63,-7.66,20.36,33.84,87.45,-56.59,-7.37,14.77,-10.51,-2.78,-3.56,-0.44,44
4.64,-3.64,19.38,-20.36,11.82,-89.6,6.58,-13.41,22.65,12.3,25.2,-4.88,-6.18,14.61,-10.0,-1.56,-2.2,0.98,44
5.21,-9.12,23.86,-23.24,-12.11,-15.14,4.01,-3.84,19.91,24.8,7.52,-2.73,-7.25,15.09,-11.08,5.03,2.73,0.73,44
-2.99,3.95,21.28,28.86,20.46,-7.03,3.62,-9.27,20.14,-1.12,-2.25,-0.05,-6.65,15.06,-10.73,4.3,-0.39,-3.86,44
-1.78,0.35,19.25,19.68,34.57,-1.46,0.26,-6.73,19.78,5.66,-6.93,-3.22,-7.73,14.66,-10.47,-5.47,1.17,0.0,44
-2.37,0.8,19.52,8.84,13.33,-1.46,0.55,-4.81,19.2,1.42,13.72,-6.98,-6.36,15.95,-11.44,-2.15,-1.46,-6.1,44
-1.45,1.73,18.23,0.98,23.54,-6.45,2.02,-6.58,21.21,-5.57,3.22,-3.71,-7.48,15.31,-11.1,5.71,3.22,-0.98,44
3.05,1.75,21.92,-1.66,-2.39,-7.62,1.79,-6.37,20.34,-2.1,-3.71,-1.22,-7.65,15.63,-11.47,6.93,2.98,-2.0,44
-0.39,1.49,21.47,-1.71,-2.83,0.59,0.72,-6.04,20.07,2.73,-3.52,2.44,-7.48,14.86,-11.05,5.37,-1.37,1.32,44
-1.2,1.83,21.23,-0.39,0.83,1.71,0.8,-6.63,20.73,-6.35,3.42,1.17,-7.1,15.22,-11.29,3.37,4.59,-1.12,44
-0.3,2.71,22.16,0.73,-10.25,-0.59,1.04,-6.24,20.14,-0.54,1.81,-1.46,-6.8,15.71,-10.53,0.88,-3.71,0.44,44
-0.75,2.15,20.99,-4.49,-5.76,-1.51,0.65,-6.6,19.76,1.12,-2.98,-0.68,-7.11,14.35,-9.16,-0.78,2.59,0.34,44
-0.78,1.63,20.96,0.34,-4.64,1.61,1.38,-6.49,19.76,2.34,0.49,-0.34,-7.21,14.1,-9.96,-6.54,-2.98,-1.22,44
-1.5,2.23,20.57,2.98,0.2,4.25,0.97,-7.61,20.33,0.2,-2.39,2.15,-8.18,16.11,-11.54,6.25,4.3,-3.32,44
-1.35,1.51,21.51,0.63,1.17,0.05,0.92,-6.69,20.06,-1.03,-1.42,3.56,-7.31,15.83,-10.58,7.71,2.49,0.15,44
0.53,2.61,21.64,2.0,-8.11,0.24,0.94,-6.47,19.91,5.96,0.78,1.27,-6.83,15.41,-10.88,6.49,5.37,0.24,44
-10.98,11.62,17.42,1.07,25.59,21.83,-10.58,-5.45,7.56,-249.17,-168.31,-0.88,-30.96,-18.45,-7.1,109.62,39.6,170.26,45
-16.19,1.04,10.17,-114.16,-76.03,50.83,3.91,-2.73,41.65,231.4,-439.16,-187.45,-14.99,6.78,-3.48,-149.95,-7.13,-5.03,45
28.86,-32.48,36.48,-134.23,-209.81,108.98,28.06,4.11,2.67,19.09,-119.14,24.32,-15.44,12.08,-4.55,-38.53,-14.4,-28.66,45
19.16,-14.7,17.43,-124.17,-193.41,-19.73,8.76,-20.92,16.68,-21.88,-8.84,4.44,-17.17,7.46,-3.39,30.13,-4.93,55.13,45
2.29,-16.31,19.83,-25.93,-25.83,-2.98,12.45,-12.11,11.6,-94.63,14.5,-43.95,-16.73,10.48,-5.01,-16.75,12.45,22.22,45
18.68,-5.8,20.6,-77.54,-98.83,-88.28,4.18,-12.23,17.25,32.37,50.15,-12.7,-14.35,14.64,-6.07,-4.25,6.54,11.57,45
1.0,-1.26,20.57,71.78,46.34,-19.48,4.85,-9.69,17.48,10.45,-0.15,-6.84,-12.64,17.96,-7.01,-3.37,-3.66,-0.78,45
6.91,-4.24,20.62,7.47,17.58,-7.71,4.7,-10.6,18.69,8.5,-1.9,-0.49,-12.78,16.35,-6.64,10.3,-7.67,5.03,45
4.8,-2.4,21.73,5.71,-3.66,-0.88,1.96,-9.77,18.35,8.45,3.22,-1.76,-12.97,14.89,-6.99,12.21,-0.88,8.15,45
2.62,-0.54,21.44,3.95,-7.28,-0.93,2.18,-10.82,18.02,10.45,12.94,0.39,-12.34,15.29,-7.12,2.69,2.54,1.32,45
1.54,-1.39,20.5,11.13,-2.59,-3.17,2.92,-10.38,18.46,-3.08,-6.79,-3.37,-12.95,15.0,-7.35,5.57,0.44,-3.37,45
1.07,-1.33,20.25,8.98,1.17,-2.73,3.6,-9.56,18.67,-0.98,-6.88,1.07,-12.03,15.22,-6.95,7.23,0.0,-1.76,45
2.61,-0.36,20.93,4.2,2.54,3.22,2.84,-9.77,18.75,-7.57,7.57,1.61,-12.62,14.6,-6.97,1.37,1.46,-2.2,45
1.23,-0.41,20.4,9.03,23.68,-2.83,1.37,-9.67,18.5,-4.93,15.48,2.64,-12.94,15.69,-7.1,4.83,4.49,-1.42,45
0.17,-1.13,20.43,8.5,23.24,-2.88,0.7,-9.01,18.29,-1.07,2.59,2.93,-12.25,15.51,-7.0,5.18,1.22,-0.05,45
-0.04,-0.28,20.29,4.54,8.06,0.34,2.0,-8.83,18.78,-0.88,0.1,2.93,-12.93,14.43,-6.13,10.3,1.27,1.81,45
1.19,0.4,21.19,4.1,11.38,0.78,1.42,-9.17,18.6,-5.47,8.5,1.76,-13.34,13.18,-6.82,-3.47,4.44,-0.29,45
1.22,-0.45,20.77,-0.78,12.65,-1.71,2.7,-9.45,18.59,-3.22,4.0,-1.17,-12.77,14.26,-7.9,0.83,3.76,-4.35,45
2.88,-1.93,21.66,1.27,7.13,-0.2,1.66,-7.63,18.5,8.59,2.44,-0.49,-12.38,16.29,-7.43,2.64,0.24,-3.61,45
1.86,-0.27,20.81,3.56,2.0,0.68,0.59,-8.12,18.82,9.77,-1.32,5.22,-12.18,15.72,-7.73,12.7,2.88,0.93,45
-9.93,9.56,15.83,7.37,60.74,-0.54,8.93,0.68,16.09,4.3,1.32,-46.14,-10.39,1.81,-12.62,-37.55,53.56,-16.85,46
-16.82,10.07,18.43,-85.64,-199.12,78.71,15.12,-16.27,14.58,-27.34,-32.28,-4.88,0.17,11.56,-17.71,-1.86,121.09,-45.51,46
-6.38,-17.24,19.02,-27.34,-20.46,24.22,13.53,-7.59,15.92,-8.25,-3.76,6.1,0.84,4.49,-13.22,-258.11,-19.92,-253.17,46
19.81,-3.86,15.23,-89.01,-75.59,-19.09,10.47,-6.51,15.47,-14.16,2.15,0.78,-15.9,3.25,-10.23,182.32,-65.43,102.54,46
13.47,-4.34,15.66,-20.95,-59.86,9.77,10.05,-6.84,15.28,-1.56,2.54,-3.86,-12.72,10.29,-10.01,-102.88,29.35,-8.35,46
14.97,-4.97,16.79,14.6,7.96,10.06,9.6,-6.64,15.66,4.93,15.77,5.52,-13.3,12.75,-7.99,-4.2,-2.59,-6.64,46
11.13,-3.11,16.76,0.54,7.81,3.17,10.34,-9.05,16.58,3.91,49.76,6.2,-13.03,13.28,-7.8,-2.39,-6.45,2.25,46
11.08,-2.67,17.56,8.89,8.11,0.2,6.82,-5.13,17.14,13.87,50.73,8.74,-13.35,12.46,-7.86,-18.07,-6.49,2.0,46
11.15,-1.08,16.88,8.54,19.63,-1.27,9.48,-11.04,19.05,-21.34,20.61,-3.37,-13.53,14.41,-8.58,-4.49,-2.78,-2.15,46
10.56,-1.49,18.74,-4.98,58.64,-23.73,5.45,-6.29,19.21,25.29,38.77,1.61,-13.54,11.52,-8.22,10.74,-4.1,11.23,46
6.69,0.38,19.66,-11.23,54.35,-19.87,2.57,-5.68,18.77,4.78,35.69,7.76,-13.63,14.06,-8.7,4.2,2.49,5.96,46
7.39,-0.75,21.22,-10.35,0.83,-7.76,3.25,-8.17,20.21,-14.5,11.38,-1.37,-12.3,13.6,-6.69,7.23,5.81,5.81,46
5.98,-0.04,21.32,13.53,0.49,1.76,1.71,-7.79,20.38,4.78,26.95,7.23,-12.99,12.72,-6.92,-6.79,3.37,1.22,46
3.2,1.81,20.54,0.98,-7.28,-2.0,-0.35,-5.63,18.93,-0.34,-4.0,-7.28,-12.73,13.82,-7.21,-3.56,-2.44,1.86,46
-1.76,0.91,21.8,8.25,15.43,0.05,1.61,-9.0,21.0,26.66,-3.56,-4.05,-12.18,13.27,-6.98,-6.93,-2.29,1.95,46
-1.26,1.45,21.7,18.85,39.6,-3.71,1.89,-7.24,20.55,-7.08,-0.29,1.22,-12.64,13.37,-7.73,2.49,-1.17,-0.1,46
-1.62,1.41,20.59,5.08,-8.94,-2.59,1.18,-8.19,20.29,-3.86,1.61,0.54,-12.95,10.63,-6.03,-6.49,4.39,7.03,46
-1.23,1.94,21.37,18.36,-26.86,0.29,1.33,-8.27,20.9,-4.69,8.94,-4.25,-11.43,13.92,-7.8,-3.91,1.07,9.18,46
-1.08,2.79,21.54,11.38,11.57,0.34,0.72,-7.48,20.31,-1.9,-0.39,-4.35,-12.34,14.27,-7.68,-6.98,-7.57,-1.71,46
-1.01,1.74,21.0,11.62,8.5,1.95,0.26,-6.69,20.13,3.86,2.0,-1.56,-13.13,14.56,-7.78,2.2,0.63,-5.08,46
7.84,3.06,10.87,-166.41,-273.78,62.89,6.34,3.17,13.75,66.89,-7.76,-17.48,-15.69,11.35,-7.77,25.05,5.42,8.2,47
-5.3,25.69,16.8,-1.32,-165.23,-7.52,6.4,-3.04,16.0,41.8,3.37,-13.09,-15.01,12.1,-9.96,-25.63,1.51,6.1,47
11.94,-4.81,18.68,-70.46,-21.44,-10.25,11.4,-5.13,16.28,22.7,51.76,-10.3,-15.32,14.35,-11.15,23.83,-16.46,3.17,47
6.67,-2.36,19.23,2.34,-17.19,-17.92,9.08,-11.41,14.39,-63.48,59.38,-21.0,-12.79,13.33,-8.06,40.43,-5.03,40.14,47
6.42,-0.44,18.64,11.62,9.18,-8.35,1.77,-6.77,17.39,31.88,13.96,2.05,-13.78,15.11,-4.86,-25.29,-74.66,-3.61,47
12.75,0.47,18.55,20.7,34.72,-25.73,2.73,-11.22,18.54,7.42,20.36,19.38,-13.44,14.85,-6.29,-0.83,-8.06,-14.11,47
0.64,-3.14,18.72,4.74,87.35,-48.0,3.52,-8.46,16.81,24.27,41.89,17.33,-14.73,11.79,-6.34,8.06,3.13,-0.34,47
4.12,1.84,19.93,17.04,-15.67,-7.52,1.66,-8.13,19.59,19.19,30.71,3.81,-15.71,11.34,-6.5,1.81,6.2,3.32,47
3.09,-3.85,21.81,-4.39,49.71,5.66,0.15,-4.59,18.6,13.04,23.14,0.78,-14.41,12.49,-6.15,-0.98,6.98,4.3,47
-4.59,2.94,20.64,42.04,98.29,-9.28,0.6,-8.24,20.65,-1.37,12.16,-0.2,-14.26,13.64,-7.18,5.71,-0.29,-0.2,47
-1.25,0.37,21.32,16.26,19.09,-3.08,0.33,-7.92,18.43,-10.84,-0.29,-7.08,-14.32,11.99,-5.91,0.34,2.64,7.37,47
-1.76,3.51,22.04,-3.86,-32.18,-2.93,-1.75,-6.4,19.4,3.91,-15.82,-3.03,-14.29,12.99,-6.25,-5.71,3.61,5.08,47
-1.38,2.27,21.32,5.22,-10.06,-4.1,1.19,-5.15,19.85,6.98,-12.65,4.1,-12.07,13.93,-6.95,-7.08,-0.44,0.44,47
-1.75,0.6,20.47,-6.1,-18.02,-2.0,3.04,-7.62,20.75,-15.43,-12.26,0.88,-15.07,11.96,-6.79,-9.08,-2.54,-8.74,47
-3.97,1.69,20.86,9.13,-6.3,3.17,0.73,-8.16,20.28,-14.31,4.59,2.73,-13.16,14.48,-6.83,4.59,0.05,-6.88,47
1.29,1.86,21.47,-6.35,-15.04,8.59,-1.63,-6.37,19.04,3.03,-2.25,4.69,-14.39,12.0,-6.71,-2.88,2.39,-1.12,47
0.01,2.27,21.29,-7.52,-5.62,3.76,1.46,-7.44,20.36,7.81,-0.29,-1.46,-13.89,14.37,-7.13,1.12,3.27,2.39,47
0.5,1.36,20.84,4.05,16.5,1.76,-0.88,-7.35,19.81,6.1,8.54,0.63,-13.11,14.75,-6.99,8.15,3.03,1.32,47
-3.59,2.53,20.53,-0.0,6.54,2.78,-0.83,-6.01,19.43,5.32,-0.54,2.39,-13.87,14.14,-6.92,2.15,2.59,-2.25,47
1.87,1.57,21.41,3.56,-7.52,1.71,-0.05,-5.89,20.21,4.69,-3.27,1.22,-14.33,15.01,-7.59,3.71,3.47,-1.81,47
-1.67,4.05,19.85,-3.61,51.51,-15.04,-21.34,-1.61,14.0,15.62,21.83,14.31,-8.94,4.05,-17.33,4.15,-58.5,10.06,48
-12.41,6.1,14.27,-18.6,17.92,16.89,-14.16,-9.31,13.96,-125.78,-96.04,6.54,-10.77,5.36,-14.65,0.39,59.91,-12.99,48
-13.21,3.56,15.9,-27.39,-83.84,95.75,7.92,-14.55,14.67,-7.03,-227.15,-47.51,-5.57,5.28,-15.58,29.2,87.01,-21.97,48
13.8,-17.06,17.78,-268.31,-227.54,120.02,39.05,-38.07,-21.63,21.34,-547.02,-126.07,-41.77,39.88,-14.7,97.12,-188.09,-920.65,48
-3.55,25.11,17.33,232.52,-24.22,-4.39,15.07,-9.74,16.35,-163.92,-135.01,-17.19,-22.25,-25.2,-20.07,-360.6,159.57,-0.83,48
15.67,-9.97,14.33,-143.75,48.0,-21.68,16.57,-22.74,12.29,-127.78,20.46,-8.01,-2.99,22.79,-5.29,82.23,-75.73,62.79,48
11.45,1.4,17.31,24.85,3.37,10.11,13.07,-9.87,14.81,-2.93,-34.28,-16.6,-14.06,12.21,-8.33,-38.43,18.26,-4.15,48
10.09,-3.76,17.96,-15.09,-30.32,7.96,13.32,-10.16,14.11,-9.08,-21.53,-7.91,-12.98,13.03,-6.27,-22.31,-0.1,0.83,48
12.63,-2.4,18.02,11.23,-16.46,7.03,12.83,-5.36,14.95,-14.7,43.65,3.03,-14.63,10.62,-7.06,-28.27,2.54,-7.18,48
8.13,-3.31,19.55,2.2,54.2,-10.5,9.07,-11.77,16.71,17.63,114.89,31.45,-14.56,14.86,-7.11,13.04,3.47,-2.15,48
2.37,3.95,18.86,67.24,109.23,-2.83,3.53,-6.68,17.1,-16.94,44.63,2.05,-14.09,15.52,-8.91,-11.04,4.0,-20.36,48
3.01,-1.39,21.56,-17.29,8.5,-4.83,6.16,-12.3,19.64,-10.35,42.29,6.15,-14.67,12.62,-6.73,-5.27,10.25,-4.59,48
0.57,0.71,22.25,27.44,5.42,1.56,2.19,-7.02,19.41,34.52,54.15,13.09,-15.06,12.65,-6.94,5.47,6.2,-4.93,48
-3.37,0.45,19.26,46.29,36.77,-8.4,-0.37,-7.54,19.56,16.6,48.44,0.05,-12.87,13.18,-5.4,0.78,4.3,4.1,48
5.17,0.92,19.76,6.35,-16.99,-5.42,-0.2,-5.95,20.84,0.05,3.91,-0.78,-15.85,14.43,-9.07,2.39,3.22,-0.34,48
0.96,2.82,20.64,-11.18,-0.1,4.83,-0.13,-7.69,21.63,-18.07,-0.44,-1.95,-15.04,12.51,-9.15,4.44,2.49,-0.39,48
0.15,1.57,21.44,-2.1,3.56,2.2,-0.96,-6.8,20.18,-7.32,4.3,-2.15,-13.1,12.92,-5.98,3.27,7.32,-1.03,48
-0.31,2.24,21.43,1.32,-0.59,1.81,-0.73,-6.48,20.22,-2.54,11.33,-0.05,-13.26,12.72,-6.19,6.1,6.1,3.17,48
-1.22,2.2,21.52,-0.24,7.23,2.73,-0.6,-6.4,19.9,-13.13,7.03,1.56,-13.55,13.33,-6.66,8.15,6.15,3.08,48
-4.59,1.4,20.84,1.17,-8.5,3.96,-0.83,-6.34,20.51,-6.35,2.78,0.15,-11.77,10.74,-4.36,-8.89,-3.52,2.98,48
-4.23,9.33,15.76,57.76,88.38,-3.12,-24.94,7.82,9.75,17.87,15.92,19.34,-10.4,4.58,-14.05,-36.57,-43.02,2.93,49
-13.46,2.34,15.29,-63.92,-0.73,17.63,-14.32,-16.56,12.75,-237.6,-198.83,-3.27,-6.45,4.96,-13.38,27.83,66.8,12.06,49
-14.27,-2.35,12.6,-142.38,-238.72,66.55,3.51,-25.9,-25.73,116.02,-91.6,-90.97,-6.65,14.46,-18.37,43.26,82.13,-83.11,49
18.88,-2.79,24.77,34.08,99.27,37.55,13.24,-8.86,11.16,-309.57,-176.37,-38.43,-0.85,-36.07,-25.78,-570.26,130.03,-73.1,49
0.7,-5.16,18.9,-120.12,-280.32,33.2,24.63,-32.02,13.42,-115.87,-58.94,-7.32,-14.03,-9.84,-1.57,-151.76,26.22,16.99,49
3.97,-9.92,19.3,67.92,64.55,-40.38,13.38,-6.02,16.94,-35.55,-4.0,-4.2,-18.17,1.64,-7.83,-78.13,51.03,-34.33,49
10.72,-8.89,20.23,-18.6,13.43,-12.35,7.84,-6.5,19.44,29.88,44.43,12.06,-16.14,16.39,-8.97,-26.71,-12.01,-8.06,49
0.74,-2.21,21.33,15.19,42.19,-11.43,2.71,-8.55,17.48,42.43,46.78,4.49,-14.74,16.92,-8.04,22.8,-8.94,6.15,49
1.12,2.2,22.49,-2.1,-16.55,-6.25,7.82,-10.32,19.66,25.68,35.74,6.69,-15.15,13.67,-8.05,14.16,-7.03,12.99,49
5.94,0.34,21.94,35.2,28.96,-6.25,1.47,-6.99,19.36,11.72,52.34,19.43,-14.53,14.19,-7.01,7.42,-0.39,7.42,49
-2.75,3.47,21.29,9.96,33.25,2.64,0.43,-7.06,20.18,-7.91,24.41,6.74,-15.02,11.8,-6.82,8.45,-1.17,7.76,49
-0.18,-1.33,24.1,-16.06,7.81,-6.54,-2.29,-7.46,19.72,5.32,15.77,2.49,-15.63,12.03,-6.85,-0.2,1.76,-3.32,49
-3.74,1.36,20.58,-0.05,-18.65,3.56,-3.93,-7.5,20.54,7.13,11.13,-10.21,-14.93,11.94,-6.05,-7.03,3.71,1.32,49
-7.01,4.16,16.64,22.02,0.29,0.29,8.1,-11.2,21.57,-45.17,0.83,-3.47,-13.75,12.76,-5.14,-21.05,4.3,21.83,49
9.87,1.61,19.93,24.32,0.15,6.4,11.11,-6.22,20.71,-20.46,-20.26,1.71,-13.55,15.13,-8.17,3.61,2.2,-2.64,49
4.76,3.39,20.38,2.29,-5.42,0.0,3.23,-7.74,20.33,-8.4,24.32,0.98,-14.11,12.91,-6.78,-8.84,-5.52,-9.96,49
0.68,2.32,20.34,7.57,14.45,-0.44,-0.43,-6.28,19.91,2.05,11.28,4.35,-13.81,12.91,-6.54,2.2,1.17,-6.25,49
-0.04,2.64,21.39,0.29,1.95,-2.59,-1.07,-5.89,19.66,2.29,0.34,4.74,-14.0,13.97,-7.08,5.27,0.68,-0.88,49
-0.98,1.89,21.57,-7.18,0.49,1.12,-1.22,-8.05,19.52,3.32,9.23,3.27,-14.39,12.88,-6.59,1.51,2.54,2.64,49
-2.51,3.06,21.59,-1.71,-8.5,2.64,-1.95,-6.02,19.66,2.05,-2.78,1.66,-14.24,12.77,-6.45,3.91,2.64,1.27,49
-10.85,11.92,12.01,104.3,123.0,-9.08,-6.82,0.61,16.12,7.81,147.12,-24.02,-12.85,10.8,-5.84,-22.51,-10.35,-0.44,50
-2.65,7.52,22.75,-23.14,-5.62,1.12,-14.17,-0.65,14.78,-39.45,-25.54,-8.74,-14.97,12.82,-8.92,-4.54,-4.79,-3.42,50
-12.68,8.66,17.38,-20.17,32.13,-16.55,1.57,-13.68,11.15,-108.25,-285.5,-12.74,-13.59,12.77,-8.68,5.47,6.98,-5.37,50
-17.47,10.5,9.72,-126.07,-230.22,87.65,39.05,-35.95,-14.46,284.37,-134.42,-64.16,-13.29,12.84,-8.35,-4.49,-0.34,-2.0,50
5.17,-29.59,28.29,193.41,-67.82,82.03,12.96,-6.99,16.4,-69.38,-17.92,-17.29,-13.74,12.19,-7.79,6.35,5.13,1.61,50
4.49,-6.79,22.04,-68.21,66.21,-31.98,7.49,-14.38,18.92,-41.7,-43.75,-10.99,-12.53,14.22,-6.87,-5.52,3.37,12.16,50
7.98,-5.21,18.53,-36.82,-57.57,-0.29,6.26,-4.61,16.85,0.05,0.78,-2.73,-12.43,14.48,-9.05,3.86,0.24,-0.2,50
6.32,-0.44,19.49,-12.45,2.64,-9.47,5.4,-4.45,15.82,14.31,22.41,-10.99,-13.25,10.35,-7.74,-6.15,-6.25,-7.03,50
8.49,-2.32,17.23,-16.65,-16.85,-14.84,9.24,-9.9,18.59,16.99,46.63,5.81,-13.9,12.54,-8.16,-3.42,-3.91,3.03,50
13.27,-0.84,17.01,48.63,44.87,0.68,9.51,-10.17,16.97,-10.99,30.57,5.13,-14.48,12.58,-9.9,1.76,0.88,-4.2,50
11.21,-2.52,18.83,9.81,-60.79,14.21,10.07,-6.58,19.01,-5.22,15.48,-9.37,-13.54,13.42,-8.42,1.51,-0.68,-1.66,50
12.34,0.11,18.1,21.48,3.76,-12.35,3.34,-5.77,21.86,19.34,72.71,9.42,-13.64,12.4,-7.41,2.59,6.79,1.61,50
2.45,2.69,17.42,50.2,179.35,-20.12,-1.52,-5.43,18.79,2.78,47.22,8.79,-13.65,11.7,-8.92,2.78,6.64,2.34,50
-1.14,5.6,20.33,-12.7,37.79,-15.53,0.12,-10.52,20.91,-1.12,-3.08,-2.44,-13.12,12.78,-7.46,2.93,4.59,3.52,50
-4.51,1.3,20.61,9.52,-23.93,-0.93,1.06,-7.92,18.0,-29.44,14.01,-5.47,-13.84,9.36,-6.95,-9.52,-0.05,-1.12,50
-2.99,2.87,21.09,16.11,39.65,-6.25,-0.2,-6.52,19.77,9.42,26.27,5.03,-12.99,10.77,-7.48,-11.47,-5.32,-9.18,50
-2.56,2.22,20.96,5.62,22.22,-2.49,-1.13,-6.86,20.22,4.39,18.46,5.27,-14.95,14.19,-9.55,-6.35,-0.44,-7.32,50
-4.21,3.27,19.39,9.33,15.04,-2.25,-0.38,-8.87,21.31,-12.79,2.49,-4.69,-13.42,13.42,-8.21,-1.76,2.93,-3.71,50
0.02,2.35,20.93,7.81,5.32,0.54,-4.69,-5.81,18.28,15.77,-18.36,-10.64,-13.93,13.48,-8.55,1.86,2.1,-5.62,50
-8.27,4.4,15.19,24.61,-34.72,6.15,0.79,-11.35,22.89,4.3,9.96,-4.64,-13.8,12.81,-9.53,8.5,2.29,-2.0,50
1.6,-1.0,20.75,-30.96,22.75,8.35,1.04,-6.24,19.35,-43.7,22.07,9.18,4.67,16.27,-33.08,338.43,-50.88,238.57,51
-1.89,8.32,22.77,-24.61,9.03,35.16,2.88,-8.57,21.58,-15.92,8.2,43.65,-9.37,6.0,-21.88,-151.12,-37.79,-3.27,51
-11.01,7.66,16.4,16.45,91.55,-29.3,-19.92,1.92,9.77,123.34,180.86,-8.35,-3.54,9.52,-13.3,-4.3,-45.61,-5.08,51
-8.34,-0.27,16.4,-18.75,17.14,-20.12,-11.77,-10.44,14.3,-91.94,-17.72,-18.75,-6.96,11.72,-12.48,-8.98,-3.42,8.11,51
-7.8,3.52,20.35,14.55,-30.91,20.36,-6.66,-12.79,20.36,11.38,-11.33,-0.24,-6.64,10.42,-17.55,26.86,3.37,1.37,51
-16.32,10.52,10.72,-29.54,-71.87,63.18,-15.4,-0.36,10.56,-79.88,-168.55,-4.0,-4.32,11.37,-12.41,19.58,38.33,-20.56,51
21.94,-30.5,10.01,-245.31,-113.13,-29.2,-42.35,-39.58,-3.88,94.92,-100.68,-258.2,7.65,2.24,-35.98,-397.75,-289.4,-223.78,51
17.72,8.34,9.02,-72.22,-300.73,46.58,17.25,-13.61,20.05,-66.16,-117.04,2.98,-17.21,-1.01,-13.97,241.06,-99.46,42.38,51
1.83,-10.48,19.75,-53.81,36.47,-2.88,5.28,-25.52,13.6,-72.8,-11.67,7.67,-13.13,11.85,-7.69,-69.63,-12.99,-37.65,51
9.16,-3.08,18.7,8.98,-1.03,-3.03,8.36,-10.12,15.46,-2.54,8.69,1.61,-16.63,8.66,-7.11,-2.3,1.37,-6.84,51
7.32,-3.42,18.08,4.44,-6.01,3.03,6.84,-9.71,15.6,-3.37,3.86,-6.15,-16.53,13.51,-7.62,-30.96,-6.01,-4.83,51
11.93,-5.82,18.95,25.39,12.4,-25.05,11.91,-11.41,16.79,8.11,57.37,3.03,-16.22,13.62,-8.6,38.33,-5.08,15.09,51
-2.51,5.36,16.57,98.53,246.04,-84.47,4.91,-7.74,14.95,71.34,164.6,10.01,-12.6,7.64,-5.56,-35.89,-25.49,103.27,51
-2.99,-8.15,22.0,-61.52,47.27,-57.03,-6.81,-2.55,18.11,-72.56,35.3,-27.15,-10.18,14.34,-3.67,-1.17,-16.94,64.21,51
-18.52,0.44,20.6,19.48,5.96,0.44,-0.71,-15.33,18.91,84.28,-16.55,-5.71,-12.16,14.07,-4.61,19.29,16.55,23.0,51
-12.06,4.72,19.41,46.0,-41.99,17.48,-4.19,-3.44,19.65,69.29,-39.79,-4.49,-10.04,14.76,-5.95,5.66,23.0,21.97,51
-6.29,4.96,21.11,13.18,23.73,6.54,-0.7,-4.87,21.38,-11.87,-12.7,5.86,-9.15,19.3,-8.89,-20.85,5.08,-8.45,51
-3.37,-0.56,21.0,-12.94,-6.59,0.2,-0.63,-5.31,20.2,-19.87,-15.14,1.66,-7.96,17.96,-6.25,8.64,0.34,-0.83,51
-3.04,1.41,21.23,-7.96,-24.9,9.28,-1.89,-3.9,20.4,12.45,-10.4,3.03,-8.17,15.84,-5.9,-0.59,4.88,0.93,51
-0.62,4.03,21.16,1.81,-2.93,2.78,-2.0,-5.93,21.39,0.44,-2.64,10.16,-7.8,18.88,-7.43,-0.93,3.08,-5.86,51
1.71,3.33,21.91,-1.22,-3.66,-1.71,-0.45,-7.08,21.16,1.61,-2.73,3.76,-11.85,15.04,-9.69,2.83,4.2,-3.81,52
0.65,2.56,21.63,-1.86,-9.23,0.93,-0.35,-5.05,20.52,-4.69,4.69,-0.49,-10.32,14.66,-8.26,12.16,9.18,2.83,52
-0.32,2.74,20.46,2.88,-4.49,3.32,0.55,-3.87,20.54,-2.78,1.22,4.25,-9.31,13.91,-8.74,-4.98,-0.24,-1.17,52
-0.96,3.22,20.08,6.35,10.5,-0.73,1.65,-5.5,20.2,3.42,-2.44,-5.27,-10.51,12.97,-7.73,2.93,4.98,4.88,52
-0.15,3.53,20.92,1.32,10.21,3.22,1.26,-3.82,21.02,-9.96,7.42,2.98,-9.88,10.99,-7.95,3.17,8.01,-1.22,52
2.45,0.53,22.02,-0.88,-6.3,-0.2,-0.23,-8.55,21.0,-9.57,-28.61,31.05,-9.08,4.94,-17.69,138.53,-15.53,127.98,52
2.55,1.53,22.73,19.58,34.72,10.11,2.49,-4.7,24.02,40.33,115.19,12.16,9.72,36.72,-40.42,270.26,-145.95,24.17,52
-2.32,3.66,19.19,26.27,-6.84,47.9,-15.36,3.89,13.3,-26.03,0.54,3.42,-6.13,3.89,-15.93,-129.83,-58.74,17.33,52
-1.72,19.59,22.53,78.47,18.16,-19.48,-4.77,-14.99,8.7,-255.96,-183.35,-32.32,-3.11,7.52,-15.8,51.27,96.34,-48.14,52
-8.41,7.51,19.2,-53.08,75.34,-18.36,-25.56,-41.9,-40.41,-53.27,-76.86,-171.09,24.08,8.51,-12.42,101.12,126.76,-135.35,52
-9.88,-1.03,21.54,-155.47,-131.84,64.11,15.0,-9.56,11.6,-245.02,-85.06,-32.47,0.68,-21.49,-38.76,-525.63,-36.57,-29.88,52
17.71,-21.51,41.65,-220.17,-163.33,-168.9,4.99,-8.42,13.13,-93.99,-63.48,-17.63,-5.26,26.05,-6.44,58.59,-93.36,-20.36,52
10.14,2.76,16.19,-214.45,-254.2,-26.22,6.35,-6.45,15.0,-27.59,-7.47,-4.3,-13.31,13.73,-7.11,32.13,-8.98,20.41,52
6.71,-8.9,16.49,-18.95,15.67,5.81,8.89,-6.1,16.81,18.7,84.81,10.64,-16.02,8.16,-7.54,28.08,17.82,21.68,52
8.2,-6.46,16.98,-6.54,4.98,1.56,4.68,-8.62,18.52,58.35,29.1,0.98,-12.17,15.99,-7.8,-15.77,-20.07,36.47,52
12.68,-1.85,17.27,53.91,148.58,-35.11,1.84,-4.71,20.71,51.66,28.27,-5.66,-11.43,15.55,-7.43,-13.57,30.03,29.88,52
2.46,-0.49,21.49,28.03,9.67,-13.09,2.64,0.77,20.24,2.15,64.06,-15.58,-9.98,13.17,-7.31,-28.81,8.59,64.16,52
0.73,5.49,22.24,40.67,19.82,-8.54,-2.98,-3.49,21.23,-9.33,31.49,-9.33,-9.69,15.17,-6.57,-24.41,10.3,20.7,52
-1.77,7.19,20.98,22.75,87.06,-57.96,-2.52,-3.85,21.05,-2.39,-2.83,4.74,-8.24,17.2,-5.56,7.47,-1.32,-0.29,52
-1.49,4.01,21.07,-9.52,15.38,-18.65,-1.82,-3.04,20.39,-7.28,-6.84,0.78,-8.37,16.07,-7.21,0.73,2.59,-1.42,52
-6.77,2.82,18.87,-28.17,36.08,-12.26,-12.14,-7.46,15.73,-46.39,18.21,1.22,-5.7,11.7,-16.72,22.95,12.99,1.17,53
-11.27,1.5,18.18,-41.8,-2.73,-5.91,-10.26,-9.8,17.98,1.42,-6.05,1.46,-7.33,12.85,-17.38,17.63,53.32,-28.76,53
-13.28,5.61,18.58,-30.86,10.06,-12.06,-11.19,-10.5,17.3,-44.09,-14.26,-4.93,8.51,-5.13,-40.19,70.41,122.71,-249.12,53
-14.09,-1.29,17.95,-90.53,-62.6,59.13,0.65,-19.15,13.45,-151.71,-208.45,-11.91,-42.35,-41.9,16.63,-309.86,56.45,-5.27,53
11.34,-1.15,7.65,-294.04,-275.05,117.43,-42.35,39.86,41.65,165.82,-146.44,-387.4,-25.42,22.63,-12.84,46.29,31.25,20.75,53
5.72,-2.18,12.41,-35.5,149.61,52.59,14.31,-41.9,16.71,-118.26,8.15,69.78,-17.44,10.57,-7.32,-35.64,5.47,-5.42,53
-7.71,-4.08,16.14,65.53,41.11,-61.77,-1.92,-7.01,13.47,105.37,-28.32,-56.49,-15.91,13.98,-7.44,1.66,5.62,-0.24,53
6.39,-7.58,19.01,9.23,8.2,-11.72,5.69,-12.62,16.08,-2.73,2.25,-11.38,-14.95,11.27,-8.4,6.64,12.94,9.03,53
9.39,-10.85,18.89,8.5,-12.21,-13.23,7.69,-9.72,12.4,23.29,14.79,-3.86,-14.05,12.95,-8.1,9.23,12.11,14.7,53
5.38,-4.25,17.67,0.15,-17.92,-10.16,6.52,-13.25,15.67,1.07,0.29,-10.06,-13.96,14.44,-8.7,4.64,3.91,1.71,53
6.48,-5.11,17.28,-4.49,-19.29,-9.08,7.8,-14.36,15.61,-9.96,-3.56,-15.53,-12.93,14.05,-7.54,6.74,8.25,3.91,53
8.93,-5.51,18.26,10.99,-0.29,-6.88,6.8,-12.69,14.81,4.3,3.37,-1.51,-14.16,12.03,-8.31,12.89,4.49,4.64,53
6.85,-6.37,17.99,4.83,-0.2,-2.39,8.14,-12.26,14.7,-14.94,0.98,-6.59,-15.4,12.12,-10.37,-6.05,6.15,-10.74,53
9.81,-5.06,17.95,-11.04,-8.3,-8.25,7.01,-11.09,15.6,-6.64,-3.47,-9.81,-12.64,12.69,-8.32,6.4,-0.88,14.11,53
11.35,-6.71,16.93,8.2,0.73,-29.49,7.68,-12.47,14.16,15.72,21.19,-5.57,-13.83,10.32,-9.61,18.26,25.78,39.65,53
8.55,-5.8,16.42,20.21,113.77,-16.16,2.24,-13.97,16.05,18.51,64.01,12.35,-13.08,10.83,-9.82,29.49,15.82,56.35,53
3.66,-3.92,20.28,25.0,24.07,-17.14,4.14,-12.01,17.42,28.08,16.85,-4.39,-9.69,11.61,-11.62,-1.51,30.96,42.97,53
1.64,-1.66,21.65,13.67,59.47,-7.23,3.84,-7.9,18.19,42.63,23.05,0.54,-4.77,13.28,-12.5,13.82,2.78,58.79,53
3.23,-0.24,21.03,15.87,52.34,-21.04,0.27,-10.76,18.55,10.3,50.2,7.57,-6.76,12.27,-13.77,-27.2,17.58,10.06,53
-6.0,2.28,21.23,17.97,76.32,-30.03,-5.13,-4.96,18.04,55.71,76.95,-2.64,-4.66,14.9,-14.08,10.94,5.47,7.47,53
-5.03,4.84,19.5,-49.02,52.29,-20.61,-8.0,-13.71,15.49,-75.15,-45.07,14.11,-0.07,6.42,-12.19,-6.3,-41.89,-15.43,54
-7.77,4.89,17.47,-5.81,11.67,18.99,-7.36,-8.66,16.86,-21.58,-31.69,-1.42,-6.1,11.27,-16.0,12.55,25.34,-5.91,54
-7.2,6.86,18.09,-9.23,17.97,-1.42,-14.7,-13.86,13.63,-17.58,-57.08,-13.53,-5.33,12.39,-18.23,-8.06,23.49,5.47,54
-9.0,4.75,19.52,-35.99,-17.09,20.61,-9.35,-15.75,15.58,-47.41,-82.03,11.52,-0.88,11.8,-16.84,38.04,25.68,1.71,54
-14.57,10.06,17.06,-74.32,-99.85,103.81,30.7,-41.9,25.7,-143.9,-331.59,57.32,9.99,27.44,-16.48,-12.45,147.12,-250.63,54
19.36,-12.84,14.68,-42.33,24.46,-57.32,9.0,-16.81,9.46,-406.01,-96.78,56.45,-1.09,-41.9,-40.43,-723.88,338.43,53.22,54
6.71,-2.76,16.65,-178.76,-5.27,35.64,-2.41,-12.87,13.3,-35.89,97.66,-19.43,-8.73,8.95,-6.06,310.45,-29.39,35.64,54
-4.13,-3.92,17.73,18.95,36.04,-38.18,6.53,-8.43,13.59,-6.05,-0.78,-7.37,-17.2,5.96,-1.82,-31.1,-5.66,3.32,54
6.79,-7.5,21.86,-24.37,-15.04,-10.99,8.35,-16.16,14.42,8.89,-0.59,-14.36,-18.5,10.73,-3.82,29.39,16.6,19.24,54
9.56,-8.94,18.64,22.7,-17.33,-10.3,8.2,-13.74,15.25,-0.54,-15.92,-14.55,-16.22,12.82,-7.34,9.33,6.84,4.59,54
8.46,-6.09,18.97,2.98,-30.66,-7.86,8.21,-11.87,14.39,-12.11,17.92,-27.49,-16.47,9.97,-6.1,-13.92,0.24,27.69,54
7.33,-4.61,15.99,-23.39,11.28,-46.78,8.23,-10.35,14.45,-43.12,-3.32,-62.16,-16.46,6.36,-4.93,32.57,-68.51,98.73,54
10.28,-5.25,15.44,-68.51,-33.25,-52.34,11.8,-24.38,10.88,15.92,135.79,19.73,-12.43,10.24,-2.28,45.75,13.48,82.91,54
11.08,-8.03,15.48,89.45,170.31,-53.96,-6.39,-2.24,15.7,198.63,183.01,-10.94,-10.47,20.54,-9.36,-9.38,28.42,-14.6,54
-1.59,-0.4,20.97,97.66,126.42,-30.76,-9.75,-5.68,19.25,-49.85,18.21,7.18,-9.88,17.76,-8.72,1.07,14.45,-2.44,54
-0.14,6.34,15.3,47.95,107.52,-20.02,-6.05,-0.92,19.67,39.4,-6.15,7.23,-9.31,16.02,-8.6,20.12,7.67,12.55,54
-10.77,3.95,17.41,-4.79,-10.99,-4.54,-4.76,-4.12,20.78,-29.98,-4.49,-4.3,-9.57,13.52,-7.31,-13.62,-1.81,3.71,54
-3.37,4.62,20.13,-11.23,-6.2,-8.54,-7.25,-4.58,20.61,2.49,3.91,0.83,-9.49,16.58,-8.51,1.95,1.42,-4.88,54
-9.34,3.57,19.76,6.69,-6.64,4.93,-7.85,-4.4,19.06,-3.76,1.22,-0.2,-9.63,16.22,-8.1,2.34,3.08,0.15,54
-9.53,1.89,18.26,0.54,2.2,2.0,-5.45,-4.82,20.35,2.88,-11.38,-4.44,-9.98,14.3,-7.6,0.83,1.9,6.4,54
-12.01,-0.94,14.32,59.91,158.64,-1.17,-14.44,3.89,18.77,39.31,41.02,-8.74,-0.65,8.56,-16.51,52.29,50.0,-0.29,55
-1.2,6.2,19.63,-80.91,28.76,-9.81,0.32,-20.62,16.46,-186.13,-43.55,23.1,-5.07,7.84,-14.19,18.41,37.4,-13.48,55
-17.27,3.81,14.79,1.71,65.23,-4.54,-12.74,-6.18,10.68,-28.37,-100.88,-11.67,-0.79,-21.38,-40.43,141.41,120.31,-276.76,55
-11.59,-0.69,16.17,-61.28,-61.77,34.23,-1.43,-8.92,9.04,94.48,-96.78,-8.89,-32.66,-37.08,0.68,-513.82,166.6,-29.64,55
-17.35,-0.31,13.8,-109.81,-165.23,41.99,8.74,33.34,41.65,185.2,-209.18,-433.5,-12.1,29.53,-12.2,116.45,27.88,-44.78,55
39.0,-15.59,10.17,-31.84,-173.73,76.07,28.03,-40.23,15.39,-136.52,-141.41,11.77,-17.11,13.34,-6.21,1.37,24.61,-6.49,55
6.8,-8.43,13.34,50.05,40.38,-26.81,4.97,-14.2,11.72,-0.44,-12.55,-22.95,-16.16,11.53,-5.6,29.83,12.3,10.06,55
14.42,-11.51,15.76,-6.25,-30.03,4.93,9.46,-13.75,13.29,0.39,0.63,-7.52,-15.35,6.86,-6.74,14.84,7.81,25.68,55
12.1,-11.95,17.43,2.93,-20.12,-6.25,11.32,-12.31,13.35,3.32,18.8,-11.13,-10.6,-0.27,-10.09,124.32,-22.95,197.95,55
8.91,-7.26,18.35,-4.98,9.86,-35.89,10.28,-12.28,12.19,-18.07,108.59,-7.32,-3.15,28.1,-14.51,44.68,131.93,179.0,55
3.99,-5.43,15.67,64.75,107.03,-79.15,3.36,-9.19,14.18,97.7,124.02,-48.78,-6.52,5.85,-16.51,-116.6,29.35,-26.03,55
2.58,3.76,17.05,78.27,68.75,-117.82,6.04,-11.06,20.84,-35.16,34.81,-93.9,-0.84,16.72,-12.79,-10.79,-10.45,-27.93,55
9.92,-6.16,21.48,6.59,-29.54,-6.15,2.3,-6.74,23.12,13.23,27.78,-21.44,-1.98,14.73,-11.81,-20.02,-6.4,-19.63,55
-1.2,3.31,18.34,6.25,83.79,-5.27,-1.58,-5.84,19.19,-7.57,20.21,-3.71,-3.54,11.97,-10.87,2.93,7.71,3.86,55
-1.86,1.39,20.07,-21.34,-20.65,4.49,0.05,-7.03,20.28,5.57,12.16,-0.49,-3.39,11.13,-11.18,-8.89,2.64,7.67,55
-2.86,2.23,22.14,1.46,14.16,11.67,-2.62,-7.41,19.55,12.94,9.77,-0.78,-3.54,11.99,-11.23,-23.68,2.49,-1.32,55
-6.64,1.16,21.29,2.64,13.82,2.05,-0.71,-6.93,20.1,-7.96,-1.07,-2.05,-3.01,15.54,-13.3,-5.42,5.66,-1.9,55
-5.9,0.12,20.09,5.62,2.83,-0.78,-0.37,-5.51,20.17,13.87,-6.93,3.66,-3.27,14.87,-12.47,-1.9,2.34,-5.22,55
-0.02,1.26,20.89,-5.57,11.08,0.54,-1.22,-7.85,20.27,10.06,-0.49,0.78,-2.91,15.07,-12.37,-3.52,5.03,-2.2,55
0.78,2.63,21.9,-6.25,-17.87,-1.81,-0.7,-8.41,20.31,-8.84,-1.32,4.88,-3.35,14.82,-11.87,-0.15,1.27,-2.49,55
-6.68,-1.13,23.95,-57.96,-4.79,18.6,38.67,31.75,19.81,379.54,-51.17,20.21,-5.05,11.33,-12.47,-11.57,-23.93,19.48,56
-17.08,4.53,14.54,-12.35,-15.97,12.35,-0.78,-9.74,16.87,-13.92,25.34,-44.58,3.1,7.66,-25.77,116.36,97.27,-14.06,56
