ACC-X-Ring1,ACC-Y-Ring1,ACC-Z-Ring1,GYRO-X-Ring1,GYRO-Y-Ring1,GYRO-Z-Ring1,ACC-X-Ring2,ACC-Y-Ring2,ACC-Z-Ring2,GYRO-X-Ring2,GYRO-Y-Ring2,GYRO-Z-Ring2,ACC-X-Ring3,ACC-Y-Ring3,ACC-Z-Ring3,GYRO-X-Ring3,GYRO-Y-Ring3,GYRO-Z-Ring3,TEST
-13.49,2.53,11.01,36.96,131.01,-20.02,-6.26,2.92,19.56,-6.64,103.37,-38.96,-19.32,8.66,-1.15,18.12,38.33,-28.27,1
-21.18,2.54,4.62,42.09,110.74,10.5,-11.44,0.71,12.95,6.69,169.14,-45.85,-19.41,9.33,-3.57,12.4,23.58,-27.15,1
-21.27,4.1,-0.09,19.73,52.54,9.77,-18.21,-2.1,11.33,41.45,73.14,-5.03,-21.47,2.56,-7.03,-25.78,-7.67,2.44,1
-20.07,3.92,-2.17,8.89,62.7,11.08,-22.32,-2.66,4.73,14.31,62.74,16.55,-20.67,6.24,-4.8,-19.78,-22.22,16.21,1
-20.05,6.79,-5.62,-6.45,8.84,11.13,-21.9,-0.4,0.04,3.47,58.89,13.48,-19.97,9.71,-0.65,-21.48,-25.88,24.56,1
-15.59,7.68,-2.34,15.04,-63.48,-2.69,-24.35,2.96,-5.18,-35.99,-12.5,20.7,-18.82,12.77,2.49,-22.27,-45.17,46.83,1
-16.31,5.09,0.4,11.57,-82.96,-10.84,-23.78,5.66,-1.95,-21.39,-25.05,-1.22,-17.12,11.13,5.1,-18.51,-44.29,32.57,1
-25.49,1.87,0.41,-19.53,-129.88,-10.3,-21.77,3.17,3.02,-6.4,-37.21,-9.13,-14.5,13.48,7.93,-3.17,-21.78,17.92,1
-19.04,6.7,9.81,-51.81,-101.51,0.68,-20.31,2.72,9.15,49.76,-122.8,3.52,-13.37,13.61,8.31,-2.3,-8.06,9.28,1
-11.2,3.34,17.31,6.93,-131.4,20.07,-12.39,-1.1,16.76,-59.38,-183.54,12.4,-14.42,12.88,8.12,0.73,0.68,2.29,1
-9.25,4.07,18.74,-26.32,-55.18,10.3,-7.33,1.23,19.52,3.27,-125.24,8.98,-15.52,13.42,6.98,-5.62,2.54,2.34,1
-3.07,1.01,22.29,-32.86,-51.37,8.2,-4.07,0.6,21.43,-10.64,-96.04,8.4,-13.46,13.34,8.74,0.49,1.81,-0.44,1
-2.06,-0.62,21.96,-8.74,-8.01,-4.83,1.85,-0.73,21.96,-4.79,-42.58,6.98,-13.72,14.04,8.49,3.71,1.37,0.24,1
-3.21,1.48,20.7,5.03,-13.18,8.4,-0.93,0.53,20.26,-1.86,-6.79,0.24,-14.45,13.39,7.96,-10.69,5.57,-0.88,1
-2.83,0.22,21.3,-10.35,-12.06,-0.44,3.02,-1.01,21.29,-2.3,-1.12,-2.73,-14.3,13.61,8.05,-6.1,2.73,-1.86,1
-2.67,-0.03,21.3,4.59,-0.98,1.22,2.97,1.44,20.51,10.01,-7.23,2.78,-14.22,13.3,8.09,-3.76,1.42,-0.88,1
-1.73,-1.3,21.42,-9.72,-5.86,6.15,1.29,1.06,20.45,4.64,-8.94,3.61,-14.38,11.96,7.96,-2.44,4.05,0.1,1
-2.23,-0.53,21.45,-4.49,-7.81,3.76,2.68,0.93,20.5,4.1,5.81,-4.3,-14.81,12.55,7.83,-2.15,2.34,0.34,1
-2.14,-0.58,21.02,-6.3,-7.08,0.98,2.33,0.98,20.59,3.95,4.25,-3.37,-13.95,13.1,8.35,-0.39,1.76,-0.78,1
-2.15,-1.9,20.99,-2.59,0.1,-2.15,2.32,0.47,20.69,0.93,-5.71,-0.34,-14.47,12.83,8.28,0.83,1.86,0.05,1
-4.07,-0.11,22.05,17.19,66.8,-8.98,-14.94,-0.46,16.55,25.59,138.96,-10.94,-19.44,11.6,2.19,33.25,29.44,-26.81,2
-9.63,0.48,19.05,35.16,102.69,-5.62,-17.71,-0.45,11.5,16.21,88.28,-15.77,-19.86,10.76,-0.59,14.75,28.61,-23.68,2
-15.27,0.76,13.68,48.49,123.49,-6.69,-22.29,-2.39,7.82,-7.81,71.53,0.49,-19.95,6.77,-1.74,-5.91,2.88,-1.37,2
-17.01,4.21,9.23,28.27,101.51,-7.08,-23.7,-1.38,3.17,-8.79,52.44,3.96,-18.92,9.62,0.74,2.0,-28.12,31.3,2
-17.57,5.5,6.3,23.73,55.42,5.96,-22.17,0.87,-1.14,-2.54,15.48,3.61,-16.41,7.43,5.02,-18.8,-55.96,47.31,2
-19.95,3.77,0.33,-3.37,56.84,2.98,-23.94,0.5,-2.05,-16.11,-59.96,5.18,-16.47,10.89,7.74,-17.68,-43.95,39.11,2
-21.04,4.05,-4.52,-5.86,-6.74,0.34,-14.29,-4.29,7.46,-2.3,-159.03,-1.07,-13.19,14.3,10.84,-18.26,-29.05,27.34,2
-15.57,-0.38,3.0,-12.01,-78.17,-10.25,-16.98,-5.24,14.76,-5.96,-135.45,1.42,-12.08,13.29,11.13,0.34,-16.06,13.87,2
-19.91,2.18,1.98,29.35,-191.5,-20.7,-6.64,-0.37,18.91,-25.44,-105.81,1.03,-8.56,16.93,11.81,27.49,-3.08,3.66,2
-17.64,0.51,11.55,2.69,-213.67,-0.73,1.97,-1.43,23.33,-7.62,-115.14,22.31,-11.4,14.6,10.52,1.71,10.5,-4.35,2
-13.7,-0.72,19.03,-17.09,-114.21,-12.01,5.47,0.79,22.04,33.01,-41.16,9.81,-11.81,14.03,10.22,2.29,1.61,-3.17,2
-7.37,-2.99,20.3,-10.69,-77.29,7.76,3.64,0.96,21.31,4.69,1.71,5.42,-12.53,12.94,10.07,1.37,0.88,-1.46,2
-1.82,-0.63,23.52,2.05,-15.53,-0.78,0.57,1.23,20.42,-1.07,5.42,1.12,-12.42,13.37,10.42,-1.81,1.51,2.73,2
-3.04,-0.89,21.42,4.49,9.81,6.49,-0.09,0.59,20.9,1.56,-5.71,4.05,-11.85,13.89,10.64,-0.44,2.15,2.39,2
-5.06,-0.47,20.95,-0.0,2.88,1.66,-0.32,0.03,20.54,-0.59,-7.91,0.54,-12.0,13.75,10.24,-3.42,1.22,2.0,2
-4.66,-0.96,20.99,-2.39,-7.67,1.56,1.5,0.01,20.87,-4.25,-8.64,1.66,-11.69,14.02,10.75,-0.59,1.66,0.68,2
-4.55,-1.49,20.98,0.2,-15.28,3.13,1.57,0.63,20.48,0.63,-0.78,-0.34,-11.33,14.93,11.12,2.49,1.71,0.05,2
-3.58,-0.61,21.27,-0.73,-9.18,2.73,2.63,0.73,20.61,-2.3,-1.27,0.34,-11.79,13.47,10.72,2.25,0.83,-1.37,2
-3.74,-1.06,20.77,0.83,-2.54,1.86,3.06,0.55,20.78,2.83,-5.57,-0.39,-12.53,13.49,10.59,0.88,2.15,-2.44,2
-3.17,-1.32,20.99,-1.9,-0.1,0.63,3.09,1.06,20.98,3.56,-11.77,4.69,-12.44,13.07,10.71,0.15,1.17,-0.78,2
-7.86,-0.24,18.67,21.44,104.64,8.54,-9.83,3.83,17.8,16.21,90.33,-8.89,-19.57,6.47,1.14,29.2,55.32,-54.2,3
-12.85,6.53,14.85,37.84,97.31,1.81,-14.8,3.64,13.97,13.18,102.44,-8.84,-20.85,4.05,-2.18,11.91,51.46,-46.04,3
-17.12,4.68,11.57,28.86,99.85,3.03,-21.03,-0.66,10.03,-15.33,176.22,-17.14,-22.07,0.37,-5.3,-5.81,38.72,-35.4,3
-20.17,1.79,5.68,21.04,154.64,11.18,-19.47,3.47,3.32,28.66,91.31,4.3,-20.47,3.25,-5.99,-14.5,-4.79,10.74,3
-20.14,5.52,0.03,19.24,84.72,2.1,-20.41,1.38,-0.3,19.09,56.93,-2.0,-21.5,6.56,-3.97,-20.9,-28.66,24.37,3
-17.66,2.36,-2.12,32.18,39.65,2.88,-17.27,3.57,-1.01,25.24,-87.6,20.7,-21.0,5.91,0.71,-21.14,-31.49,27.59,3
-19.04,5.62,-3.82,-27.0,-80.76,10.89,-20.1,0.78,1.85,22.8,-105.22,20.65,-19.17,8.21,1.74,-1.56,-38.28,39.4,3
-21.79,4.98,-1.03,-8.2,-122.22,5.27,-23.28,1.57,7.05,-14.31,-85.06,10.94,-18.1,8.39,2.93,-1.12,-40.09,42.53,3
-23.73,5.85,3.52,-36.38,-58.89,-3.17,-17.73,2.5,9.51,-6.59,-98.73,9.38,-16.03,11.2,6.2,18.85,-40.38,35.69,3
-21.26,7.29,8.02,-18.46,-91.41,2.54,-19.23,2.7,12.74,-17.72,-97.12,5.27,-15.84,13.72,8.03,-0.93,-35.89,29.44,3
-16.96,3.71,12.06,-25.15,-78.42,-0.54,-11.59,2.4,18.61,-30.13,-116.06,8.64,-14.34,14.46,10.25,-8.15,-20.56,22.07,3
-13.02,4.77,16.71,-36.08,-90.87,-7.67,-5.13,0.5,22.59,-23.24,-77.05,12.89,-11.87,16.14,11.5,13.53,-12.21,13.33,3
-9.51,0.95,20.2,-36.38,-58.3,-5.13,-2.73,0.32,22.5,-21.88,-82.08,25.83,-12.33,14.8,10.57,0.78,2.73,-0.15,3
-5.97,0.08,19.68,-39.26,-57.32,3.66,3.91,0.59,22.6,-10.4,-23.83,5.13,-13.07,13.15,9.72,-3.86,0.2,2.54,3
-0.86,-1.24,22.47,-12.3,-5.62,-5.37,2.61,1.87,19.85,1.46,-6.88,1.86,-11.22,14.25,11.11,-1.32,3.03,1.27,3
-1.34,-1.35,21.58,0.49,2.05,3.13,2.52,1.69,20.19,0.68,-12.84,-0.54,-11.8,14.96,10.74,0.98,0.34,0.0,3
-0.45,-1.59,20.52,-5.03,-9.72,0.39,4.02,1.2,20.57,-3.91,1.81,2.49,-11.51,15.01,10.66,4.44,-1.03,1.51,3
0.77,-1.58,21.56,-5.76,0.44,4.79,4.75,1.9,20.5,-1.95,-7.37,5.96,-11.5,14.41,10.78,3.08,-0.63,0.0,3
-0.3,-1.05,21.24,-0.54,-12.6,6.05,5.28,2.13,20.42,-3.91,-6.93,5.27,-11.62,14.59,11.0,3.32,2.83,-2.2,3
-0.35,-0.7,21.15,-0.78,-8.45,1.9,5.33,1.48,20.59,-0.2,-13.57,2.39,-12.41,14.02,10.48,1.42,3.96,-1.86,3
2.5,-2.21,22.99,9.62,15.72,-0.73,7.84,2.17,22.16,24.8,107.23,-28.37,-16.01,12.49,3.92,22.07,28.13,-16.55,4
1.9,-1.35,23.73,37.45,102.69,4.83,-16.49,2.81,16.9,22.95,183.59,-25.73,-16.42,15.51,2.66,52.69,20.31,-28.37,4
-14.66,4.92,17.82,59.86,162.6,-1.95,-13.61,3.41,14.17,32.81,91.21,-21.97,-19.62,10.38,-0.42,34.28,27.69,-31.64,4
-15.72,5.66,11.62,42.72,84.08,-10.01,-24.11,-0.64,7.46,-3.42,75.73,-7.18,-19.01,8.43,-1.9,-6.45,23.54,-27.44,4
-21.16,5.44,6.22,13.48,58.15,-6.88,-22.21,2.33,4.34,-7.76,74.41,-5.52,-20.03,6.05,-3.08,3.42,13.57,-15.62,4
-20.97,6.02,0.82,29.64,93.65,10.25,-21.59,4.05,2.22,-13.92,41.06,-3.71,-19.68,6.78,-3.29,0.2,-8.15,6.93,4
-20.23,7.19,-0.14,5.62,57.96,-0.2,-23.57,3.44,-1.98,-9.03,23.34,7.71,-18.59,6.64,-2.18,-10.06,-31.98,30.27,4
-20.57,6.44,-3.23,-3.13,29.44,4.2,-25.08,6.34,-2.54,-11.04,-23.97,1.46,-18.0,7.22,0.45,-17.53,-36.67,46.0,4
-19.45,7.83,-3.78,-22.17,-20.21,-5.86,-22.31,5.61,3.05,-1.76,-62.89,-5.13,-14.4,12.69,4.84,-13.33,-36.87,52.05,4
-16.34,6.44,1.75,-17.58,-74.85,-11.57,-13.58,4.56,9.73,-23.93,-79.2,-4.1,-13.14,18.86,7.27,6.45,-40.04,56.64,4
-15.13,5.01,8.01,-33.5,-95.12,-7.42,-9.68,0.53,16.44,-43.75,-135.35,9.42,-11.01,17.76,7.66,-6.1,-31.1,41.41,4
-13.89,3.94,13.08,-60.06,-129.05,5.27,-4.15,4.12,19.63,-1.9,-143.31,7.67,-7.82,20.02,9.63,5.96,-21.19,34.38,4
-10.17,4.51,17.76,-34.77,-140.58,-3.03,-1.02,-0.37,21.18,-5.22,-97.07,4.35,-5.34,21.37,10.62,16.41,-9.57,15.38,4
-8.61,-0.42,19.14,-25.54,-99.61,-0.98,1.75,-5.93,22.38,-24.17,-77.93,6.79,-6.39,17.08,9.88,-3.13,-6.01,11.87,4
-5.46,-1.99,20.44,-32.23,-66.06,-4.88,-0.09,-1.28,20.72,5.27,-24.95,8.98,-5.78,16.22,9.9,-5.91,-2.69,3.32,4
-2.61,-1.34,22.18,7.03,-16.11,2.0,1.92,-0.52,21.47,-5.37,-21.34,5.32,-5.35,16.66,10.2,-3.03,-0.54,2.44,4
-0.67,-1.67,21.5,-6.49,-22.12,2.34,2.88,-0.72,20.75,-2.25,-3.52,-1.07,-5.4,15.68,10.76,-2.69,2.83,-3.08,4
0.7,-1.07,21.43,2.59,-7.62,0.15,3.46,-0.6,20.98,1.9,-9.23,0.54,-5.95,16.03,10.34,-2.69,2.44,-1.17,4
0.57,-2.7,21.07,-6.64,-12.16,0.59,3.27,0.32,19.8,2.0,2.69,1.27,-5.52,17.06,10.5,-2.83,4.2,-0.44,4
1.55,-1.92,21.43,5.27,-3.71,-0.05,4.24,0.08,20.49,5.37,0.73,0.59,-5.86,17.3,10.49,2.49,4.79,-1.17,4
-3.39,-0.93,22.22,25.39,146.19,3.47,-19.03,3.2,6.5,-0.63,39.31,4.15,-17.05,10.91,-1.84,-3.52,22.95,-36.18,5
-11.48,0.75,17.69,36.47,130.96,14.79,-21.88,3.92,1.54,10.99,7.91,7.96,-17.84,8.9,-2.76,3.86,5.66,-15.38,5
-16.98,1.38,11.37,25.2,127.98,17.14,-22.68,3.93,2.06,15.87,-51.17,10.84,-17.49,6.44,-3.63,-17.87,-15.53,8.54,5
-21.48,3.22,5.75,21.0,71.48,13.18,-13.52,8.28,6.19,24.07,-139.26,5.57,-17.47,9.48,-2.5,-44.38,-33.54,48.73,5
-22.08,5.48,1.53,12.55,36.62,7.18,-12.24,4.36,13.02,16.31,-147.51,3.22,-16.28,10.07,2.01,-63.38,-46.63,51.95,5
-22.2,5.51,-1.28,7.13,32.13,10.64,-8.03,5.6,16.07,11.52,-141.7,23.39,-12.32,10.94,5.93,-52.25,-52.39,63.57,5
-24.04,4.55,-2.65,-8.94,-16.16,-2.05,-4.79,1.21,22.12,-22.02,-87.26,3.81,-7.57,16.99,9.21,-12.45,-34.67,40.87,5
-26.08,4.2,-0.23,-25.24,-109.62,-14.99,-2.15,0.26,21.18,-12.4,-42.48,2.15,-5.92,18.81,10.43,5.18,-18.12,17.68,5
-29.04,3.44,9.41,-22.75,-98.14,-16.11,-1.03,-0.03,20.57,-15.23,-31.4,-2.49,-6.39,17.39,9.64,8.5,-12.01,10.6,5
-20.66,-1.43,14.83,-18.41,-115.48,-27.29,0.12,0.02,20.31,-0.59,-13.09,-7.67,-5.96,17.15,9.86,3.56,-8.69,6.98,5
-5.78,-1.33,21.03,-23.29,-71.97,-18.95,1.62,-0.72,20.43,5.57,-6.98,-2.69,-5.07,16.37,10.55,0.49,-3.52,4.1,5
-3.49,-0.71,23.29,-0.83,-37.21,-9.37,3.81,-1.13,20.97,0.93,-8.84,-0.98,-4.76,15.71,10.41,-4.25,-2.34,6.79,5
-0.97,-0.65,22.15,-17.53,-30.18,-6.84,4.49,0.08,21.06,1.42,-2.0,1.37,-4.33,19.39,10.46,3.86,1.9,4.39,5
0.05,-2.21,22.35,-6.01,-26.03,-5.37,3.92,0.12,20.33,-0.2,0.78,-0.54,-4.08,17.15,9.82,-4.74,2.93,0.29,5
0.04,-2.81,22.67,-7.72,-19.82,-5.62,4.3,-0.21,19.83,1.32,-1.71,-0.93,-3.45,17.4,10.66,2.2,-0.68,0.83,5
-0.28,-2.4,21.65,-7.62,-20.17,0.15,4.51,0.6,20.24,3.56,-5.52,1.66,-3.88,16.73,10.11,0.44,1.46,3.22,5
0.84,-2.37,21.63,1.81,-15.43,2.69,4.62,1.14,21.07,1.71,-9.62,2.1,-3.32,17.53,10.27,3.52,-1.51,3.13,5
0.18,-1.6,21.55,1.61,-6.01,2.59,3.35,0.59,19.46,2.44,0.39,1.07,-3.01,17.48,10.18,6.15,3.37,-3.17,5
-0.16,-2.43,21.13,4.59,-5.42,0.73,4.28,0.55,20.3,2.78,4.98,-2.29,-3.62,17.22,10.27,2.39,-0.15,0.1,5
0.37,-3.01,20.47,1.95,-0.15,0.73,4.84,0.88,20.5,5.76,9.81,-3.17,-3.49,16.76,10.35,-0.1,0.59,-1.71,5
-23.25,2.25,7.54,27.49,130.96,15.33,3.07,1.97,20.83,3.61,-3.56,0.0,-14.62,12.31,-0.57,35.6,16.26,-55.27,6
-23.98,2.95,5.4,25.2,126.37,10.21,2.6,2.03,20.64,6.74,-3.03,0.44,-15.08,13.85,-0.29,8.89,19.53,-74.61,6
-20.85,4.95,1.63,17.58,65.58,18.26,1.8,1.12,20.13,-1.71,6.69,0.05,-17.2,11.75,-1.51,12.55,22.07,-56.2,6
-20.36,6.69,-1.83,-6.49,20.51,6.54,1.19,1.2,19.89,-0.88,6.64,-1.71,-20.58,7.36,-4.3,-8.35,19.68,-30.03,6
-20.59,5.47,-2.48,8.35,-31.64,1.12,2.21,1.31,20.89,2.83,-2.64,-1.71,-20.86,5.06,-5.0,-5.96,-9.91,15.67,6
-13.12,2.45,0.67,-48.63,-169.92,-18.7,1.97,1.27,20.66,7.08,-2.1,-1.56,-24.17,3.18,-5.52,-72.31,-37.11,76.07,6
-8.5,3.6,9.09,-54.54,-178.37,-16.85,2.5,1.86,20.76,4.74,-2.39,1.03,-13.37,15.44,1.62,-10.94,-64.26,153.91,6
-5.99,0.96,21.18,-23.68,-92.82,-24.61,2.47,1.93,20.64,-1.9,-1.37,-0.63,-6.51,22.04,6.13,-13.97,-53.42,82.47,6
-2.55,-2.55,23.02,-24.61,-59.96,-14.6,2.73,1.74,20.49,0.15,-1.86,0.83,-0.92,19.75,8.41,-4.15,-24.22,37.01,6
-0.34,-1.98,23.08,-6.69,-13.48,-1.42,2.22,1.47,20.33,-0.44,-0.05,-0.49,-2.2,18.75,7.11,1.95,-6.01,8.25,6
-1.13,-0.81,21.13,-7.03,-8.06,-0.34,2.58,1.41,20.5,-0.29,-1.22,-0.15,-2.44,18.03,6.47,-3.27,-0.29,6.3,6
-0.72,-2.2,22.11,-14.16,-7.28,0.73,2.94,2.49,21.1,4.3,-0.24,-0.24,-1.79,18.87,7.33,-3.52,0.54,2.64,6
-0.79,-0.87,21.83,-0.68,0.68,0.63,3.2,2.22,20.79,1.42,-5.27,1.46,-1.18,18.36,7.58,-0.54,2.49,-2.54,6
-0.8,-0.82,21.44,-2.0,0.24,2.83,2.51,2.29,20.24,0.15,-1.42,-1.32,-1.65,19.57,7.6,-3.66,8.74,-1.56,6
-1.13,-1.23,21.3,1.86,-3.12,2.05,2.5,2.4,20.04,1.37,0.29,-0.73,-2.84,17.79,6.96,-4.15,2.15,-1.22,6
-1.28,-1.19,20.71,-3.56,-5.76,1.66,2.87,2.14,20.47,-0.05,-2.0,1.12,-2.45,18.05,7.26,0.49,1.17,1.17,6
-1.22,-1.02,21.4,1.71,-4.49,1.66,2.93,2.07,20.55,1.03,0.59,-0.39,-2.09,17.41,7.59,-3.32,1.56,0.98,6
-0.32,-0.5,21.79,4.93,-8.98,1.17,3.18,2.21,20.27,0.49,-1.37,0.44,-1.73,18.74,8.05,0.15,1.07,2.83,6
-0.27,-0.44,21.65,3.42,-2.15,1.61,2.94,2.74,20.29,0.73,1.32,1.03,-1.79,19.16,8.37,-3.91,4.05,0.29,6
-0.12,-0.75,21.55,1.32,0.29,-1.37,3.27,2.38,20.34,-2.25,1.81,-0.83,-1.81,19.15,8.33,6.25,0.29,-0.88,6
-17.61,5.76,4.24,35.35,82.52,19.87,-17.73,4.37,-3.44,-2.64,-58.2,2.1,-13.2,13.8,-0.34,14.55,23.49,-117.63,7
-22.63,11.52,-9.27,31.54,71.04,7.62,-18.17,0.62,3.51,8.4,-71.44,-9.28,-20.72,4.73,-4.61,-21.97,24.9,-82.62,7
-20.59,6.04,-10.23,-6.74,-3.37,3.22,-16.03,4.05,9.93,11.38,-87.79,-3.86,-21.03,2.82,-5.47,4.88,6.59,-6.59,7
-20.2,5.73,-6.39,-14.45,-50.98,-4.83,-11.88,6.69,14.68,12.79,-110.79,-1.86,-21.36,3.06,-4.32,-8.64,-12.65,30.13,7
-18.91,2.65,-0.85,-18.7,-77.25,-3.66,-9.13,1.74,17.61,-16.7,-109.62,15.43,-19.65,4.7,-3.02,-12.55,-41.21,67.53,7
-15.44,5.49,6.14,-18.12,-99.66,-13.28,-5.91,3.4,19.97,-11.67,-63.09,10.99,-16.39,10.14,0.34,17.77,-39.55,85.06,7
-13.49,6.3,13.43,-7.13,-121.53,-11.96,-2.03,3.51,22.37,-7.72,-44.48,-1.81,-10.91,17.29,3.26,22.02,-41.7,102.44,7
-11.2,3.14,15.53,-39.8,-107.67,6.3,-0.38,5.78,21.97,-0.68,-24.22,3.76,-6.84,18.54,4.33,-18.9,-15.43,79.2,7
-8.61,4.27,20.0,-11.13,-83.01,3.22,-1.41,2.76,21.1,8.64,-2.73,-1.32,-4.72,20.96,4.97,4.35,-11.72,56.74,7
-3.57,2.24,21.52,-13.43,-74.41,-7.37,-2.68,2.09,20.79,-3.32,3.17,-4.39,-3.2,18.45,4.48,-6.01,-9.13,43.85,7
-2.0,3.87,23.82,17.28,-47.66,-4.2,-2.13,1.89,21.22,5.96,4.59,-2.88,-2.7,19.75,4.51,24.85,-24.66,24.71,7
-3.5,0.89,21.48,4.69,-12.7,-1.86,-2.65,2.03,21.19,-2.25,1.22,-2.88,-0.75,19.36,3.46,-1.07,-0.34,-1.71,7
-4.09,1.46,21.11,-1.47,0.68,-2.2,-3.48,1.24,19.79,-5.76,-4.88,-2.2,-1.6,18.02,3.74,-1.22,-0.88,-5.57,7
-3.95,0.6,21.09,2.2,1.76,-1.12,-2.66,0.93,20.54,3.61,-8.4,-2.59,-1.63,20.26,3.66,28.22,0.68,-1.86,7
-4.56,1.42,21.07,-5.32,-1.42,0.34,-1.7,1.45,21.47,2.54,-2.1,2.73,-1.78,18.72,3.2,-15.09,3.61,-3.12,7
-5.5,0.91,20.02,-3.13,-1.81,-4.88,-2.44,1.28,20.51,3.76,-0.63,-1.07,-1.8,19.05,3.67,-0.98,-1.46,-1.86,7
-5.3,0.0,20.64,0.73,-8.15,-2.88,-2.12,2.6,20.59,1.61,-3.32,1.66,-2.3,18.19,4.16,1.66,-2.0,3.76,7
-3.42,-0.07,21.86,-0.29,-7.47,0.59,-1.91,2.22,20.67,0.44,-3.52,-0.88,-0.33,19.59,4.54,1.17,0.34,3.27,7
-4.32,0.88,21.06,0.88,-2.2,0.54,-2.41,0.94,20.9,-12.01,-1.07,2.44,-1.49,18.47,3.89,2.44,0.1,-1.07,7
-4.08,1.23,20.89,2.15,-2.78,2.69,-1.72,1.7,21.05,-3.22,-2.88,2.0,-0.79,19.21,3.64,0.15,1.51,0.2,7
-18.54,6.16,4.44,3.03,61.91,3.56,-23.66,4.49,-2.69,-7.47,-57.86,2.25,-18.48,9.65,-2.83,-5.18,-12.5,29.49,8
-18.42,7.41,1.83,22.17,25.34,12.74,-23.62,0.57,4.46,-20.17,-93.36,2.78,-14.77,13.46,0.39,-3.32,-29.79,71.58,8
-21.53,7.22,-4.44,-13.57,-3.56,-0.83,-12.45,2.77,14.69,-20.75,-101.9,-11.77,-11.55,16.4,1.75,-6.35,-42.48,112.16,8
-22.41,3.67,-0.63,-5.76,-64.21,1.17,-4.64,2.68,20.26,-21.92,-116.16,1.95,-8.24,15.15,3.56,-36.13,-35.25,100.54,8
-23.49,5.48,0.54,-21.44,-111.08,-10.79,-2.01,2.46,22.82,-7.67,-89.31,12.79,-0.32,19.79,6.42,-26.71,-13.18,45.21,8
-16.57,1.44,12.23,-22.27,-95.02,-23.34,-0.41,1.6,22.3,-4.64,-33.25,4.05,-0.32,18.03,6.3,-16.5,-6.93,25.44,8
-9.7,0.31,20.04,-33.25,-103.27,-16.02,0.89,1.94,21.29,-11.33,-23.44,5.03,0.99,19.25,7.09,-13.97,-1.61,14.16,8
-5.07,0.3,22.34,-20.02,-90.28,-2.1,2.55,1.77,21.5,-2.88,-11.62,-0.1,1.56,17.65,7.93,-5.22,-3.52,8.54,8
-3.46,-0.58,22.63,-8.06,-33.5,-1.07,2.66,0.85,20.65,-2.15,-6.2,0.0,2.06,18.02,7.82,-5.13,-0.93,3.71,8
-1.93,-0.49,22.12,-14.55,-23.44,-1.03,3.14,1.01,20.91,-0.93,-7.03,-0.2,2.15,17.96,8.3,-0.1,-0.39,3.96,8
-0.25,-1.24,22.28,-4.05,-11.82,-2.44,3.78,1.65,20.32,2.73,-2.98,1.03,2.56,17.96,8.23,0.98,1.37,1.76,8
-0.38,-1.71,21.39,-1.95,-7.28,-0.15,3.92,1.85,20.42,2.0,-1.81,-0.15,2.4,17.79,8.09,2.1,1.22,0.73,8
0.25,-1.67,21.64,-1.22,-7.42,0.2,3.07,1.5,20.04,-0.24,1.12,2.54,2.05,17.96,7.96,-0.0,3.76,-2.39,8
1.01,-1.13,21.54,4.0,-4.88,1.07,3.59,1.31,20.6,-0.1,0.83,0.1,1.97,18.01,8.29,1.95,0.39,-0.1,8
1.11,-0.99,21.45,2.83,-3.22,1.27,3.71,1.66,20.52,2.1,-2.0,0.54,1.76,17.6,8.03,2.59,0.98,1.12,8
0.48,-1.19,21.07,-0.29,0.24,1.81,3.61,1.44,20.16,0.49,1.07,0.68,2.29,17.04,8.07,-0.93,2.2,-2.44,8
0.88,-1.35,21.56,0.29,-0.54,-0.05,4.02,1.44,20.66,-0.29,1.56,-0.34,2.15,17.6,8.13,0.1,2.44,-2.29,8
0.96,-1.19,21.28,1.56,-4.15,0.93,3.79,1.39,21.21,-0.15,4.59,0.0,2.5,18.08,8.34,-0.98,3.81,-2.83,8
0.97,-1.35,21.17,-0.63,0.54,1.9,2.95,1.25,20.21,2.15,3.08,-1.51,2.02,17.37,8.27,3.08,1.86,-5.57,8
1.16,-1.16,21.52,-0.29,0.44,0.78,2.08,1.41,19.84,0.39,1.03,2.44,2.03,17.7,8.38,3.47,2.88,-5.76,8
-0.82,3.56,22.71,56.84,170.61,10.64,-18.34,-1.85,-1.65,13.43,55.42,-10.21,-22.52,1.84,-0.9,4.15,8.59,-56.69,9
-11.33,4.31,13.84,70.31,225.93,3.42,-23.33,-1.8,-5.88,-15.72,9.62,3.03,-21.9,3.23,-0.27,-3.37,9.57,-30.76,9
-18.27,2.95,5.67,-5.13,185.35,-19.29,-28.33,-0.65,-10.22,-18.12,-118.8,19.38,-19.96,1.4,0.04,-1.27,-11.57,41.21,9
-22.67,2.67,-5.08,15.19,44.97,-1.12,-24.85,2.46,-1.25,-61.43,-130.71,-6.1,-16.86,12.08,3.77,-13.82,-42.87,99.85,9
-18.3,4.41,-6.93,2.73,17.82,0.59,-2.12,-5.8,9.93,77.54,-190.09,7.18,-9.84,5.18,2.47,30.62,-91.31,227.44,9
-20.92,5.03,-10.55,4.93,-52.1,-0.88,-2.83,-9.62,26.68,-49.46,-151.32,-15.62,1.56,27.07,6.25,-4.0,-45.65,122.51,9
-13.39,5.7,0.66,-28.66,-150.98,-14.99,2.29,1.5,23.36,26.32,-39.36,0.68,5.86,22.9,5.44,5.66,-18.65,34.18,9
-2.49,-7.8,0.59,-74.61,-259.28,-22.41,4.13,1.5,21.14,7.13,5.18,-5.62,4.12,19.63,4.99,2.69,0.49,0.73,9
0.06,-0.94,27.9,-92.33,-112.4,-28.42,3.25,1.57,20.15,12.74,5.96,-5.96,2.84,17.18,5.19,7.96,2.25,-5.08,9
6.73,-3.44,25.76,7.18,-92.09,-14.99,3.03,1.62,20.49,8.74,2.49,-6.54,1.97,17.6,5.31,-2.44,1.12,-3.81,9
3.13,-2.21,23.76,-9.81,-5.66,-1.07,3.49,1.91,20.49,6.98,2.78,-3.17,2.77,17.84,5.97,-3.13,6.4,-1.42,9
-0.6,-2.15,21.14,3.17,0.44,2.2,2.76,2.24,20.02,6.54,-3.56,-2.54,2.39,17.64,5.89,-5.47,1.22,-1.66,9
-0.57,-1.77,20.76,2.1,-0.49,1.17,3.35,2.65,20.27,3.81,-1.03,-0.29,2.6,18.49,6.15,2.83,1.22,-0.88,9
-0.7,-1.4,20.98,0.2,0.1,1.22,3.36,2.22,20.24,0.88,0.29,-1.37,1.89,18.39,5.73,-4.35,3.27,-1.86,9
-0.79,-0.93,20.85,4.44,-5.27,4.0,3.2,1.68,20.77,0.54,-4.25,-0.15,1.73,16.91,6.26,-6.79,0.73,-0.59,9
0.08,-0.49,21.34,4.88,-3.22,1.03,2.68,1.8,19.94,1.07,0.93,-1.42,2.36,17.43,6.27,-1.86,1.56,-4.3,9
0.08,-0.51,20.97,-1.32,1.12,0.34,3.32,2.07,20.42,-0.68,-0.78,3.22,1.75,18.66,6.54,-1.61,2.88,2.15,9
0.02,-0.31,21.12,0.63,-3.81,0.98,3.51,2.55,20.2,-1.51,-2.59,-1.51,2.08,18.73,6.85,3.86,0.1,0.34,9
0.51,-0.49,21.61,-1.37,0.15,1.76,3.54,2.36,20.66,-0.68,-2.64,2.59,2.34,18.28,6.69,0.59,2.59,2.49,9
0.21,-0.83,21.01,0.59,-4.49,0.39,3.65,1.73,20.55,1.66,-4.1,2.1,1.97,17.63,6.35,0.39,-2.2,0.05,9
-22.77,2.61,7.58,21.44,167.58,-9.18,5.24,1.94,19.36,0.98,-3.47,2.15,-11.59,13.46,3.8,13.57,-31.1,59.13,10
-21.05,3.23,-1.2,-3.76,98.49,-23.78,5.33,1.89,19.53,1.03,3.08,4.44,-6.19,12.15,1.33,27.83,-30.91,164.4,10
-23.21,0.56,-6.0,-0.88,-9.67,2.59,4.84,2.8,19.19,0.05,3.76,0.2,-4.94,22.51,2.68,-31.98,-8.11,171.88,10
-24.68,3.57,-1.98,-12.35,-81.74,-9.67,5.44,2.42,20.22,-1.27,2.2,2.0,8.1,21.51,1.35,-34.08,-9.08,24.41,10
-15.15,-1.77,6.34,2.34,-185.5,8.94,5.37,2.32,19.5,-2.39,4.39,-4.15,4.47,16.84,1.23,-6.64,2.59,-4.1,10
12.83,9.89,27.29,-24.85,-213.62,-21.58,4.89,2.48,20.16,-2.1,1.71,1.42,4.54,16.34,2.47,-13.43,0.83,-7.57,10
13.52,-8.97,27.65,-48.68,-166.75,-28.76,5.18,2.01,20.3,2.69,-3.32,-0.39,4.79,17.69,2.8,1.03,2.05,-6.64,10
2.52,0.69,20.81,-2.64,0.83,1.37,5.24,3.04,19.58,4.1,2.05,4.59,3.55,18.43,1.94,0.29,6.1,-3.52,10
2.45,-3.49,20.17,0.68,-1.51,-2.2,4.76,2.71,19.84,-0.05,-0.15,1.03,5.41,19.22,2.93,6.05,2.73,-3.32,10
2.88,-3.13,20.43,2.69,5.42,3.27,4.44,1.76,19.53,-1.07,-2.49,-1.37,3.87,19.29,2.52,1.22,4.54,-0.49,10
3.16,-2.28,20.57,-0.93,4.1,5.08,5.24,1.94,20.14,1.03,2.1,0.39,4.06,18.74,2.53,1.07,3.17,0.73,10
3.03,-1.09,21.51,1.27,4.49,0.63,4.49,2.06,19.9,1.56,0.68,0.29,4.55,19.08,2.9,6.3,2.93,-1.32,10
2.55,-0.86,21.46,-0.78,-1.71,3.42,4.95,2.73,19.4,3.91,-1.12,-1.17,4.43,17.66,2.68,2.54,2.93,-0.15,10
2.39,-1.3,20.87,-0.1,-2.1,0.34,5.5,2.52,20.5,-0.59,4.05,-0.15,3.73,18.54,2.19,4.15,5.62,1.22,10
2.75,-2.01,20.93,-1.03,0.68,0.54,4.77,2.53,20.03,-1.42,-0.98,0.73,4.41,18.01,2.55,0.1,0.59,-1.17,10
2.91,-1.25,21.14,4.49,-1.46,2.39,4.93,3.21,19.3,2.54,-0.73,-0.73,3.92,19.1,2.18,4.64,0.59,0.88,10
2.21,-1.25,21.05,2.69,-1.66,2.44,4.22,2.35,19.74,-1.37,1.32,4.35,4.88,18.14,2.29,2.0,6.79,-1.81,10
3.05,-1.43,21.28,1.37,-3.12,0.93,5.48,2.49,20.22,-0.34,-2.69,-2.0,4.06,18.43,2.02,-2.15,1.42,-3.17,10
2.82,-1.16,21.5,1.56,-5.18,3.47,3.96,2.47,19.26,-2.15,3.03,-0.83,4.41,18.65,2.67,4.15,-1.56,-4.44,10
2.86,-1.12,20.55,3.76,-0.54,6.3,4.8,2.17,20.09,-2.49,-4.64,1.61,4.27,19.0,2.73,5.62,-0.39,-3.27,10
-20.72,2.97,1.72,-0.98,119.14,-16.26,3.18,6.92,20.62,57.32,224.66,-44.29,-3.42,21.42,1.3,37.35,7.03,-107.96,11
-23.07,0.33,-7.24,-6.74,28.42,12.7,-11.21,1.77,10.42,42.58,170.02,-20.8,-4.07,18.15,0.23,-14.36,6.64,-125.49,11
-23.64,3.79,-6.34,-1.07,-59.77,1.81,-19.31,-1.14,5.26,-37.94,117.53,-33.2,-13.19,14.29,-0.49,-29.83,16.7,-84.86,11
-19.65,1.49,5.1,4.88,-83.2,-25.98,-24.86,-3.01,-4.36,-35.89,40.33,1.86,-16.11,7.99,-0.01,-37.16,22.51,-50.78,11
-17.13,0.5,14.04,23.24,-88.33,-8.01,-27.93,-0.03,-3.62,-23.44,-96.92,12.55,-16.63,12.73,0.56,12.99,-10.45,45.61,11
-14.31,-0.51,15.32,-31.25,-117.33,-12.79,-16.83,-1.24,9.84,-6.05,-87.26,-22.07,-12.66,11.91,1.0,32.67,-43.9,99.9,11
-10.01,-0.26,21.14,-24.46,-116.21,-0.63,-17.77,1.47,15.73,26.27,-69.09,-11.33,-9.46,17.75,1.34,21.87,-17.63,101.27,11
-2.62,-0.7,22.1,32.28,-94.68,-0.29,-11.41,-0.17,16.75,-13.97,-126.37,3.47,-3.55,18.57,1.97,-11.47,-8.15,86.04,11
3.67,-1.99,21.12,-21.34,-50.98,-1.95,-6.92,0.86,20.84,-13.62,-129.88,25.15,-0.03,20.63,3.11,-13.33,-1.95,67.29,11
3.54,-1.78,21.51,10.55,0.15,-3.66,0.46,1.91,21.31,43.95,-84.37,10.01,2.78,17.65,1.81,-5.32,-11.13,23.05,11
2.54,-2.32,20.61,3.56,0.05,3.03,8.22,1.61,20.38,-12.21,-48.14,4.69,5.68,17.88,2.69,-11.52,4.39,12.6,11
2.61,-2.06,20.58,-0.44,-3.81,1.27,7.39,1.96,19.8,10.5,4.39,-6.84,5.31,17.79,3.46,-2.69,-2.49,-5.08,11
3.08,-1.58,21.03,0.34,-2.54,0.24,5.87,1.06,19.68,4.15,1.51,-0.1,4.85,17.53,3.77,-6.01,6.15,-1.76,11
2.83,-1.75,20.91,-0.2,-0.2,1.27,5.53,1.31,19.52,1.07,-2.59,-0.29,4.72,17.85,3.78,-2.59,3.61,-0.24,11
3.13,-1.49,21.0,2.73,-1.42,1.71,5.57,1.55,19.5,-0.24,-2.2,1.22,5.1,17.74,3.69,1.86,0.24,-0.39,11
2.26,-1.53,20.33,-2.59,0.1,-1.12,6.29,1.77,19.84,1.42,-0.24,0.34,5.14,18.4,3.83,-0.05,2.44,-1.17,11
3.35,-1.55,20.6,2.88,-1.71,2.39,5.91,1.88,19.36,1.22,0.88,0.49,5.22,17.99,4.38,-1.42,0.93,-2.05,11
3.05,-1.63,21.0,0.1,1.03,0.1,5.68,2.37,19.17,-5.42,0.05,-1.46,5.14,18.82,4.05,7.08,-1.22,-2.2,11
2.94,-1.99,20.48,0.49,0.78,-0.1,6.29,2.01,19.63,-0.68,-0.39,-0.15,4.99,18.04,4.09,1.17,3.27,-1.56,11
2.64,-1.62,21.08,1.61,2.98,-0.15,5.65,1.39,19.55,-1.51,4.1,-1.95,3.9,18.0,3.47,-0.98,0.29,-4.35,11
6.7,-4.49,26.72,4.93,142.97,23.68,-15.71,5.73,5.34,-50.83,167.04,-58.45,-16.83,4.23,0.66,-52.25,23.24,-91.7,12
-4.91,5.29,18.0,37.55,243.07,5.42,-20.33,-8.89,2.05,-44.58,99.8,-19.43,-20.81,2.79,2.36,-21.58,18.31,3.86,12
-18.05,5.75,5.3,-16.65,171.83,-41.16,-17.38,-2.48,-2.36,56.59,-70.85,25.24,-18.66,7.03,2.56,-17.14,-9.96,60.5,12
-19.89,-3.64,-2.54,-1.9,98.34,-4.39,-18.32,-3.94,-0.51,-4.0,-143.36,0.44,-10.3,11.06,4.36,28.12,-32.32,133.98,12
-19.79,2.55,-4.04,6.49,-55.03,3.47,-11.39,-4.52,8.0,39.6,-185.01,3.03,1.71,24.6,5.76,93.41,-34.23,174.95,12
-21.22,-1.04,-4.77,-27.15,-112.89,-13.23,-1.76,1.41,17.24,143.36,-159.77,41.5,3.04,20.88,3.4,-23.83,-3.12,101.86,12
-14.57,-2.17,3.72,15.58,-190.92,-21.68,7.53,0.85,27.44,-21.29,-144.19,3.56,7.32,21.83,2.81,-12.55,13.38,21.73,12
-9.06,1.9,19.94,61.72,-192.58,18.41,4.85,2.63,22.03,8.2,-42.19,16.46,4.89,17.43,2.97,-3.56,6.3,19.14,12
-0.59,-4.5,23.12,-43.07,-164.94,-16.99,6.51,2.1,21.3,-10.25,-11.67,8.84,5.69,18.46,3.37,-1.12,1.12,-1.46,12
5.06,-2.16,24.12,2.34,-59.42,8.84,6.62,1.95,19.85,-4.74,-2.44,-0.05,5.78,17.95,3.45,-0.54,2.98,-0.68,12
4.19,-0.88,22.27,-9.86,-15.33,8.94,6.42,2.48,18.9,-2.78,-1.17,0.24,5.37,17.46,3.4,3.03,0.59,-2.98,12
4.19,-1.66,21.06,-5.08,-2.88,-0.2,5.9,1.83,18.85,-0.34,-0.68,1.76,4.95,17.95,3.36,-1.61,0.78,1.81,12
4.18,-1.2,20.44,-0.2,-2.69,1.22,6.19,2.0,19.28,-0.34,-4.93,-0.93,5.6,18.51,3.56,1.32,1.9,-1.51,12
3.6,-1.77,20.75,-0.1,2.05,0.39,6.76,2.15,19.35,-2.49,-2.59,3.13,5.56,17.46,4.09,0.39,-0.63,-1.32,12
4.42,-1.76,20.62,-0.1,-7.47,-1.81,6.58,1.43,19.13,0.1,-0.1,-2.15,6.0,17.87,3.74,-1.42,3.66,-1.42,12
4.12,-1.48,20.67,-2.83,-2.59,2.15,6.78,1.96,19.16,-0.2,-0.68,0.98,5.44,18.42,3.71,0.34,4.2,-2.64,12
4.43,-2.16,20.31,0.68,-1.27,-0.98,6.61,1.95,19.56,-1.71,1.03,2.59,4.6,16.75,3.88,-1.17,-0.39,-1.27,12
4.4,-1.88,20.54,1.76,-0.78,1.42,6.38,1.45,18.89,0.29,-0.59,-0.83,5.88,18.96,4.01,4.98,1.22,-1.12,12
3.77,-1.61,20.44,0.1,1.37,1.66,6.65,1.78,19.33,-0.0,1.17,0.88,4.94,17.98,3.65,2.29,1.42,-0.98,12
4.15,-1.9,20.38,-0.15,-3.17,0.34,6.52,1.64,19.44,-1.61,0.73,-1.07,4.74,17.75,3.9,0.44,4.2,-0.63,12
-11.04,3.61,17.75,74.8,257.62,19.92,-24.38,-4.61,-2.69,9.28,4.25,10.5,-16.28,6.65,1.93,-5.62,4.64,-22.9,13
-18.95,3.53,6.65,29.83,172.8,5.57,-24.08,-3.65,-0.23,-0.73,-80.27,-2.69,-18.34,10.89,1.52,-14.75,16.6,44.34,13
-20.06,2.3,-0.2,-36.08,98.78,-28.61,-18.91,-8.32,9.52,-21.73,-125.2,-22.9,-16.32,14.49,1.86,-52.64,21.53,51.32,13
-22.17,0.28,-6.09,13.72,7.86,13.04,-12.9,-2.08,11.86,57.67,-154.88,17.82,-8.34,15.2,3.52,25.49,-30.08,111.38,13
-23.03,-0.09,-3.04,-4.54,-83.2,-10.06,-2.23,3.6,20.52,-4.39,-158.59,10.74,-4.94,15.31,4.2,-27.39,-41.6,134.33,13
-21.69,-3.31,1.5,-18.41,-110.5,-27.59,-1.03,-0.14,23.91,-19.97,-121.78,44.78,1.24,19.06,5.26,-39.45,-4.49,56.49,13
-16.61,-0.1,11.05,42.68,-151.27,5.32,7.86,0.19,21.32,-2.25,-34.28,6.88,4.69,15.86,5.03,-8.11,0.98,11.77,13
-4.93,2.14,22.0,7.08,-167.04,-13.77,7.96,1.4,19.76,-6.54,-3.42,-2.59,3.84,19.55,5.27,4.15,0.15,-0.39,13
7.26,-2.25,28.42,-30.52,-173.19,-10.01,6.82,0.26,19.11,-6.2,-0.2,-1.51,4.01,18.36,5.56,1.03,0.05,-2.73,13
5.8,-3.55,21.72,-9.77,-33.01,1.32,6.8,0.3,18.95,-0.54,-2.25,-2.29,3.75,17.69,5.58,4.25,-0.93,-2.64,13
6.16,-2.3,20.87,-5.96,-4.15,-1.76,6.97,1.24,19.26,3.37,2.05,2.73,4.51,18.9,5.31,6.45,3.91,-0.93,13
5.37,-2.92,19.82,-5.62,-1.12,-0.68,5.45,0.08,18.92,-1.66,6.25,0.1,3.51,18.48,5.1,6.15,2.49,-6.69,13
5.19,-3.42,19.65,0.39,0.78,-2.29,5.68,-0.49,19.49,1.86,2.05,0.05,2.67,17.86,4.87,1.9,1.37,-3.03,13
5.38,-3.02,20.38,4.88,2.15,3.86,7.05,0.42,20.33,2.0,-3.52,0.2,3.49,17.57,4.74,-0.24,2.73,1.07,13
3.88,-3.38,19.95,-2.15,9.47,2.25,6.02,-0.03,19.24,-3.37,2.29,0.63,2.97,19.33,4.75,7.13,2.54,-2.88,13
3.86,-4.08,20.02,0.24,2.15,0.88,6.13,-0.28,19.31,-0.49,-0.88,-2.1,2.47,17.59,4.35,1.71,0.2,-0.68,13
4.7,-3.29,20.34,-1.12,-4.44,0.93,7.03,0.38,20.09,1.22,0.1,-0.83,3.82,18.54,4.22,1.66,1.42,3.13,13
3.96,-2.83,20.65,1.07,3.08,1.46,5.8,0.4,19.21,2.05,2.98,-2.1,3.33,18.51,4.06,5.08,2.54,-2.93,13
4.43,-3.09,20.08,2.25,-2.34,-0.83,6.1,-0.12,19.5,-0.0,-2.64,-0.05,3.09,18.81,4.47,3.91,-1.12,2.25,13
5.23,-2.82,20.85,0.88,-4.2,1.32,7.19,1.35,19.94,0.98,-3.66,1.46,3.91,18.3,3.99,2.83,2.49,4.1,13
6.98,-2.56,25.95,0.44,68.07,29.93,-22.73,0.98,-6.44,-5.27,25.98,6.35,-19.47,4.43,0.07,-15.33,15.28,-26.03,14
-1.1,-1.44,22.6,46.19,255.66,54.05,-24.9,0.79,-3.05,-5.37,-46.19,4.74,-20.5,5.63,-0.22,12.6,-16.21,26.9,14
-18.9,1.27,7.73,24.56,244.38,4.2,-11.64,4.27,2.04,91.85,-100.59,-7.62,-21.4,9.68,-2.87,-49.61,-24.17,109.77,14
-20.94,-1.86,-4.87,-41.36,109.13,-15.33,-19.97,-3.36,12.77,-5.13,-121.87,-18.9,-11.79,13.57,1.93,11.62,-34.86,119.87,14
-19.4,1.76,-6.81,1.71,31.4,13.43,-6.97,8.47,15.38,67.14,-165.77,36.72,-4.23,16.63,2.25,71.48,-43.75,162.4,14
-19.83,3.14,-5.6,-7.96,-28.08,0.15,11.69,-0.37,25.03,-23.97,-159.28,16.41,1.5,22.22,0.87,0.59,-10.84,95.51,14
-23.17,3.08,-7.76,0.2,-135.11,0.34,10.36,0.34,23.73,-0.88,-89.36,14.55,7.79,21.12,0.43,21.97,-23.34,38.48,14
-18.76,-1.76,4.77,-29.2,-103.56,-33.94,6.13,1.87,21.03,3.22,-22.66,-2.78,4.66,19.4,-0.45,-2.15,-4.64,14.4,14
-0.51,0.78,13.08,83.25,-222.07,-3.32,5.85,0.25,20.06,4.88,-11.67,-1.03,5.3,18.92,-0.09,-25.63,3.81,3.52,14
-7.79,-1.55,22.36,-69.87,-152.54,-12.7,5.17,1.21,19.99,-0.59,-4.25,-2.2,4.8,19.47,0.43,0.29,0.05,1.86,14
-0.85,-3.66,24.95,-17.58,-71.24,-16.89,5.95,0.7,19.34,-6.64,-1.32,-0.15,5.51,17.53,1.3,4.2,1.56,-4.25,14
1.65,-1.94,22.52,0.44,-18.8,-2.2,5.84,0.42,19.69,-3.17,2.2,-1.9,5.37,18.61,1.02,11.77,-2.39,-2.88,14
2.26,-3.06,20.95,-8.15,-6.1,-4.25,5.03,0.15,19.65,-4.25,2.73,0.68,4.95,18.32,0.69,0.39,1.27,-4.39,14
3.46,-2.48,21.18,0.39,-10.35,-5.03,5.09,0.14,19.72,0.39,-1.81,-2.05,5.3,19.08,1.36,9.77,-1.86,-0.59,14
3.27,-3.14,21.04,-4.54,-4.3,0.15,6.03,1.75,19.35,4.35,-5.86,4.15,4.41,17.93,0.72,4.88,-0.98,2.05,14
3.48,-2.59,21.65,2.59,-7.96,-0.78,6.25,1.45,19.94,0.2,-2.73,-2.15,5.27,18.44,0.65,5.42,-2.29,1.86,14
3.46,-2.62,21.43,-2.39,0.0,2.0,5.47,0.2,19.26,0.83,4.1,0.1,5.76,17.94,1.02,-0.73,1.32,-5.27,14
3.1,-2.72,20.9,3.32,-1.9,-4.0,6.54,1.33,20.38,0.63,0.63,-2.64,4.49,18.32,0.38,7.18,0.49,0.93,14
3.33,-3.34,19.9,2.29,0.88,-1.86,5.69,1.7,19.59,-1.17,2.98,2.34,5.03,18.21,0.06,0.29,3.91,-3.12,14
3.15,-2.68,21.0,5.13,-3.71,0.68,5.4,1.41,19.82,0.44,1.32,-0.05,4.75,18.55,0.36,2.64,2.29,-2.05,14
10.78,-9.53,30.32,-23.14,93.9,52.2,-23.06,-1.64,-4.18,5.42,-18.6,27.88,-20.64,0.55,-2.37,-26.9,17.72,-37.45,15
-3.29,0.75,15.06,60.2,293.7,61.38,-21.03,-0.48,-1.95,3.27,-85.6,0.24,-18.8,3.99,-1.0,8.54,-13.62,70.12,15
-21.66,7.3,2.39,36.87,175.05,-2.83,-16.16,-4.47,3.66,-2.64,-195.9,-24.76,-13.78,9.69,-0.86,-0.2,7.28,141.46,15
-19.37,0.57,1.2,-54.3,113.96,4.1,-2.82,-4.64,14.67,74.95,-246.34,20.95,-7.68,24.36,0.43,60.4,-5.03,194.68,15
-22.79,1.31,-8.39,-20.36,41.21,8.79,4.3,-2.06,22.74,-17.68,-182.76,-24.76,-1.11,21.47,-0.46,-29.54,-23.24,133.3,15
-21.5,4.16,-5.26,3.91,-66.36,-4.54,11.79,-1.46,26.1,-32.23,-73.49,-28.27,6.77,22.98,-0.77,-10.64,-19.82,60.06,15
-20.99,2.1,-1.05,-29.54,-121.92,-26.9,13.45,-0.44,18.73,9.77,-9.62,-8.98,6.71,18.28,1.13,-12.89,-8.74,1.61,15
-13.21,-3.98,12.16,-5.32,-187.35,0.88,8.41,-1.28,18.44,3.08,7.37,-9.77,6.13,18.54,0.9,0.83,-7.76,-2.64,15
-6.88,-1.88,22.07,-52.78,-162.21,-23.19,6.72,-0.7,18.56,2.34,-1.46,2.98,5.84,18.03,0.49,3.81,-0.29,-1.66,15
7.73,-4.38,26.82,-31.74,-115.14,-40.43,7.38,-0.3,19.24,5.52,3.27,-1.12,5.81,18.42,-0.04,3.71,0.44,0.29,15
6.01,-5.37,22.3,19.58,1.66,-9.47,7.19,0.37,19.4,2.34,-0.73,1.95,4.72,18.57,-1.09,2.64,0.93,-2.78,15
3.2,-4.48,20.64,4.49,6.79,-8.06,6.52,-0.26,18.89,1.56,4.49,-1.86,5.08,18.86,-0.14,3.03,1.61,-1.32,15
3.31,-4.19,20.3,7.86,1.76,-2.83,6.79,-0.53,19.07,2.15,-3.17,0.24,4.79,17.8,-0.38,4.59,0.59,1.27,15
3.66,-3.74,21.13,1.66,-4.2,-1.86,7.9,-0.03,19.42,4.3,-2.15,-1.71,4.74,17.96,-0.74,3.91,-0.63,2.34,15
3.21,-3.99,20.29,4.0,4.49,-0.44,7.0,-0.04,19.1,2.64,-2.98,1.12,5.86,17.78,-0.74,1.86,0.68,0.24,15
3.02,-3.64,21.01,1.32,-1.12,0.78,8.14,0.49,19.41,2.64,-1.61,1.76,5.57,18.77,-1.14,2.88,1.07,0.78,15
2.69,-3.48,20.25,2.2,-0.05,0.2,7.54,1.06,19.0,-1.66,2.49,0.34,5.67,18.25,-1.31,0.24,2.73,-2.73,15
3.24,-3.61,20.41,1.56,-4.44,0.39,5.85,-0.54,18.72,-4.35,5.27,-3.17,4.71,18.04,-0.58,0.05,-1.32,-4.59,15
3.65,-3.06,20.52,1.71,-2.39,0.39,7.17,-0.72,19.31,1.17,-2.44,-1.51,4.73,17.53,-0.1,3.03,-0.63,2.59,15
4.1,-3.02,21.07,2.25,-4.98,-0.1,7.86,1.31,19.36,3.61,-1.37,3.96,5.98,18.25,-0.93,3.76,5.37,0.59,15
-0.87,-2.45,21.6,19.97,73.97,9.67,-2.55,-3.79,22.37,-26.51,-25.93,-8.3,-15.43,15.37,-0.66,25.24,2.59,-59.86,16
-3.34,-0.56,21.36,30.86,128.27,7.08,-3.9,-4.65,21.22,-5.96,-15.33,1.32,-17.9,11.63,-1.35,8.94,25.83,-70.21,16
-14.23,0.61,15.09,40.38,126.95,4.83,0.16,-1.89,21.84,-8.01,-30.86,-1.03,-19.29,6.15,-4.16,-33.2,32.37,-66.02,16
-15.99,2.62,12.85,25.98,94.63,2.1,-0.91,-5.13,21.32,1.42,-5.42,1.37,-21.79,5.13,-6.17,2.93,9.08,-34.47,16
-22.38,4.48,6.05,52.59,135.4,-0.05,-0.66,-4.53,21.4,5.62,-5.32,5.91,-20.66,3.62,-5.03,-1.76,-7.76,-1.12,16
-18.82,6.3,-0.91,34.08,89.94,17.58,-0.05,-2.83,21.06,24.07,-7.23,2.49,-20.8,4.14,-2.97,-0.98,-16.21,15.33,16
-19.22,6.31,-6.78,1.56,58.5,12.06,0.74,-2.97,21.78,5.18,-4.05,2.25,-19.85,9.14,-0.56,-1.81,-25.2,9.13,16
-18.15,7.24,-7.57,7.86,29.25,5.91,0.15,-2.23,21.04,2.93,0.54,4.69,-20.77,8.99,-0.1,-11.43,-27.98,19.04,16
-17.52,7.26,-8.28,-8.69,-4.54,-9.42,-1.03,-1.45,20.82,1.37,3.37,0.49,-18.36,7.73,1.93,2.44,-35.94,37.3,16
-20.01,7.34,-7.72,-14.01,-23.0,-11.52,0.29,-1.77,20.95,1.37,-7.47,3.81,-16.84,11.14,3.95,1.66,-31.49,35.99,16
-21.03,3.56,-4.28,-12.26,2.78,-28.32,-0.51,-1.5,20.41,2.83,-12.45,2.2,-13.84,13.96,5.28,17.28,-23.73,37.94,16
-23.48,3.72,-5.79,-10.45,-38.67,-15.62,1.8,-2.41,21.67,8.84,-14.4,0.39,-13.75,12.97,5.19,-1.86,-12.74,19.53,16
-22.66,2.32,2.53,-64.75,-102.44,-23.63,1.42,-1.07,20.94,10.5,-8.94,-1.51,-12.7,15.94,5.83,-1.32,-0.68,9.81,16
-22.65,-0.51,8.66,-40.92,-78.91,-26.12,1.84,-1.27,21.23,2.78,-3.86,1.61,-13.65,14.55,4.61,-2.83,1.37,12.06,16
-17.47,-4.27,15.02,-18.95,-104.59,-17.72,0.95,-1.46,20.69,5.71,-3.61,0.78,-13.51,15.48,4.81,-1.9,3.76,5.52,16
-15.05,0.26,18.91,10.94,-118.99,2.88,0.7,-1.2,20.8,0.44,-3.66,0.83,-13.72,15.28,4.82,1.32,4.15,2.0,16
-8.16,-2.23,22.09,-5.52,-34.57,-1.51,1.65,-1.29,21.17,-3.66,-3.76,0.98,-13.44,14.97,4.68,1.22,2.93,3.76,16
-8.49,-1.65,20.25,3.56,-24.12,5.37,2.39,-1.43,20.95,0.24,-8.25,1.22,-14.34,16.69,4.5,7.13,7.13,8.45,16
-4.65,-1.81,21.61,-6.25,-14.36,0.44,2.67,-1.61,20.79,-3.91,-4.2,-0.78,-12.98,16.74,4.88,3.37,4.69,3.42,16
-7.5,-2.13,20.42,3.91,-5.47,1.51,2.47,-0.5,20.76,6.79,-1.71,1.95,-12.7,15.76,4.43,-2.59,5.52,-1.86,16
-15.46,1.49,16.43,50.63,148.1,5.62,-22.52,4.36,-6.89,18.8,34.67,21.44,-23.15,-0.07,-2.48,-23.14,26.56,-46.58,17
-17.1,0.38,6.55,71.34,247.66,-5.27,-19.42,6.23,-5.63,16.55,-33.79,-4.79,-22.01,0.23,-2.18,-11.87,-9.33,10.94,17
-20.16,6.56,-5.54,46.0,96.29,19.58,-19.41,2.65,-1.26,3.86,-134.47,-28.37,-22.84,4.13,-0.73,-18.02,-45.02,48.0,17
-21.99,5.16,-10.75,5.03,38.43,8.94,-12.78,2.15,4.1,-34.38,-296.29,-52.49,-17.33,6.37,2.72,20.56,-58.84,93.7,17
-19.48,5.71,-8.31,-6.98,-35.4,-5.03,-11.22,-2.26,16.14,-50.63,-196.63,-60.64,-10.88,9.18,5.87,27.83,-68.31,96.63,17
-26.04,5.55,-8.02,-52.98,-150.78,-32.52,2.24,-7.39,25.88,23.14,-81.93,-19.73,-9.08,19.35,7.33,56.2,-23.97,60.89,17
-16.37,4.23,3.13,-52.83,-245.75,-38.23,7.15,-7.83,21.81,-59.38,-58.15,-6.2,-6.97,21.79,6.88,18.99,-4.79,31.15,17
-9.58,0.67,15.33,-28.86,-168.85,-35.84,5.42,-5.97,20.29,13.72,-5.91,3.76,-7.42,19.67,5.68,6.88,2.29,7.76,17
-1.08,-6.26,22.79,4.15,-102.88,-25.44,4.01,-5.93,20.47,-11.04,-12.35,1.12,-7.55,18.8,4.97,0.68,-3.12,5.47,17
4.05,-5.24,23.0,-31.49,-29.39,1.56,4.77,-6.69,19.21,-12.21,-4.39,-2.0,-7.29,18.23,5.17,4.54,4.49,1.81,17
0.54,-3.78,22.01,-0.15,-9.18,3.03,3.49,-5.76,18.88,1.95,0.59,-2.05,-6.25,18.42,5.71,4.69,-2.39,-1.12,17
-0.35,-3.68,21.15,-4.05,3.47,5.27,4.0,-7.63,19.68,11.43,-2.2,2.39,-6.6,18.28,5.59,7.67,-5.66,0.54,17
0.44,-2.63,21.41,-2.59,-6.4,-1.46,3.07,-5.9,19.26,-5.52,2.05,-1.66,-7.27,17.95,5.25,1.9,1.17,-2.98,17
-0.02,-3.4,21.32,4.3,-0.15,0.2,4.38,-6.22,19.34,-6.88,1.56,-1.12,-7.57,17.79,4.93,0.49,3.47,0.1,17
-0.25,-4.3,20.71,6.79,-1.56,1.22,4.47,-6.42,19.42,-7.72,-2.93,-0.2,-7.12,18.39,5.33,1.12,2.39,1.95,17
0.79,-3.37,21.01,-1.76,10.84,1.95,4.93,-5.89,19.48,-1.03,-4.2,1.46,-6.32,18.78,5.4,5.66,0.59,2.29,17
0.84,-3.39,21.11,-6.3,-0.54,1.03,5.12,-6.08,19.47,-2.1,-0.63,2.64,-6.72,18.9,4.82,4.35,2.2,-0.88,17
0.75,-4.11,21.04,-11.08,0.2,0.49,4.67,-6.55,19.58,-0.24,-1.22,-1.76,-7.08,17.35,4.85,-2.3,2.44,-0.44,17
0.93,-3.87,21.42,0.88,-6.64,0.24,5.15,-7.0,19.49,-0.1,-8.06,-4.88,-6.77,17.63,4.98,-0.0,0.29,1.86,17
0.4,-3.11,21.39,2.1,1.37,0.73,5.68,-6.12,19.33,0.34,-4.25,1.95,-5.79,18.65,5.48,0.68,0.88,1.71,17
6.6,-4.42,17.03,26.76,233.25,24.85,-18.73,3.17,-4.77,62.16,-94.19,24.22,-10.42,24.47,2.06,60.2,-7.47,-128.52,18
-15.37,-4.13,15.1,58.89,290.72,50.54,-28.59,3.4,-7.35,1.66,-129.39,-21.87,-15.19,13.41,1.63,-48.73,22.07,-138.57,18
-18.54,7.95,3.29,102.69,130.22,34.03,-10.43,-0.46,7.12,-66.06,-366.5,-57.76,-20.19,0.65,0.01,-74.32,32.52,-85.69,18
-21.41,1.5,-9.48,-21.34,86.67,-6.49,4.11,-7.17,25.78,27.29,-187.94,-31.74,-21.83,0.01,0.0,-1.9,-6.3,25.78,18
-20.12,5.1,-12.01,-13.92,-30.13,23.97,10.12,-5.87,22.69,-4.54,-43.75,-5.32,-20.04,5.82,2.2,-16.89,-37.7,79.93,18
-22.1,7.12,-5.02,-35.64,-164.84,-33.98,9.51,-4.73,21.28,-4.54,-16.06,5.22,-11.84,9.99,5.73,46.39,-77.1,114.99,18
-15.18,0.94,8.95,-52.69,-266.75,-54.83,6.33,-3.72,20.13,-8.5,-10.25,3.47,-11.51,15.59,6.78,7.03,-24.07,64.36,18
-1.9,-6.63,19.75,-55.96,-123.54,-19.92,5.1,-2.79,19.35,-13.92,-1.51,-1.86,-7.27,22.58,6.27,18.41,-14.79,41.06,18
1.62,-6.57,23.47,18.21,-56.25,-6.64,6.42,-4.07,19.73,7.57,1.56,2.15,-7.12,21.35,5.71,-0.39,4.0,13.18,18
0.93,-5.62,22.97,-6.2,-12.74,6.79,6.78,-3.9,19.83,-0.83,-0.88,-1.81,-6.7,19.41,5.42,0.98,3.71,4.59,18
-0.76,-3.57,21.47,-4.44,5.96,2.39,6.49,-3.46,19.56,5.62,-1.07,-1.07,-6.34,18.4,5.42,6.2,-0.54,1.76,18
0.16,-2.61,21.6,-5.96,-0.63,-1.12,7.28,-3.7,19.55,-1.47,-0.68,2.69,-6.32,18.66,5.27,2.2,-5.47,5.18,18
-0.36,-4.05,21.23,3.86,-11.28,-2.15,7.15,-3.15,19.72,-0.1,-3.52,2.88,-6.51,17.89,4.82,4.44,-2.64,2.0,18
-0.01,-3.37,21.56,5.66,-5.86,1.03,5.99,-3.04,19.39,4.2,-2.2,-0.05,-6.49,17.82,4.69,-0.63,-0.34,0.54,18
0.24,-3.58,21.08,1.71,-7.62,2.39,6.26,-3.32,19.25,1.51,-3.86,-1.37,-6.12,18.99,4.94,-0.0,4.15,-0.15,18
0.4,-3.51,21.1,-2.49,0.73,2.59,7.24,-3.94,19.61,-2.78,-1.07,-1.27,-6.65,18.18,4.84,-1.51,4.83,-2.44,18
0.57,-3.25,21.49,-2.3,-5.32,2.05,7.09,-3.48,19.31,-0.68,-0.24,0.78,-6.46,18.55,5.05,-0.44,0.44,-0.78,18
0.21,-3.14,21.01,3.52,-3.08,1.32,6.99,-3.36,19.28,-1.61,-1.46,-0.78,-6.34,18.25,5.08,2.98,-0.78,0.78,18
0.19,-3.37,20.99,0.88,-1.37,1.61,7.78,-3.14,19.51,-5.47,-2.1,-2.39,-6.65,18.48,4.99,3.76,0.73,2.2,18
1.25,-3.7,21.09,0.1,-3.86,1.27,7.1,-3.28,19.31,0.83,-1.07,1.22,-6.09,18.34,5.08,-0.98,2.49,1.42,18
2.5,-0.8,23.37,82.57,154.3,23.78,-13.93,1.99,13.94,131.49,243.12,56.69,-2.84,16.3,16.88,29.69,54.05,-54.39,19
-12.73,0.44,17.86,79.25,219.63,28.22,-17.12,2.17,2.6,16.89,224.12,-3.42,-7.22,12.29,12.26,53.47,145.02,-104.74,19
-19.14,2.81,-5.28,91.55,260.6,34.91,-14.98,3.8,-4.08,1.03,104.54,23.68,-17.5,10.66,2.13,54.93,132.62,-63.92,19
-13.15,9.34,-10.05,55.18,115.19,24.71,-18.46,7.03,-12.75,39.26,17.04,14.5,-25.8,6.92,-8.85,12.3,41.6,-37.74,19
-15.13,11.98,-14.32,6.93,-25.98,-8.06,-23.29,6.17,-9.82,-5.32,-73.29,-0.49,-19.2,5.51,-5.8,-18.75,-29.64,19.48,19
-20.56,10.82,-13.43,-19.34,-87.99,-14.99,-20.13,9.72,-4.86,-16.31,-260.35,-19.43,-22.57,8.04,-1.13,-54.74,-108.4,27.93,19
-12.59,9.79,0.97,-99.56,-225.24,-36.23,-4.46,-4.49,10.17,-112.45,-185.79,-25.24,-13.15,3.98,11.49,-27.39,-126.42,8.74,19
-9.87,5.3,12.89,-51.81,-128.03,-16.65,-2.32,-4.3,18.26,-5.57,-97.75,-23.68,-11.52,10.22,14.94,-0.78,-54.59,29.54,19
-11.45,1.38,20.87,-50.78,-78.32,-25.98,5.45,-4.46,21.99,-18.16,-35.3,-3.66,-8.22,11.33,17.85,-6.05,-45.02,23.24,19
-6.06,-4.43,23.6,-35.35,-23.73,-2.1,-1.73,-3.78,19.43,-1.32,16.21,1.12,-8.98,11.19,16.51,-6.15,-1.03,2.1,19
-5.23,-0.39,20.88,1.56,7.37,4.54,-0.27,-5.25,20.68,-18.07,2.1,0.1,-9.19,10.88,16.02,-4.39,4.98,2.69,19
-4.61,-1.64,20.97,-6.25,3.52,4.88,-0.0,-4.39,20.41,-3.52,2.2,2.25,-8.78,10.86,16.65,4.69,4.2,-0.15,19
-3.51,-1.54,21.11,-0.88,2.05,4.25,1.04,-4.23,20.07,1.61,-8.2,-2.34,-8.61,9.81,15.83,3.17,-2.69,1.22,19
-3.1,-1.89,21.08,0.29,-8.2,-0.98,2.66,-3.94,20.71,-0.44,-14.99,-1.9,-8.17,10.42,16.03,0.54,-5.37,6.1,19
-1.57,-2.07,21.31,-1.12,-15.67,-0.29,3.03,-3.96,20.28,4.0,-11.08,1.9,-7.28,10.54,16.68,2.2,-2.93,5.96,19
-1.22,-2.76,21.24,1.12,-11.52,3.71,2.82,-4.27,19.84,0.39,-0.98,2.64,-6.91,11.22,17.03,3.22,-2.39,1.9,19
-0.12,-2.22,21.37,1.17,-4.83,2.1,3.34,-3.57,20.3,-0.1,-0.05,-1.71,-7.48,10.87,16.45,0.05,-3.61,5.62,19
-0.16,-2.01,21.42,2.59,-5.91,-0.73,4.2,-4.45,20.55,0.93,0.24,1.46,-6.7,11.05,16.77,1.9,0.39,3.22,19
-0.31,-2.18,21.51,1.71,-4.05,2.44,2.95,-4.53,20.46,-0.2,-3.42,6.1,-6.26,10.75,16.9,-0.39,1.56,1.03,19
-0.78,-2.29,21.17,-2.1,-1.61,3.96,3.72,-4.37,20.3,-3.37,-4.3,6.74,-6.28,10.98,17.0,-0.1,-2.88,0.15,19
-21.93,10.97,-5.48,61.38,143.85,23.05,-21.39,3.77,0.14,17.14,120.12,19.68,-22.41,6.54,-2.97,-20.9,-42.87,-7.03,20
-21.19,7.3,-14.13,30.91,65.77,9.62,-24.95,0.77,-10.7,-7.08,81.35,21.68,-19.84,7.12,3.14,-31.2,-71.0,6.84,20
-21.69,7.5,-11.88,7.32,-39.75,1.71,-21.58,3.67,-8.06,29.39,-52.05,8.01,-18.44,6.5,7.96,-20.85,-88.62,7.96,20
-25.8,7.65,-9.08,-10.01,-68.31,-12.89,-28.49,2.13,-6.69,6.54,-91.94,-2.98,-17.38,4.81,11.4,-29.59,-89.65,16.85,20
-27.97,6.58,-0.28,-39.55,-84.62,-24.27,-31.67,2.77,1.17,-81.4,-132.03,-41.8,-14.69,7.23,15.69,-15.82,-60.84,23.63,20
-22.43,1.31,10.13,-47.61,-64.94,-48.44,-23.45,-1.29,12.53,-60.06,-114.55,-64.75,-11.88,7.89,17.81,5.18,-14.6,10.89,20
-20.89,-3.43,13.42,-47.36,-93.85,-39.65,-16.76,-5.31,15.65,-8.94,-145.12,-43.12,-12.43,7.97,16.53,-1.17,4.2,4.49,20
-10.59,-6.01,18.86,-35.11,-58.64,-17.63,-3.81,-9.79,25.05,15.48,-114.99,-3.66,-12.81,7.26,15.58,-1.56,-3.52,5.57,20
-6.07,-4.92,21.46,16.21,7.32,7.28,-0.62,-5.29,22.77,-10.45,-12.3,-2.49,-12.96,7.54,15.83,1.42,-3.08,1.71,20
-5.8,-4.55,20.67,7.23,12.94,12.94,-1.51,-4.65,21.49,-5.81,3.17,5.47,-12.63,7.71,16.37,1.76,-0.44,3.27,20
-6.26,-4.04,20.22,9.81,-0.29,6.79,-1.02,-3.82,20.91,-0.83,-4.44,-0.83,-11.41,8.1,16.67,3.17,-0.54,3.32,20
-5.25,-3.87,20.6,7.81,0.63,6.59,-0.43,-3.66,20.42,-0.68,-0.54,0.44,-11.38,7.96,16.25,-0.34,0.59,3.13,20
-4.92,-4.21,20.77,1.95,-1.95,4.98,0.58,-3.68,21.22,-3.37,-7.96,0.98,-11.75,7.8,15.75,1.32,-5.81,2.29,20
-3.9,-4.06,21.06,2.39,-3.37,3.17,1.79,-3.21,21.29,2.05,-6.15,2.98,-11.4,7.38,16.04,3.08,-8.2,3.42,20
-4.29,-3.9,20.91,4.78,0.73,4.25,1.59,-3.45,21.22,5.03,-5.27,3.91,-10.29,7.95,16.92,6.05,-13.33,9.18,20
-4.34,-3.43,20.59,2.2,-6.45,0.24,1.42,-2.98,20.68,-0.44,-5.37,0.05,-9.84,9.53,17.5,1.76,-1.86,5.13,20
-3.82,-4.27,20.64,1.12,-6.88,-0.39,1.23,-3.95,20.56,-1.71,-6.45,0.15,-9.61,9.04,16.89,0.54,-0.34,1.95,20
-2.76,-4.31,20.91,6.79,-15.92,0.34,3.34,-3.12,21.42,12.89,-15.77,2.25,-9.04,9.02,17.38,-0.29,-0.44,0.24,20
-0.82,-2.93,21.98,4.44,-5.62,4.64,4.1,-1.72,20.95,5.13,-2.29,3.91,-9.28,8.93,17.1,0.63,0.73,-0.2,20
-1.76,-2.68,21.44,3.56,-3.42,2.1,3.3,-2.0,20.69,1.95,-2.1,0.15,-9.03,8.79,17.14,0.59,0.93,-1.37,20
-21.18,5.68,-4.81,8.15,87.5,74.07,-0.93,-9.24,11.93,63.43,314.6,96.88,-4.38,20.42,1.39,39.6,6.25,-43.95,21
-22.53,7.48,-12.04,-19.19,16.36,2.54,-21.02,-5.68,8.72,64.45,159.23,58.69,-7.12,13.32,1.29,50.98,-1.56,-123.0,21
-21.67,6.4,-6.9,9.47,4.59,-2.2,-20.27,2.62,-5.66,6.25,69.48,74.95,-10.55,13.49,-2.57,21.73,50.88,-111.67,21
-25.73,7.88,-6.52,-2.25,-43.46,-12.99,-23.64,4.97,-9.41,-25.73,3.91,-4.59,-20.2,5.69,-16.45,6.4,117.87,-19.43,21
-20.55,4.26,3.86,-56.45,-197.12,-17.87,-24.51,2.81,-5.83,5.91,-10.21,1.86,-13.43,8.18,-9.56,-8.74,-29.3,-22.8,21
-19.76,0.43,10.2,-40.23,-138.57,-27.54,-29.81,4.54,-7.83,0.88,-90.67,-12.94,-16.24,11.73,-9.19,3.27,-17.87,24.66,21
-13.16,-1.62,15.68,-39.26,-179.64,-28.71,-21.53,3.87,4.32,-26.22,-208.5,4.88,-17.2,12.83,-8.44,-62.16,-75.59,12.26,21
0.96,-5.66,20.75,-45.9,-68.51,-15.53,-13.74,-3.91,14.56,-65.87,-162.45,-42.33,-18.98,12.7,-1.18,-57.67,-32.52,42.38,21
0.77,-4.26,21.31,2.25,10.35,-6.25,-5.47,-1.2,17.7,-20.95,-207.52,-8.25,-12.59,17.35,5.64,-61.04,-85.74,61.72,21
2.24,-4.48,21.47,-10.11,-14.94,-2.2,8.97,-8.08,22.54,-74.12,-81.93,-17.38,-10.34,15.63,9.24,-35.6,-47.22,25.05,21
2.4,-3.06,21.62,-4.64,-12.3,-2.34,5.2,-6.05,18.61,9.67,0.05,-6.05,-6.65,15.46,12.39,10.84,-18.21,6.69,21
1.29,-2.93,21.33,0.73,-5.52,0.15,7.23,-5.73,19.67,-5.27,-8.25,-5.18,-7.23,14.99,11.87,-7.13,-5.37,8.5,21
0.85,-2.47,21.04,8.5,2.0,2.2,6.61,-5.96,19.33,-5.62,0.2,-2.78,-7.52,14.98,11.82,-7.13,-3.56,-1.42,21
1.87,-3.75,20.99,0.88,-6.05,1.42,6.0,-6.06,19.11,0.73,0.29,0.44,-6.82,16.0,12.55,-2.83,-3.96,-2.54,21
1.07,-2.81,21.16,7.81,-1.56,-1.32,5.33,-5.96,18.9,-14.84,0.54,-3.17,-7.54,15.24,12.14,3.12,-2.2,-0.39,21
0.61,-1.88,21.04,-0.88,-1.76,1.12,5.88,-5.48,18.77,1.32,-0.93,2.49,-6.85,15.23,12.04,-2.0,1.66,-1.46,21
0.76,-2.37,20.99,2.2,-2.59,2.39,5.24,-5.53,19.17,8.01,9.23,2.54,-7.47,15.96,12.36,4.3,-1.9,-1.12,21
1.72,-2.19,21.09,1.56,-0.78,0.15,5.48,-5.6,19.48,-0.63,0.49,-2.25,-7.42,14.14,12.04,1.12,4.1,0.44,21
1.29,-3.03,21.15,0.54,4.79,-1.76,5.55,-5.55,19.4,0.15,-2.88,1.03,-7.43,15.42,11.96,0.63,2.64,0.0,21
0.99,-2.48,21.13,1.37,1.07,3.76,5.54,-6.03,19.5,-0.68,-1.61,-0.93,-7.15,15.63,12.21,2.69,-0.44,-0.93,21
-8.37,-2.81,17.0,76.46,272.02,50.83,-18.11,6.18,10.76,121.14,248.78,45.61,-3.99,16.58,12.38,68.31,100.29,-114.65,22
-17.51,6.6,-0.55,79.93,260.55,49.17,-22.48,-0.71,-0.48,-51.42,168.26,25.44,-12.27,15.92,4.12,66.02,117.48,-139.6,22
-21.89,7.78,-7.55,7.67,54.25,5.86,-18.87,11.42,-4.6,14.31,24.85,15.58,-21.04,6.74,-5.27,26.12,30.03,-29.74,22
-22.26,9.26,-10.14,-6.49,16.41,4.3,-21.53,6.07,-5.61,-6.79,-11.18,-0.88,-21.21,6.22,-7.99,-18.8,19.53,-5.13,22
-23.25,8.94,-6.35,-21.88,-37.16,-18.21,-24.99,5.32,-5.6,-29.69,-95.17,-18.6,-19.0,10.01,-3.41,-19.24,-31.69,29.1,22
-14.5,5.44,2.23,-28.56,-110.01,-33.35,-20.6,6.03,3.27,-18.12,-171.73,-12.79,-16.21,11.77,0.84,-15.09,-86.18,62.55,22
-5.83,0.04,12.74,-68.51,-43.8,-46.53,-14.57,-0.23,13.7,-117.04,-77.2,-62.06,-9.97,15.11,6.63,10.94,-94.78,82.18,22
-2.71,2.98,18.72,-47.95,-155.62,-37.7,-10.58,2.57,17.81,-28.42,-135.94,-26.32,-6.1,17.08,10.78,3.95,-77.1,55.71,22
-3.28,-2.84,21.33,-40.77,-85.45,-23.05,-0.81,-8.03,22.69,-54.44,-94.92,-34.13,-4.82,16.93,11.75,-28.71,-46.83,43.07,22
-5.0,-3.72,23.12,-19.38,-38.48,-16.8,0.3,-9.23,21.0,-8.01,-37.55,-13.28,-1.1,17.21,12.77,-14.45,-20.26,18.51,22
-3.15,-4.78,21.46,0.24,-10.3,-2.98,0.63,-9.09,19.55,4.49,-16.06,-7.71,-0.88,16.22,13.41,-9.18,-5.96,6.98,22
-1.74,-5.17,21.29,6.93,-4.88,-3.96,0.0,-9.7,20.49,24.8,27.29,8.4,-0.59,16.51,13.3,2.69,-6.35,10.01,22
-4.08,-2.56,22.65,-18.16,-22.36,-6.79,-3.69,-5.92,19.61,-3.52,8.69,-11.96,-0.45,14.95,13.08,-0.39,-5.62,10.21,22
-1.97,-2.61,20.86,0.78,-9.33,2.44,0.02,-6.53,20.61,6.2,-5.76,-0.44,-0.99,15.19,12.69,-3.56,2.83,3.96,22
-1.43,-2.68,21.87,-0.29,0.98,0.73,-0.58,-7.08,19.25,1.42,2.69,-0.05,-0.19,15.29,13.07,1.22,3.91,-4.1,22
-2.16,-2.87,20.98,-6.93,-13.92,-1.12,2.0,-7.54,20.39,-7.86,-14.36,-2.05,-1.24,14.8,13.08,-0.88,-0.73,2.54,22
-1.21,-2.58,21.74,1.17,-6.1,0.49,1.81,-6.73,19.88,1.46,-1.81,1.86,0.32,15.5,13.52,2.0,1.66,0.88,22
-1.21,-2.26,21.41,1.51,-9.57,0.0,1.52,-6.07,20.48,2.39,-3.56,-2.25,0.25,15.2,13.29,-1.17,0.68,2.83,22
-0.94,-2.74,21.43,0.68,-0.44,1.07,1.9,-6.57,20.6,-4.93,-3.22,0.54,0.67,15.62,13.63,1.81,2.29,-0.78,22
-1.65,-2.76,20.34,4.44,7.28,5.52,1.62,-6.06,19.77,8.3,-4.88,-0.49,-0.3,14.68,13.03,3.42,5.47,-0.93,22
-19.24,5.08,1.26,20.36,93.9,27.54,-7.43,-2.54,15.23,98.78,194.63,75.49,-6.73,16.49,9.04,46.04,83.74,-86.43,23
-17.87,6.22,-0.53,-9.13,24.56,-1.22,-18.79,0.96,9.03,1.51,166.26,20.07,-11.3,17.23,5.4,52.64,69.58,-102.69,23
-20.53,6.73,-3.21,-1.42,2.78,-1.9,-21.68,5.07,-0.8,43.6,98.88,46.34,-17.93,11.3,0.41,19.53,55.91,-58.64,23
-22.33,9.77,-4.25,0.24,-72.61,-10.55,-21.67,3.42,-0.95,-8.15,27.93,4.83,-18.01,11.55,-1.36,7.42,25.98,-23.0,23
-18.52,3.85,2.56,-30.71,-141.94,-18.36,-20.12,4.15,-0.54,4.35,1.37,0.59,-18.66,10.83,-1.73,11.77,1.46,-1.32,23
-10.6,3.12,12.21,-2.05,-151.22,-19.09,-22.64,3.13,-0.45,-0.0,-46.53,-15.09,-17.45,11.14,-0.2,-3.71,-18.75,38.23,23
-8.08,1.46,18.21,-16.7,-115.09,-20.7,-18.89,0.87,8.04,-14.16,-101.42,-34.23,-18.41,10.32,-0.11,-34.18,-44.48,48.97,23
-2.34,0.98,20.7,-38.38,-131.79,-21.48,-15.38,2.3,13.58,-3.27,-87.11,-17.97,-12.5,13.94,5.95,-10.89,-62.7,54.79,23
-0.7,-1.31,23.34,-12.16,-48.58,-9.03,-10.48,-0.9,17.59,-23.05,-96.39,-18.21,-8.29,19.36,9.05,-2.49,-54.39,61.08,23
-1.91,-1.46,22.34,-1.47,-21.53,-3.81,-1.87,-2.14,19.5,-61.87,-110.55,-26.32,-5.09,17.48,10.11,-27.05,-46.73,54.15,23
-2.96,-1.31,21.56,0.78,-12.84,0.54,2.88,-13.62,22.81,-23.93,-4.0,-3.12,-2.02,17.94,11.65,-4.0,-12.21,13.28,23
-3.91,-2.25,20.59,-3.61,-6.59,1.46,-0.31,-5.26,21.29,3.03,-1.42,2.29,-1.28,16.85,11.75,-4.39,3.03,2.78,23
-3.67,-1.49,21.06,-0.05,-7.67,1.46,0.09,-7.03,20.21,-0.29,3.22,-0.73,-2.47,16.54,11.67,1.95,-0.15,-1.95,23
-2.68,-2.3,21.23,0.54,-2.0,1.76,0.47,-7.32,20.09,4.15,-0.93,0.73,-2.69,15.76,11.4,-1.95,2.05,1.56,23
-2.78,-1.43,21.4,2.44,-6.4,-0.39,0.51,-7.73,20.47,0.59,-5.27,-0.78,-2.36,15.87,11.5,-2.44,0.39,3.42,23
-1.67,-1.74,21.67,-1.76,-6.15,-0.78,0.72,-6.97,20.18,4.05,-5.03,0.63,-1.79,16.43,11.45,1.56,-0.29,2.25,23
-3.36,-1.25,22.26,-8.55,-11.38,-5.18,0.92,-7.01,20.43,3.17,-5.81,-1.46,-1.29,16.25,11.68,-2.78,-0.59,2.83,23
-1.54,-1.84,21.58,2.88,-9.37,0.29,0.44,-6.65,19.96,-1.81,-2.15,-1.12,-0.83,16.25,11.8,-1.07,2.05,0.73,23
-2.11,-1.25,20.9,-2.2,-3.81,-0.83,1.35,-8.97,20.19,-11.38,-0.34,-0.59,-0.6,16.01,12.34,0.15,-1.51,-1.03,23
-0.76,-2.35,22.07,0.98,-9.86,-4.3,1.14,-6.53,20.2,2.49,-2.29,0.1,-1.03,15.96,12.03,-4.1,1.51,2.44,23
-13.02,-5.74,15.06,49.85,305.76,33.2,-25.2,3.49,-11.7,41.16,45.75,24.46,-5.13,9.48,8.84,-19.78,-132.76,130.08,24
-17.87,-2.39,3.49,25.34,178.76,72.07,-20.39,4.16,-6.19,-7.23,-19.58,-3.08,0.6,13.77,12.88,-8.5,-106.4,119.58,24
-21.24,8.09,-6.25,28.95,114.55,14.6,-25.91,7.69,-6.98,-72.61,-118.65,-27.05,8.97,19.5,14.59,-0.29,-20.56,28.56,24
-25.12,8.45,-11.59,25.0,-31.25,13.09,-7.31,3.3,8.78,8.74,-92.33,-71.58,7.55,15.52,11.0,1.51,-0.29,1.42,24
-25.89,7.29,-12.71,9.96,-30.37,-1.61,-0.36,-2.79,15.45,-59.81,-143.26,-71.73,5.45,15.53,11.42,-3.42,7.37,0.54,24
-37.04,5.75,-7.38,-40.23,-67.68,-28.52,-3.39,-8.35,21.55,0.44,-122.8,-68.55,4.86,14.53,11.52,1.56,4.98,-4.64,24
-13.35,-2.48,9.86,-37.11,-70.07,-74.32,5.48,-9.97,23.24,-8.25,-34.77,-5.32,4.41,15.23,11.41,2.59,4.0,2.15,24
-1.54,-5.03,13.73,-60.79,-172.66,-62.06,5.92,-5.63,18.95,0.29,-2.34,-1.12,5.2,14.94,11.63,2.44,3.96,-1.37,24
3.24,-6.71,22.22,-30.03,-143.99,-41.8,4.99,-8.79,19.5,-3.91,2.64,0.68,4.77,14.76,11.49,4.59,3.81,-1.51,24
7.73,-4.79,24.08,-5.52,-13.53,4.39,4.45,-8.77,18.01,0.83,3.91,5.62,4.28,15.67,11.04,3.91,6.49,3.47,24
5.97,-2.41,21.06,1.46,-0.49,1.76,4.68,-8.03,18.94,-6.3,-3.66,-2.1,5.06,15.11,11.13,-1.47,5.13,1.76,24
4.07,-3.37,20.88,-3.32,1.86,1.12,4.33,-8.13,18.57,1.32,-0.78,4.1,4.78,15.29,11.17,1.27,1.42,0.05,24
3.88,-3.59,19.93,1.03,6.69,4.49,4.47,-9.26,18.96,3.66,2.69,3.81,4.79,14.97,11.16,1.22,3.13,-1.03,24
3.84,-3.45,20.51,-2.69,-3.96,1.03,4.99,-7.96,18.78,2.69,-2.69,4.05,5.13,15.35,11.32,0.59,1.46,-0.44,24
3.76,-3.25,20.49,4.0,-0.44,4.88,4.15,-6.98,18.8,4.98,-2.49,0.1,4.71,15.23,11.14,2.64,1.51,-0.78,24
3.71,-3.53,20.65,4.39,-0.34,3.13,4.53,-8.19,18.93,1.95,0.34,0.24,5.12,15.48,11.11,2.93,1.27,0.1,24
3.99,-2.65,20.72,5.47,-1.95,4.59,4.45,-8.09,18.9,1.37,-1.76,0.44,5.2,15.39,11.0,-1.03,2.49,1.22,24
3.64,-3.19,20.62,1.71,-4.35,0.83,4.3,-8.15,18.93,1.61,-1.86,0.54,5.33,15.4,11.25,2.69,4.2,-1.37,24
3.91,-2.69,20.71,2.29,-1.22,1.32,4.45,-8.51,18.94,-1.51,-0.49,-0.73,4.67,15.23,11.04,5.32,3.42,-3.27,24
3.85,-2.63,20.54,2.69,-2.25,1.07,4.76,-8.06,19.1,-3.17,-0.88,0.2,4.46,15.31,10.91,0.44,3.71,-1.56,24
-18.25,6.61,-1.3,13.33,101.37,-15.09,-21.34,6.11,-5.02,35.79,59.72,10.45,-18.81,6.81,-1.16,3.66,62.26,-78.27,25
-20.28,9.06,-7.78,22.22,40.19,-9.37,-22.05,6.8,-6.44,-3.37,-27.44,-5.62,-20.38,7.83,-2.6,29.15,13.72,-46.14,25
-21.09,6.19,-9.96,1.9,-19.97,-5.27,-22.87,5.66,-6.14,-4.05,-97.8,-22.36,-21.59,4.88,-4.89,1.32,-15.43,5.18,25
-25.49,9.35,-6.58,-22.95,-121.97,-22.75,-21.44,6.02,4.38,-109.23,-127.05,-50.63,-21.12,8.68,-4.55,-8.89,-29.59,46.24,25
-19.39,2.52,4.6,-76.51,-47.22,-44.48,-8.91,-6.65,12.45,-57.96,-100.78,-55.08,-16.64,11.95,1.91,-22.95,-65.04,50.0,25
-13.4,-3.34,8.96,-48.39,-55.47,-50.98,-2.03,-14.01,11.42,-53.32,-79.93,-70.36,-16.11,12.11,4.95,-27.49,-66.46,49.32,25
-9.24,-12.5,15.48,-27.34,-110.16,-65.28,2.41,-5.18,19.59,53.66,-81.2,-19.19,-8.26,10.84,7.82,36.96,-98.63,95.41,25
1.35,-5.97,20.91,-45.41,-114.01,-30.57,5.21,-7.13,23.3,0.54,-58.54,-18.99,-0.26,18.05,12.8,10.3,-82.32,100.39,25
4.13,-2.56,24.38,-21.0,-53.47,-10.94,5.13,-3.72,21.49,26.12,0.05,3.81,4.08,19.12,11.77,3.76,-33.89,43.9,25
4.15,0.15,23.63,-2.98,-10.35,-0.29,3.31,-4.67,20.22,3.81,1.03,2.88,5.06,18.49,10.48,-2.64,3.76,-0.34,25
0.59,0.19,21.54,-4.3,-1.03,2.39,1.32,-6.09,19.34,3.37,5.08,5.37,2.89,16.56,9.58,-6.88,7.37,-3.47,25
-0.42,-1.07,20.51,-3.08,5.66,3.76,1.18,-6.32,19.95,-0.15,-1.71,2.98,2.85,16.6,10.38,0.49,8.11,-6.35,25
-0.47,-1.53,21.13,0.73,1.81,3.08,1.23,-6.05,20.03,-6.59,3.13,-2.59,2.05,16.37,9.91,1.37,4.44,-0.29,25
0.8,-1.64,21.16,-4.25,-1.9,0.34,2.58,-5.89,19.72,0.34,-7.62,-0.78,2.09,16.23,10.18,-0.15,1.51,0.15,25
0.4,-1.28,20.99,4.15,-4.69,1.71,1.75,-5.71,20.2,0.83,-2.59,4.15,2.86,16.73,10.17,1.37,-2.39,1.22,25
0.46,-1.41,21.28,-1.27,-0.59,2.88,3.5,-6.43,19.92,-13.18,-15.09,-4.64,3.33,17.08,10.15,1.81,3.56,0.88,25
0.58,-0.67,21.12,-3.22,-9.03,-0.63,3.35,-6.58,20.04,-4.98,-4.88,1.03,2.83,16.53,10.13,0.1,-1.27,3.08,25
1.26,-1.84,21.34,-3.47,-4.54,1.37,3.7,-6.21,19.29,-0.39,-3.66,-0.59,3.43,16.77,10.6,-1.66,2.39,3.52,25
1.4,-1.61,21.33,3.17,-6.15,-0.49,3.15,-5.46,19.43,7.91,-5.81,-2.59,3.11,16.35,10.47,1.61,-3.56,-1.12,25
1.04,-1.66,20.62,-2.44,-6.84,-3.22,4.25,-6.42,20.13,4.39,-2.44,2.25,3.15,16.39,9.99,-1.76,1.51,2.64,25
6.84,-0.87,25.55,37.84,166.65,22.31,4.83,-6.39,19.85,-1.12,-1.07,-1.66,-20.74,6.28,0.02,-165.23,-95.17,154.74,26
-8.31,-0.74,14.18,133.94,251.37,58.35,4.96,-5.82,19.12,0.63,1.03,-0.63,-6.8,16.54,8.03,18.65,-145.36,130.47,26
-10.65,5.42,8.58,-1.47,250.49,10.5,5.1,-7.87,19.32,-6.59,-0.78,-2.88,3.79,22.32,13.73,-0.59,-93.07,108.45,26
-18.75,1.74,-7.02,-10.94,53.03,11.08,5.61,-6.26,19.63,-2.78,-0.49,0.98,8.9,21.78,11.47,22.27,-4.15,2.69,26
-16.56,6.17,-3.98,-5.37,-83.98,-16.99,4.87,-5.71,19.26,-3.76,0.54,-0.73,5.27,17.9,9.72,8.3,4.35,-9.47,26
-18.84,5.02,-1.93,-50.68,-255.32,-34.18,5.27,-6.33,19.05,-0.0,2.29,-3.08,2.64,17.01,9.33,3.56,1.71,-5.27,26
-17.48,3.96,8.38,58.4,-176.56,-35.6,4.94,-7.19,19.58,1.17,-2.25,-1.56,2.82,17.27,8.96,3.52,3.32,-3.47,26
4.93,-4.13,22.58,-15.82,-195.21,-19.24,6.14,-6.33,19.26,-2.59,-1.22,-2.15,2.38,17.67,8.77,1.37,3.37,1.37,26
10.49,-1.05,26.51,9.81,-27.98,-13.82,5.11,-5.93,18.95,4.15,-0.1,1.81,3.64,17.84,9.24,2.83,1.22,1.86,26
5.0,-0.22,22.42,3.42,0.93,-4.05,5.82,-5.99,19.53,0.59,-2.59,1.12,3.15,17.11,9.18,-1.9,3.32,2.29,26
0.97,-0.27,20.85,1.95,8.2,1.46,6.01,-6.3,19.29,-2.69,-0.39,-0.68,2.86,17.06,9.24,0.54,2.93,0.44,26
0.82,-0.25,20.92,5.27,6.3,1.51,5.36,-5.82,19.34,2.78,-2.54,2.15,3.47,17.08,9.52,0.1,1.95,2.25,26
0.61,0.41,20.57,6.35,2.69,3.47,5.66,-6.28,19.32,4.74,-1.17,14.84,3.15,17.19,9.21,2.05,0.29,1.07,26
1.68,0.39,21.11,5.32,-0.29,2.73,4.85,-6.28,19.36,3.47,2.83,-1.42,3.34,17.14,9.52,1.03,0.63,3.13,26
1.27,0.04,21.03,2.64,0.88,3.08,5.23,-6.92,19.31,1.03,0.54,-2.2,3.12,17.09,9.37,-0.83,1.51,2.25,26
1.44,-0.13,21.31,1.27,-1.61,2.98,5.14,-6.36,19.25,0.93,-0.39,1.17,4.0,17.0,9.72,0.24,-0.59,1.27,26
1.54,-0.13,20.96,-2.34,-3.76,1.27,5.69,-6.3,19.48,-1.22,1.12,-1.71,3.36,16.56,9.54,-1.95,3.47,1.56,26
1.52,-0.41,21.32,-2.73,-5.76,0.1,4.41,-6.31,19.31,5.62,1.32,-0.2,3.88,16.48,10.21,-2.78,0.24,-0.34,26
1.93,-0.77,20.89,-0.63,-3.96,1.51,5.14,-6.6,19.13,0.78,-1.37,-1.66,3.48,16.23,9.86,-0.68,5.52,2.15,26
1.85,0.17,21.05,-0.73,-2.88,3.71,5.14,-5.96,19.21,5.03,-0.63,0.59,3.49,17.19,9.98,1.81,-0.83,5.62,26
-24.91,13.93,-7.94,15.04,10.21,-2.15,-24.45,14.91,-7.0,60.2,12.16,18.9,-21.19,8.05,-7.99,-0.54,22.02,-18.95,27
-19.38,13.62,-2.7,-57.72,-91.36,-35.16,-28.66,11.73,-6.12,-2.93,-62.26,-22.31,-16.3,11.53,-2.72,-32.72,-67.58,35.99,27
-10.7,4.96,5.45,-29.98,-207.47,-51.17,-5.17,0.38,6.39,-66.06,-159.62,-62.16,-13.12,9.87,1.28,-39.94,-121.73,69.78,27
-1.78,3.83,13.29,-25.15,-223.54,-59.86,7.04,-0.72,11.81,-43.36,-191.16,-52.25,-4.89,12.55,7.31,-40.43,-149.66,102.25,27
6.72,-1.7,26.07,-25.24,-184.67,-49.56,3.62,-2.11,20.7,18.7,-79.93,-55.37,4.9,13.58,11.53,-15.48,-150.1,117.43,27
15.1,-2.16,24.18,-23.68,-23.19,1.03,13.09,-8.3,24.35,-58.74,-16.11,-0.49,10.47,17.19,12.13,-14.75,-5.52,24.56,27
8.99,-0.28,20.04,-0.68,9.38,4.25,9.85,-1.25,18.17,15.92,18.16,6.49,8.67,16.11,9.98,-2.69,10.79,-8.11,27
4.75,-0.95,19.35,-2.98,21.48,2.64,5.49,-5.43,18.7,-7.67,12.3,2.2,5.42,14.84,10.41,5.62,11.62,-10.55,27
4.42,-1.15,19.82,4.74,7.81,3.37,5.62,-4.03,18.31,-0.1,6.45,1.61,4.5,15.13,10.31,3.32,4.83,-5.22,27
5.16,-0.98,20.4,1.95,-0.29,3.66,6.75,-3.97,19.23,1.27,-1.81,2.88,4.78,15.71,10.46,2.15,3.13,-1.07,27
4.97,-0.92,19.97,0.34,-1.03,2.44,6.65,-4.15,19.66,0.24,-0.68,1.37,5.0,15.61,10.16,1.32,3.37,0.44,27
5.04,-0.94,20.3,-1.32,0.15,3.47,6.98,-4.73,19.31,-3.37,-1.95,1.03,5.7,15.98,10.57,0.34,3.27,-0.24,27
4.99,-1.13,20.16,-0.73,-3.17,2.29,6.72,-4.34,19.19,0.1,-3.96,0.39,4.79,15.49,10.3,0.98,3.76,1.27,27
5.32,-1.13,20.61,1.66,-0.98,0.68,6.88,-4.61,18.95,-3.66,-4.83,1.22,5.29,16.29,10.68,3.17,0.24,-0.88,27
4.88,-0.94,20.06,2.2,-1.76,0.34,6.23,-3.72,19.28,0.39,-3.17,-2.29,5.63,15.34,10.24,2.0,1.12,0.78,27
5.07,-1.03,20.06,2.15,-3.32,-0.54,7.38,-3.9,19.32,6.88,-10.45,1.37,4.7,15.24,10.26,-0.2,6.15,3.47,27
5.53,-0.87,20.28,1.07,-0.83,1.22,6.89,-3.69,19.22,-2.88,-1.03,0.39,5.72,15.47,10.23,2.93,0.73,0.2,27
4.85,-0.76,20.23,1.71,-0.78,3.22,7.86,-4.41,18.9,1.32,2.88,-1.37,5.3,16.0,10.02,1.56,1.51,0.98,27
5.83,-1.14,20.64,0.24,0.0,1.07,7.19,-5.24,18.75,-8.74,3.56,-0.44,6.18,15.6,10.39,0.98,0.34,-1.27,27
4.88,-1.09,20.08,2.25,0.34,2.64,6.78,-4.29,19.02,-1.61,-2.0,-0.34,5.34,15.23,10.21,1.37,-0.15,-0.1,27
-4.67,1.24,14.73,10.69,216.21,7.47,-17.77,3.67,-2.5,7.32,146.53,37.94,-17.69,1.71,-4.51,-0.34,95.46,-110.84,28
-11.29,5.74,2.64,-32.03,137.11,6.59,-23.0,10.28,-10.2,29.49,51.17,21.19,-23.57,1.04,-8.58,20.75,46.19,-47.17,28
-17.4,4.72,-6.46,17.09,125.83,-7.47,-20.47,6.67,-9.35,24.12,-7.71,-8.11,-19.33,-1.23,-8.43,6.35,-10.69,-5.08,28
-21.74,6.64,-10.43,-1.42,47.51,4.88,-21.93,4.47,-8.2,0.29,-47.22,-19.09,-22.32,-0.23,-7.23,-15.09,-29.69,30.03,28
-21.11,5.14,-10.2,17.04,-14.84,-11.62,-19.06,2.03,-3.08,-108.35,-94.82,-58.64,-18.19,2.44,-4.21,-133.74,-35.25,58.11,28
-21.3,3.47,-9.61,-6.98,-49.12,-13.77,-22.43,-3.79,5.7,-53.13,-131.2,-82.23,-18.81,6.67,2.6,-100.05,-82.13,42.58,28
-15.48,-0.39,4.43,-137.4,-108.11,-44.73,-15.24,-6.1,9.4,-84.23,-185.94,-161.43,-18.61,7.5,8.04,3.76,-123.44,40.43,28
-23.58,-1.33,5.1,-31.79,-122.75,-37.4,-5.71,-14.18,14.98,7.18,-25.68,-104.25,-8.56,8.27,12.52,23.29,-121.04,40.53,28
-22.18,-2.87,9.27,9.18,-134.86,-61.77,-1.69,-6.5,17.98,66.7,39.21,-40.92,-5.47,9.03,15.01,49.32,-85.94,33.64,28
-14.11,-7.14,16.55,-8.2,-75.24,-52.69,3.67,-1.46,24.53,61.28,-7.76,-13.23,-0.89,15.22,15.4,9.18,-44.78,40.38,28
-8.19,0.04,17.0,49.66,-49.95,-30.27,2.59,-5.31,20.41,-3.32,-19.09,-7.42,-1.35,14.79,14.2,9.37,-15.82,16.5,28
-0.79,0.87,18.0,3.61,-52.98,-6.3,2.93,-7.13,19.81,2.83,3.17,-5.03,-1.11,15.11,12.92,12.3,-8.64,3.66,28
-0.4,-1.63,22.19,-19.29,-15.58,-6.49,2.57,-7.68,19.08,-0.73,-0.2,-4.59,-1.6,14.19,12.23,-6.2,3.56,5.62,28
0.41,-2.25,21.59,2.2,-6.79,-5.27,3.28,-6.45,20.51,-1.22,-4.49,-5.81,-0.47,15.64,12.79,6.01,-9.08,10.64,28
0.22,-2.56,20.81,-5.22,-6.49,0.68,4.32,-7.33,20.07,3.52,0.78,-2.0,0.79,15.93,12.32,0.05,-0.2,5.57,28
0.74,-2.24,22.15,-2.39,-16.55,-3.76,4.21,-6.21,20.01,-10.94,-3.08,0.78,2.4,17.0,13.08,8.06,-2.54,-0.54,28
0.78,-1.49,21.28,-1.27,-7.03,1.27,3.87,-6.31,19.64,-2.64,4.1,1.95,1.24,15.93,12.52,3.42,4.3,-0.63,28
1.55,-1.31,21.97,1.17,0.0,1.61,2.94,-6.36,19.21,-2.88,-6.98,1.71,0.89,15.26,12.06,1.56,3.66,-1.81,28
0.81,-1.69,21.37,0.98,0.98,2.78,2.63,-6.71,19.35,2.15,0.59,0.0,0.53,15.67,12.58,2.83,-1.51,-2.49,28
0.1,-1.9,20.67,-1.86,1.95,1.03,3.43,-6.95,19.36,-5.42,-8.4,-0.83,0.64,15.28,12.09,1.03,2.78,2.25,28
-16.43,0.18,-1.86,-23.83,249.71,-16.46,-19.65,6.14,-9.11,-18.26,-27.15,-12.84,-20.76,-0.64,-8.81,-15.19,-1.51,12.99,29
-21.65,-0.85,-8.14,35.4,112.26,50.34,-23.6,7.04,-6.42,-30.81,-131.4,-51.86,-20.94,5.61,-3.91,-61.77,-60.69,57.62,29
-21.04,3.88,-11.34,14.26,12.5,2.54,-17.42,-2.2,2.62,-94.48,-136.38,-70.9,-15.94,5.14,3.23,-40.92,-74.37,24.22,29
-21.42,3.01,-9.85,4.39,-22.85,-5.03,-18.94,-8.05,8.52,-23.14,-113.04,-103.76,-20.29,5.44,5.33,-19.82,-78.22,28.03,29
-23.92,2.11,-5.58,-31.1,-129.15,-39.79,-13.88,-10.34,12.82,37.7,-98.39,-74.46,-12.98,7.3,9.3,7.67,-90.77,55.42,29
-23.15,-1.39,5.46,-40.67,-70.56,-29.15,-12.96,-8.0,13.78,39.7,-122.27,-56.84,-10.98,10.01,12.29,7.13,-100.73,64.4,29
-19.76,-5.39,9.47,-34.72,-114.21,-39.94,5.21,-15.87,19.48,38.04,-46.92,-37.4,-5.49,12.03,14.5,42.97,-78.71,42.19,29
-11.69,-8.02,15.27,-6.54,-117.14,-20.36,1.49,-8.48,18.9,67.72,-17.82,-12.6,-3.2,15.77,14.21,39.75,-71.58,41.06,29
-9.97,-1.97,16.96,-5.57,-128.61,-18.21,2.59,-5.18,21.5,43.16,-2.78,-9.18,-0.07,15.57,13.79,23.05,-46.78,33.79,29
-1.78,-4.49,21.87,24.85,-50.49,-15.28,2.77,-5.47,21.66,-13.53,1.27,1.61,1.6,14.79,14.25,5.37,4.79,8.01,29
1.4,-0.68,21.79,7.52,-57.42,-16.11,1.05,-5.05,20.51,-10.25,1.17,7.52,0.58,15.9,12.06,9.91,11.47,-4.69,29
4.25,-0.98,23.48,3.47,-35.4,-8.94,0.97,-5.72,19.66,-4.05,4.98,-1.07,-0.02,15.31,11.28,-2.34,8.11,-2.69,29
2.13,-0.24,23.23,-10.84,14.26,1.56,1.62,-5.64,20.66,4.15,-0.1,-2.93,0.17,15.98,11.3,-2.05,1.61,3.52,29
0.86,-1.33,21.76,-16.36,14.06,-4.59,1.38,-5.28,20.48,9.52,-0.2,0.34,0.46,16.1,10.96,-0.68,7.57,-0.2,29
-0.25,-2.07,20.72,-11.91,2.1,-2.93,1.07,-5.34,20.3,5.18,-3.32,-1.42,0.15,16.6,10.72,8.4,0.68,0.78,29
0.24,-1.68,21.59,-3.22,-11.52,-2.15,2.45,-4.86,20.48,-5.62,-11.13,-1.9,0.59,17.23,10.64,-2.69,1.61,3.08,29
-0.19,-1.62,21.23,-4.3,-5.47,-0.44,2.48,-5.67,20.16,-10.21,-3.91,-2.73,0.92,17.35,11.27,-8.89,-0.05,-1.46,29
-0.39,-1.0,21.19,3.61,-1.95,-0.15,1.98,-5.61,19.88,3.52,-1.71,-0.29,0.87,15.6,11.29,-2.25,2.73,-1.51,29
0.34,-1.37,21.43,2.54,-5.57,2.69,2.7,-5.73,20.27,3.12,1.51,-1.66,0.88,15.66,11.53,-2.69,4.2,-0.59,29
0.1,-1.42,21.34,4.49,-3.47,2.69,2.32,-5.42,20.31,0.88,1.37,3.03,1.35,15.88,11.98,-8.69,6.15,-1.07,29
-7.1,0.56,17.98,31.54,177.98,36.57,-18.17,6.22,-4.7,16.45,46.97,28.03,-18.78,1.09,-5.54,4.35,41.06,-49.07,30
-12.54,2.41,11.29,15.33,185.25,21.34,-21.39,6.05,-8.13,17.04,-17.24,-1.86,-20.23,1.05,-5.8,-14.11,-12.65,13.18,30
-18.48,7.49,-4.06,51.51,159.86,6.35,-32.11,9.15,-13.19,-7.52,-148.63,-42.38,-22.88,5.24,-1.59,-42.33,-69.58,79.64,30
-18.04,4.33,-7.43,-1.32,38.57,-2.29,-18.42,-1.84,6.98,-57.18,-100.88,-42.87,-21.52,6.95,0.32,-13.09,-77.64,56.45,30
-21.07,6.35,-7.18,-13.77,-42.14,-14.26,-9.7,-0.75,15.34,1.71,-165.04,-63.38,-17.6,9.45,6.02,-1.03,-114.21,78.17,30
-28.7,8.31,-6.93,-29.64,-156.3,-26.37,-5.86,-4.95,21.64,-14.06,-112.11,-33.74,-12.87,13.58,12.23,-5.76,-40.38,52.44,30
-25.88,-3.92,5.3,11.38,-50.39,-23.24,-2.29,-4.43,21.52,4.74,-59.57,-20.51,-7.7,17.47,11.87,26.17,-43.7,37.3,30
-11.73,-0.14,13.33,34.96,-154.44,-43.41,-2.75,-4.93,21.78,9.42,-23.0,-5.22,-3.75,18.05,12.54,-6.3,-21.63,27.05,30
-8.94,-2.74,19.61,31.01,-87.11,0.54,-2.02,-4.9,20.49,-6.64,-30.96,-3.96,-3.03,16.99,11.96,-5.22,-6.88,21.88,30
-7.61,-2.04,20.02,12.16,-54.59,-7.57,-2.34,-2.82,19.96,7.62,-29.69,-6.69,-1.9,17.61,11.99,10.64,-22.17,22.9,30
-6.67,-0.37,22.14,6.88,-24.66,1.81,-0.42,-5.57,20.9,2.1,-24.85,0.29,-0.59,16.41,12.14,11.43,-10.94,20.31,30
-5.36,0.11,20.7,-0.44,-30.22,6.93,1.62,-6.04,21.16,-3.81,-28.86,-0.83,1.15,17.04,11.84,-0.0,-6.93,19.63,30
-5.76,2.07,21.11,10.89,-33.64,-2.05,1.21,-4.38,20.69,-12.74,-6.64,0.88,2.44,17.39,11.55,7.18,-2.78,1.27,30
-3.07,-1.08,21.1,10.89,-21.53,7.81,1.31,-4.95,20.16,-3.47,-8.35,1.9,1.06,16.08,11.14,4.0,-1.07,0.29,30
-1.46,-1.24,21.78,-0.24,-24.07,6.59,1.77,-5.64,20.15,-3.47,-12.84,-2.88,1.08,16.97,11.35,13.13,-7.67,-0.73,30
-0.79,-0.48,21.92,4.74,-2.1,1.95,2.94,-5.07,20.42,1.17,-4.79,-1.95,1.62,17.06,11.2,5.03,-2.0,2.25,30
-0.7,-0.12,21.31,1.95,-5.08,2.0,2.69,-4.53,20.34,0.39,1.22,2.15,2.21,16.88,11.42,4.05,0.88,-1.9,30
-1.28,-0.8,21.06,-0.29,-6.84,-3.32,2.57,-4.26,20.31,-12.3,-0.44,2.34,1.76,16.66,10.94,-1.22,1.9,0.78,30
-0.35,-0.81,21.66,2.73,-4.05,1.22,2.4,-4.87,20.19,1.27,-0.83,1.37,1.59,16.54,11.16,-0.83,3.37,-0.39,30
0.4,-0.7,21.84,3.22,0.54,1.17,3.06,-5.23,20.65,1.71,-2.05,1.56,1.52,16.5,11.4,-2.49,4.05,3.52,30
-15.14,6.39,12.79,82.91,244.63,48.29,-22.8,5.09,-8.54,19.82,21.44,10.84,-7.49,19.9,6.39,30.42,93.26,-131.05,31
-10.45,1.57,3.86,-20.26,164.26,-9.08,-24.32,5.74,-8.06,-5.08,-35.99,-4.64,-15.7,11.56,1.54,-12.5,104.88,-144.78,31
-20.94,-2.62,-4.82,-12.6,70.75,0.63,-21.33,3.84,-2.25,-122.95,-177.78,-48.97,-22.64,0.82,-3.37,19.04,50.24,-77.05,31
-22.19,4.33,-9.11,2.39,-8.06,3.61,-11.53,-9.25,10.42,-27.1,-150.59,-82.91,-21.9,2.14,-4.51,5.91,14.65,-16.16,31
-23.97,3.94,-8.67,-13.13,-31.74,-5.71,-5.84,-6.25,18.29,33.01,-129.54,-45.85,-19.86,4.24,-4.15,-17.63,-5.86,12.45,31
-24.45,-0.18,-3.67,-72.85,-113.23,-15.92,0.27,-2.93,21.08,80.71,-121.39,-29.83,-17.66,10.46,0.39,-75.49,-34.62,71.24,31
-17.48,-4.21,4.99,25.98,-146.29,-36.38,4.12,-4.75,24.04,-16.46,-49.12,-6.79,-15.84,7.93,4.09,-13.72,-110.6,83.54,31
-9.69,-0.87,15.91,11.33,-142.24,-28.37,2.88,-2.04,20.81,-5.52,-10.84,1.12,-12.37,12.55,8.58,-11.72,-95.21,88.13,31
-3.79,7.45,22.22,74.02,-125.15,-7.52,2.13,-3.34,20.31,6.64,2.2,5.71,-3.28,13.19,12.21,18.26,-92.48,91.21,31
2.76,0.47,25.34,-5.71,-58.94,8.74,1.87,-4.68,20.51,-0.2,5.91,0.24,2.47,16.9,13.3,-19.14,-26.86,51.81,31
2.41,-0.18,22.9,-8.25,-9.91,0.39,2.04,-5.08,21.33,-2.25,-1.76,1.81,4.54,17.66,12.05,-0.63,1.81,5.62,31
-0.13,-1.48,21.27,-9.08,2.83,1.95,2.07,-3.81,20.6,-3.91,-4.98,0.59,2.09,16.94,10.48,1.76,9.18,-0.93,31
-0.7,-1.0,21.23,-2.83,4.49,-0.05,1.44,-4.47,20.21,-0.88,2.1,0.39,0.8,15.97,10.87,-0.34,8.06,-4.3,31
-0.61,-1.95,20.76,-1.12,0.68,3.56,1.65,-4.31,20.55,-1.37,-1.03,-2.39,1.22,15.2,11.09,0.29,5.91,-1.07,31
-0.8,-1.42,21.02,-4.1,-4.44,4.1,1.41,-3.77,20.23,2.54,-2.25,-0.05,1.48,16.45,10.43,-1.03,6.54,2.25,31
-0.01,-1.77,21.27,0.73,-1.51,1.37,2.16,-3.91,20.55,4.54,0.05,-0.83,0.85,15.93,11.0,-0.1,4.64,-1.42,31
-0.51,-1.55,21.42,0.54,-3.52,-2.05,1.45,-3.79,20.31,1.51,0.1,-1.17,1.19,15.96,10.61,2.93,-2.25,-0.1,31
-0.15,-1.44,21.0,1.37,-4.1,0.49,2.11,-3.57,20.72,1.81,-3.96,-0.54,1.25,16.16,10.69,1.46,1.71,1.46,31
0.25,-1.2,21.94,2.1,-4.74,-1.32,1.83,-3.71,20.23,0.1,-1.22,2.25,1.62,16.74,11.13,1.07,-0.98,0.29,31
0.02,-0.78,21.27,3.91,-0.98,-0.83,2.1,-4.27,20.41,2.54,-2.59,-2.93,1.55,15.9,10.9,2.69,-0.15,-1.61,31
-21.37,0.22,-11.88,76.86,150.29,47.31,-24.65,-5.73,-9.31,32.52,123.58,73.0,4.21,21.11,10.79,44.09,-184.28,163.13,32
-18.65,5.47,-10.89,0.05,23.0,6.1,-19.23,11.05,-10.96,9.67,36.23,33.89,9.1,22.74,12.71,25.59,-60.06,63.92,32
-16.56,5.33,-8.49,-13.43,-31.98,-19.68,-18.28,6.66,-8.21,9.13,-19.19,-12.84,6.65,18.11,10.13,-7.52,-3.08,7.32,32
-18.33,6.03,-1.62,-70.95,-151.37,-43.36,-17.67,8.3,-3.03,-4.1,-144.43,-21.24,5.04,16.39,10.01,-6.98,1.9,-6.2,32
-7.45,1.01,8.46,-70.95,-222.17,-33.74,-5.06,-6.13,12.44,-52.44,-209.67,-31.59,3.49,15.5,9.88,6.15,10.99,-6.54,32
-8.34,2.61,9.19,-36.23,-200.54,-25.54,-3.64,-6.51,12.4,-24.37,-151.51,-37.3,3.66,17.01,9.95,2.2,1.86,-1.9,32
-0.15,7.34,21.91,-1.42,-189.5,-23.34,1.61,5.62,21.87,86.43,-162.84,-15.43,3.37,16.83,9.67,3.47,1.37,-4.25,32
6.77,-2.01,27.91,-27.69,-73.19,-6.4,6.99,0.82,27.87,-17.77,-78.61,-0.39,3.42,16.92,9.74,-3.96,0.29,3.27,32
6.24,-1.31,23.26,-19.29,-13.77,-4.98,8.02,-0.96,22.66,-18.12,-20.17,-5.76,3.87,16.02,10.22,-10.5,0.49,2.05,32
2.52,-1.93,21.0,-3.61,2.93,-1.95,2.19,-0.95,20.11,-5.47,7.86,-1.95,3.57,15.69,10.53,1.07,-0.59,1.56,32
1.14,-2.24,20.57,-3.71,10.35,4.3,2.19,-1.75,19.95,-0.98,5.76,3.96,4.0,16.05,10.33,-1.56,4.0,0.0,32
1.29,-1.87,21.11,0.34,-0.15,2.1,2.27,-0.8,20.04,-1.61,0.88,2.25,4.68,16.13,10.43,-2.39,0.88,-2.49,32
1.34,-2.13,20.99,1.37,2.29,0.78,1.94,-1.33,20.09,-1.81,0.93,0.73,4.19,15.07,10.37,-0.49,5.91,-3.71,32
0.92,-1.7,21.46,1.9,-4.93,-0.05,1.92,-0.76,20.69,0.29,-5.66,-0.24,4.11,16.21,10.65,0.2,2.64,-0.78,32
2.04,-2.06,21.03,0.15,-4.05,0.83,2.12,-0.8,20.15,1.27,-1.22,0.59,3.24,16.29,10.3,-0.54,4.54,3.37,32
2.01,-2.72,21.13,3.42,-1.71,14.84,2.52,-1.49,20.5,-0.93,-0.68,-1.03,4.22,15.21,10.63,-1.22,-2.39,-0.78,32
2.28,-2.15,21.09,-2.1,-1.66,3.13,3.05,-1.66,20.48,-6.1,-4.1,-1.76,4.57,15.41,10.68,1.81,4.25,1.37,32
2.19,-1.87,21.28,0.1,-0.15,0.05,3.38,-1.6,21.11,-2.0,1.71,0.83,3.42,17.46,10.1,3.76,3.66,1.07,32
1.24,-2.07,20.49,-1.86,1.56,3.52,2.98,-2.04,20.67,-1.03,-3.42,0.78,3.73,15.75,10.62,1.51,-4.39,-6.1,32
1.47,-2.16,21.16,-0.44,0.2,1.22,3.02,-2.26,20.34,-1.22,-1.61,-0.59,4.76,16.26,10.61,1.81,-1.27,-1.76,32
1.06,-2.03,26.94,-2.34,166.36,12.74,-24.83,-6.17,-10.29,88.96,64.45,68.07,-24.84,0.15,-2.66,21.68,62.26,-79.93,33
-8.7,1.74,16.61,101.51,191.89,31.54,-21.14,1.82,-8.37,-50.93,-34.23,-19.09,-21.52,0.7,-2.94,-25.88,15.72,6.64,33
-24.63,7.75,3.86,-9.33,206.69,-42.82,-23.03,3.32,-9.04,-27.69,-88.38,-12.01,-19.66,7.08,0.53,-53.37,-18.41,56.15,33
-23.99,0.44,-11.14,79.83,88.23,32.47,-20.11,-4.68,1.24,-70.65,-154.88,-90.04,-14.81,6.14,4.37,-34.23,-82.42,105.47,33
-18.13,1.02,-9.79,-36.96,-40.72,-12.35,-7.82,-8.23,11.34,68.9,-175.44,-116.6,-5.01,5.82,6.37,49.85,-150.59,131.59,33
-21.52,1.12,-5.23,-78.91,-81.45,-38.53,-3.85,-2.44,21.87,45.61,-150.05,-36.08,5.92,21.32,13.2,23.97,-105.08,136.52,33
-17.82,-8.15,6.04,-61.08,-134.03,-52.93,9.89,-13.02,24.62,20.41,-44.68,-12.99,5.52,18.57,9.16,-4.54,-16.11,42.63,33
-7.74,-5.46,10.65,27.73,-195.75,-57.76,5.0,-7.22,20.56,0.34,-3.17,10.21,6.5,18.81,8.82,2.29,10.74,-0.29,33
2.45,-2.44,27.14,-10.55,-185.06,-28.32,0.08,-8.59,20.13,5.42,40.33,20.75,3.77,17.73,8.04,-5.18,24.95,-12.74,33
4.17,-5.11,25.0,-12.06,-50.15,-5.18,-1.66,-4.86,18.25,10.69,3.66,8.89,3.39,17.03,8.53,-1.07,8.94,-0.63,33
1.93,-3.39,22.26,-4.59,0.44,7.62,-0.13,-7.24,20.5,6.05,-0.68,2.15,3.46,17.03,9.34,3.66,-4.35,3.86,33
-0.04,-4.87,21.26,-15.92,31.69,14.4,0.63,-5.71,20.24,5.86,2.29,0.39,3.49,16.49,9.29,1.03,1.95,1.51,33
-2.49,-2.36,19.91,2.05,2.54,6.3,0.4,-6.4,20.1,1.03,1.17,1.61,3.63,16.76,9.18,-0.05,4.74,1.12,33
-1.09,-3.68,21.67,2.69,-4.44,-1.9,0.09,-6.74,20.03,-1.07,-4.3,5.18,3.43,16.48,9.41,0.83,8.64,1.03,33
-0.45,-3.02,21.23,3.76,-4.54,0.63,0.63,-6.47,20.5,-0.34,-5.47,1.37,3.85,16.85,9.16,3.95,2.49,2.64,33
-0.51,-3.73,21.08,0.29,-1.51,3.32,0.49,-5.63,20.33,2.44,-1.81,0.68,4.69,17.29,9.21,3.66,1.37,1.17,33
-1.01,-3.63,20.95,-2.34,-2.44,5.71,0.69,-5.06,20.68,6.59,-1.46,1.12,4.31,16.79,8.97,-2.98,4.93,3.27,33
-0.53,-3.22,21.1,0.68,-5.18,2.2,0.38,-5.21,20.24,4.15,-3.61,0.2,4.24,16.23,9.13,-3.27,3.76,-0.68,33
-0.2,-2.53,21.14,3.37,-1.9,3.03,0.55,-5.48,20.1,6.1,-0.54,0.88,3.67,16.84,8.89,4.64,1.56,-5.42,33
-0.65,-3.03,21.41,0.83,-2.78,2.15,1.12,-6.35,20.14,2.0,0.2,-0.44,3.24,17.0,8.46,4.39,2.93,-1.51,33
-7.91,-2.62,15.64,79.64,223.19,43.16,-22.43,13.23,-13.64,38.48,16.8,7.03,-23.63,-1.04,-8.44,10.89,10.94,-21.39,34
-13.07,9.1,1.23,20.12,290.14,-8.74,-26.23,6.33,-11.1,58.3,-50.68,-11.52,-21.49,-0.2,-7.13,-47.27,-44.68,52.83,34
-20.56,-2.1,-10.67,18.9,136.82,45.26,-21.35,5.9,2.62,10.2,-195.02,-36.52,-22.04,8.05,-1.12,-127.83,-117.63,110.74,34
-23.03,7.89,-10.16,8.3,-0.83,-6.74,-9.66,-0.8,15.97,-29.39,-155.71,-82.13,-8.5,12.05,7.51,-20.46,-158.84,98.73,34
-23.75,5.83,-6.97,-12.4,-102.05,-21.92,0.5,-10.42,19.46,8.5,-151.07,-70.56,-3.63,15.97,11.61,37.5,-103.12,100.98,34
-16.36,2.88,5.16,-70.41,-228.52,-65.09,6.92,-7.25,24.17,69.87,-79.98,-39.89,5.92,23.76,11.73,52.34,-107.37,108.54,34
-7.81,0.05,14.62,-26.03,-190.87,-57.37,10.66,-4.51,25.0,13.43,-34.08,-4.0,9.22,22.05,11.26,7.67,-14.06,31.01,34
-2.98,-5.04,18.32,-0.93,-131.45,-38.92,3.9,-1.47,20.89,4.49,-5.57,2.25,6.65,18.92,9.17,6.2,4.88,2.34,34
3.06,2.07,25.76,13.82,-115.82,-23.97,1.06,-4.09,19.16,-0.44,0.15,4.15,4.45,16.04,9.69,7.18,0.59,-8.15,34
6.39,3.59,25.43,-3.52,-22.36,0.34,0.66,-4.51,19.37,5.66,-13.09,2.54,4.62,15.72,9.74,-1.07,-3.52,4.79,34
2.69,1.79,21.59,-6.15,-4.88,4.3,3.83,-4.07,20.89,0.29,-14.16,0.39,5.68,16.2,10.04,1.03,-4.1,9.42,34
1.09,-0.98,20.23,3.37,0.93,5.86,4.02,-3.63,20.49,-2.44,-8.98,3.08,6.23,16.64,10.05,-0.93,2.69,7.91,34
1.21,-1.35,20.09,1.42,-12.6,1.17,4.55,-4.45,21.37,1.27,-1.56,1.12,6.39,15.85,10.09,1.27,-2.69,1.86,34
3.11,-1.46,21.29,0.44,-16.02,2.49,3.33,-3.58,19.86,-4.25,4.44,6.88,6.05,15.48,10.25,0.59,12.65,-4.3,34
3.2,-1.1,21.11,-2.93,-9.91,5.03,2.27,-3.3,19.87,1.81,-0.34,2.34,5.74,16.06,10.11,6.79,2.59,-3.12,34
4.31,-1.87,21.61,1.95,-5.18,0.29,2.51,-3.35,20.38,2.88,7.23,-1.22,4.94,17.6,9.55,6.93,-3.37,-1.81,34
3.16,-1.1,20.33,-3.86,5.66,7.86,3.26,-3.06,20.88,-0.39,1.37,-0.83,5.64,15.77,9.97,0.68,-2.15,-1.32,34
1.98,-0.42,20.24,-0.0,2.44,3.22,3.11,-2.96,20.73,-1.07,1.51,-0.24,4.76,16.18,9.54,2.29,7.08,-1.17,34
3.29,-1.22,21.32,4.64,-0.49,-3.12,2.5,-3.11,20.4,-6.25,3.32,-2.54,5.33,16.47,9.55,1.51,3.71,-3.03,34
3.73,-0.93,21.34,1.61,-1.86,-1.71,1.89,-4.26,19.9,1.86,5.37,-3.22,3.7,16.07,10.16,0.34,-0.1,-4.93,34
4.24,-4.28,23.91,-4.2,48.97,4.35,-17.52,1.74,-4.04,-7.32,-69.09,-15.33,-23.53,3.2,-3.43,-41.6,-19.58,50.05,35
6.62,-2.91,24.98,7.23,235.16,13.13,-14.82,-3.04,6.76,-18.55,-167.58,-40.53,-20.98,5.92,0.57,-50.24,-77.93,109.18,35
-10.73,5.75,11.83,-18.12,230.57,56.25,-11.28,3.57,12.17,16.55,-200.29,-65.38,-8.87,10.22,4.43,13.48,-127.93,143.31,35
-25.3,3.49,-4.71,20.7,113.96,28.56,6.57,-3.62,23.53,98.44,-205.71,-44.04,5.14,27.62,10.2,10.11,-114.36,172.75,35
-23.41,2.95,-8.66,-0.68,8.98,-10.89,8.31,-8.32,26.03,-39.01,-64.75,-4.88,10.54,22.18,9.15,6.69,-4.79,25.59,35
-25.22,4.05,-2.07,0.24,-110.84,-24.27,4.49,-0.23,21.27,-12.26,3.81,0.63,7.63,19.28,7.77,11.72,6.69,-13.77,35
-17.85,-0.26,6.72,36.72,-171.48,-44.19,-0.07,-1.82,19.7,0.54,12.84,0.88,4.72,16.77,6.74,-1.86,6.64,-9.28,35
-1.3,-0.6,16.72,54.98,-158.01,-46.68,1.8,-3.48,20.36,-3.71,-1.9,1.95,3.79,16.78,7.56,9.77,3.71,-3.22,35
8.47,-0.2,31.89,-43.26,-193.21,-31.54,0.71,-2.7,20.89,6.49,2.34,1.61,4.19,17.32,6.78,-1.22,5.22,1.76,35
5.77,-0.2,25.44,-13.28,-30.76,5.96,1.94,-2.67,21.21,-1.12,-0.05,1.86,4.3,17.41,6.77,3.17,3.86,-2.34,35
2.7,-1.02,21.12,-6.25,16.31,1.61,1.35,-2.97,20.25,-0.83,-0.49,0.73,4.79,17.1,7.15,3.81,-1.03,-1.46,35
0.88,-1.81,20.19,-3.37,5.52,2.44,0.44,-1.82,20.87,5.27,-1.37,1.66,4.04,17.14,6.13,-1.32,5.22,2.98,35
0.55,-1.86,20.56,2.64,3.71,2.93,1.52,-2.2,20.69,-0.2,-4.64,2.69,4.43,17.38,6.96,-1.27,4.93,2.69,35
1.19,-1.65,21.36,1.22,-1.32,-1.07,1.82,-2.75,20.68,-1.71,-0.83,-0.93,4.83,17.72,6.86,1.95,0.88,-1.22,35
0.62,-1.32,21.01,3.86,3.66,-0.15,0.46,-2.09,20.85,1.17,0.39,1.32,4.94,17.51,7.15,0.73,2.39,-2.1,35
0.4,-1.07,21.63,1.9,-1.03,3.56,1.8,-1.96,20.86,0.29,-3.17,0.44,4.83,17.46,6.59,2.34,-1.32,1.66,35
1.16,-1.42,21.25,5.47,-0.88,0.49,1.7,-2.21,21.13,-0.54,-2.39,-0.15,4.68,17.63,6.63,0.73,2.39,1.17,35
1.09,-1.32,21.35,0.88,-3.81,2.44,1.38,-1.99,20.87,-2.54,-0.1,0.78,4.6,17.58,6.86,1.9,1.95,-0.39,35
1.11,-1.16,20.96,1.66,-1.81,0.15,1.31,-2.29,20.42,0.59,-3.81,-0.93,4.73,17.22,6.87,-0.05,0.68,0.24,35
1.25,-1.46,21.07,-3.47,-2.25,0.83,1.65,-1.75,20.65,2.69,-3.08,0.73,5.31,17.64,7.0,1.46,1.66,0.0,35
-8.23,3.19,17.95,16.94,210.89,16.6,-25.09,-1.97,-5.99,-112.11,227.39,-1.07,-14.67,5.39,0.12,-32.42,117.87,-165.38,36
-18.3,-2.42,-2.88,-61.77,254.88,-2.29,-21.67,12.44,-8.95,96.29,30.81,20.41,-17.41,6.06,-2.33,7.67,8.15,-25.83,36
-23.26,9.8,-5.55,43.21,33.84,-1.61,-24.13,4.53,-8.03,1.81,-49.12,-21.92,-17.42,5.74,-1.15,-21.44,-38.18,45.56,36
-19.64,3.31,-4.32,-12.99,-56.4,-23.97,-10.88,1.96,9.34,-26.76,-159.52,-53.37,-16.62,9.58,2.67,-37.5,-88.67,114.26,36
-17.19,1.78,5.88,-16.89,-164.21,-34.67,-12.94,-5.89,14.4,-40.28,-98.88,-57.71,-10.65,16.05,9.83,-30.47,-62.35,82.32,36
-13.07,-1.75,15.46,-19.19,-105.37,-25.05,-6.74,-9.92,17.69,43.99,-137.55,-43.51,-4.1,14.31,9.84,19.04,-77.59,100.54,36
-8.58,-6.73,15.52,21.0,-144.58,-25.15,-3.15,-3.45,22.1,63.57,-90.33,-0.1,2.05,23.88,12.6,38.04,-64.06,83.69,36
-5.96,0.61,23.5,56.45,-109.28,1.61,0.49,-2.86,24.32,23.53,-60.35,-8.74,2.63,17.24,8.39,-12.11,-22.95,48.24,36
-1.44,-0.09,23.35,-3.22,-77.39,-2.59,0.91,-2.16,22.85,-0.1,-16.26,-0.93,5.96,19.42,8.38,-1.47,-2.69,9.03,36
1.19,0.29,24.13,-1.71,-20.8,-2.54,-0.39,-2.91,19.92,3.08,1.07,-8.06,5.62,17.0,8.32,3.76,-11.96,-4.83,36
0.35,-1.06,20.99,3.95,-0.1,-11.62,0.59,-3.01,20.76,2.69,-3.47,-0.54,4.03,16.1,8.34,-2.54,0.88,2.78,36
0.2,-1.79,21.27,3.42,-3.08,0.15,1.51,-2.1,21.29,6.54,4.39,2.93,4.13,16.8,7.64,-2.39,11.08,2.54,36
1.1,-0.75,21.24,2.2,-0.68,7.28,0.34,-1.89,20.49,5.52,0.93,2.34,5.34,16.8,8.13,3.76,-1.86,-3.66,36
0.8,-0.74,21.39,5.37,-1.12,-0.88,0.27,-2.39,20.68,-0.24,-0.54,-0.39,4.19,16.75,7.92,3.03,0.78,-1.66,36
0.47,-0.95,21.02,1.56,0.15,0.88,0.62,-1.95,21.03,3.42,-4.2,1.07,4.76,16.88,8.07,1.03,-0.29,2.44,36
0.6,-1.14,20.96,2.05,-5.03,0.49,0.54,-1.62,20.56,5.42,-2.29,0.29,4.7,17.14,8.09,2.69,0.54,0.49,36
0.6,-0.03,21.32,3.37,-1.32,-0.05,0.61,-1.45,20.73,1.27,-5.86,0.2,5.31,16.87,7.91,2.64,-0.34,1.27,36
1.16,-0.57,21.25,1.42,-2.73,0.93,0.97,-1.55,20.9,-0.39,-0.78,0.59,5.3,17.17,8.09,1.61,-0.24,-0.34,36
1.1,-0.88,21.3,3.71,-1.22,0.05,0.86,-1.15,20.94,-0.54,-1.66,0.1,5.14,16.93,7.89,3.86,0.68,0.59,36
1.22,-0.11,21.3,2.59,-2.69,0.88,0.97,-1.28,20.72,0.73,-0.83,-0.05,5.38,17.14,7.91,3.03,0.83,-0.2,36
-21.54,2.99,1.1,10.55,102.83,-23.19,-19.17,-0.49,2.37,15.23,92.24,9.33,-13.93,15.62,3.51,-7.91,8.94,-99.46,37
-21.08,0.64,-1.6,-13.57,46.83,-5.22,-21.2,-1.23,-1.98,-12.79,49.27,3.71,-17.74,7.91,3.71,-15.19,14.06,-50.93,37
-21.03,1.99,-4.28,-17.68,-17.38,-6.4,-25.35,2.94,-6.97,-21.63,-24.9,-5.76,-17.45,8.98,2.77,-10.69,-8.35,11.38,37
-21.29,2.39,-0.45,-51.22,-73.49,-22.17,-25.56,5.03,-3.49,-36.28,-85.64,-25.15,-17.62,8.15,4.28,-15.87,-41.06,70.26,37
-13.61,-0.19,7.99,-65.63,-113.72,-63.72,-14.06,-0.75,10.69,-1.07,-86.13,-80.52,-15.55,9.91,4.31,-4.39,-76.51,112.84,37
-11.34,-2.6,13.8,-12.74,-112.45,-30.08,-18.45,-11.12,13.55,0.39,-102.1,-77.39,-7.61,16.22,8.4,-1.9,-28.76,65.53,37
-9.4,-3.32,14.96,25.2,-119.43,-20.61,-6.88,-18.97,14.48,48.97,-74.41,-61.52,-3.94,13.59,6.57,34.47,-44.92,91.41,37
-2.85,-1.26,21.49,32.52,-112.06,-1.9,-3.06,-3.68,19.59,29.93,-115.97,-32.13,1.99,20.98,5.77,57.71,-46.0,80.27,37
1.05,-0.52,24.81,15.67,-32.96,-5.66,3.56,-7.5,23.45,22.27,-35.69,-13.62,5.74,22.72,4.04,22.17,-19.43,32.57,37
0.63,3.38,20.83,16.75,-0.2,-8.2,1.6,-3.45,17.04,0.1,-4.35,-17.77,8.54,15.78,4.09,-7.37,10.99,9.42,37
2.85,-2.06,23.82,4.2,-16.94,2.49,0.13,-7.48,22.51,72.8,3.86,5.42,7.85,14.9,4.24,-6.4,-19.73,6.79,37
1.96,0.73,20.45,-6.59,-7.96,0.44,2.19,-3.21,20.21,2.69,-11.91,1.9,7.04,17.52,4.68,6.01,-6.2,-1.37,37
2.91,0.93,21.9,8.25,-1.56,0.54,3.2,-3.44,21.19,-0.73,-0.73,1.42,6.41,18.47,3.88,12.06,-3.37,-1.9,37
2.7,-0.06,20.63,-2.44,0.0,2.98,2.97,-3.83,20.67,-14.31,-3.08,-0.15,5.58,16.78,3.49,3.71,4.59,-3.12,37
2.41,-0.29,21.01,2.98,1.71,0.05,2.13,-3.66,20.25,-3.52,2.54,0.63,5.26,17.25,3.44,6.69,1.51,-3.81,37
2.52,-0.1,20.76,1.12,1.27,3.37,2.62,-3.92,20.05,-6.25,-2.2,0.59,5.37,17.0,2.91,4.54,5.66,-3.37,37
2.21,0.33,20.9,2.25,-1.56,3.42,2.88,-3.52,21.57,2.34,-2.29,2.44,5.94,17.61,2.93,5.81,1.12,1.03,37
2.36,0.76,20.71,-2.1,-4.35,2.54,2.91,-3.52,20.42,-4.3,-2.2,-1.03,6.27,17.8,2.33,-7.86,11.04,5.81,37
2.58,0.1,21.25,0.63,-2.39,-1.81,2.75,-3.31,20.39,1.37,0.83,-1.61,5.89,18.65,2.97,6.05,-4.3,-0.63,37
2.67,-0.21,20.93,1.51,-0.05,-0.05,2.7,-4.04,20.19,2.78,1.71,-0.15,5.52,17.71,2.68,3.42,-2.39,-4.83,37
0.88,2.44,24.27,44.24,231.25,6.15,2.65,-0.85,19.72,7.71,-6.54,0.49,-20.77,7.35,2.22,-21.63,-25.93,118.46,38
-8.02,8.14,10.66,-22.17,237.65,-16.41,4.62,-0.59,20.41,-0.44,-15.87,2.29,-8.07,13.68,4.76,-5.32,-59.52,149.32,38
-17.03,-0.18,2.58,-9.47,80.91,5.03,6.39,-1.54,20.05,-0.15,-14.36,-1.56,-0.47,17.67,3.59,21.97,-46.0,136.96,38
-19.47,2.6,-1.99,-13.09,-21.48,-6.98,5.3,-0.69,20.86,-4.1,-8.15,1.32,5.49,23.73,5.02,27.59,-24.9,102.05,38
-15.04,12.71,3.49,47.22,-185.45,-16.02,4.8,-0.95,18.85,4.15,6.84,-5.37,5.01,20.14,-0.58,4.35,1.66,32.47,38
-13.7,8.0,16.71,23.73,-263.13,-40.72,6.01,-0.09,19.56,-0.78,-2.54,4.15,5.27,19.0,0.18,-1.12,3.86,-1.46,38
-7.8,3.64,16.03,103.66,-179.74,-1.03,7.06,-0.86,20.32,2.1,-1.03,2.54,5.53,18.79,1.41,-6.4,6.98,-0.63,38
1.48,6.94,25.98,59.37,-135.94,-4.35,6.3,-0.54,19.45,-4.74,-3.37,2.64,5.09,17.51,2.04,1.81,-3.71,2.73,38
1.43,1.74,22.18,-7.28,-52.88,-0.59,5.72,-1.55,19.85,4.2,-2.34,0.44,5.21,17.36,1.66,8.11,3.86,2.44,38
2.64,0.9,22.03,-2.0,-1.22,-3.08,5.98,-0.34,19.58,0.68,-4.93,-1.17,5.17,17.71,1.01,3.47,0.98,5.81,38
2.58,0.48,21.45,-6.49,-0.78,5.08,5.54,-1.44,19.65,1.66,-1.37,-1.42,7.99,18.97,0.8,7.03,0.59,5.91,38
1.46,-0.08,20.09,-2.0,-6.15,-3.96,6.84,-2.13,19.29,5.62,-7.42,-4.35,5.52,17.73,-0.38,-5.62,7.81,10.21,38
2.53,-0.11,20.45,-0.2,-9.96,2.73,7.71,-0.19,19.99,5.96,-9.08,0.68,5.82,16.8,0.63,-1.17,-2.83,-4.54,38
2.66,1.03,21.12,4.78,-8.98,1.46,6.43,1.11,19.87,-2.0,4.3,1.22,5.92,17.33,0.05,0.2,4.2,-0.93,38
4.1,1.9,21.13,7.47,-14.6,2.1,5.65,-0.35,18.85,-3.22,0.93,-2.0,7.45,18.59,0.38,2.59,3.27,0.0,38
3.92,-0.45,21.63,-24.85,-10.94,0.73,6.92,-0.66,19.77,-0.29,-1.95,2.44,6.25,17.94,0.67,2.64,2.49,-1.22,38
2.68,-0.09,20.06,3.08,2.64,-3.81,6.42,-0.46,19.65,-2.78,1.37,-2.05,6.26,17.53,0.57,3.32,2.2,-0.05,38
3.44,1.22,20.43,4.54,-1.37,4.44,6.1,-1.55,20.0,-11.23,3.13,1.42,6.3,17.61,-0.34,0.34,1.56,3.32,38
4.22,0.71,21.46,2.05,-0.24,3.17,6.02,-1.61,19.45,-4.83,0.39,-5.37,6.2,18.49,1.02,2.49,-2.39,-0.05,38
3.59,0.4,20.47,2.78,0.83,2.93,5.17,-2.14,18.8,3.56,-0.73,0.1,6.44,16.8,0.93,5.66,-2.0,3.37,38
-9.57,2.38,20.55,14.55,170.31,20.41,-21.99,1.26,-0.15,-48.29,13.38,-13.13,-18.98,5.36,-0.58,-26.47,14.5,-13.92,39
-14.25,3.03,13.91,-43.99,211.23,2.39,-19.39,2.16,3.81,-25.34,-61.57,-21.73,-18.84,9.06,0.64,-11.72,-19.78,49.46,39
-21.07,2.1,-0.57,15.28,106.74,11.96,-17.26,4.57,9.12,45.31,-85.25,-24.22,-12.17,14.09,4.68,3.56,-50.05,81.74,39
-21.86,-0.25,-2.66,-15.82,2.59,-5.18,-13.31,0.01,15.25,39.99,-136.72,-34.67,-8.98,10.81,5.25,12.01,-64.45,94.04,39
-22.58,2.46,1.4,-0.98,-57.86,-14.26,-10.94,2.74,13.69,55.76,-133.94,-9.57,-0.61,15.32,4.7,53.17,-49.66,92.48,39
-15.89,3.53,10.64,-14.5,-98.44,-21.87,-1.9,0.94,24.36,12.89,-121.39,1.32,4.17,19.99,4.21,38.23,-30.42,90.09,39
-9.48,-4.16,15.2,-16.26,-141.02,-36.87,9.25,1.53,25.13,-19.29,-24.76,1.81,5.89,20.69,2.59,2.93,2.73,6.25,39
-7.52,1.18,15.94,36.67,-128.61,-8.64,3.61,1.6,20.09,-9.23,12.16,1.81,4.86,17.62,1.86,-4.25,7.42,-8.11,39
1.56,-0.28,25.2,35.25,-95.7,3.91,2.67,-0.33,20.34,1.22,-1.42,-1.61,3.96,17.85,3.29,-1.17,1.71,2.1,39
5.21,-1.5,25.03,-10.01,-8.4,-8.4,2.8,0.07,19.53,3.81,-7.18,1.37,4.82,17.72,2.91,4.54,1.07,3.96,39
1.25,0.48,20.62,-4.1,9.96,1.86,3.19,0.23,20.79,2.05,-5.96,1.32,5.08,18.08,2.98,5.91,-0.73,2.2,39
0.61,0.11,20.85,-1.17,-4.3,0.49,4.57,1.45,19.92,2.0,-14.75,2.2,5.32,17.48,2.28,0.1,4.44,6.49,39
0.66,0.98,20.2,1.71,-8.74,2.2,4.95,0.68,20.3,1.61,-2.88,-0.44,6.42,18.81,2.87,1.46,0.0,1.86,39
1.7,0.04,21.4,2.15,-6.98,0.44,5.08,1.07,20.26,0.34,-2.49,3.86,6.12,18.13,2.28,2.69,3.76,-0.34,39
2.46,0.27,20.64,-2.34,-12.65,2.0,4.67,0.65,19.51,0.15,0.73,-2.93,5.59,18.0,2.12,1.07,-0.68,-2.1,39
2.76,0.88,21.44,-0.83,-4.3,0.29,4.35,0.2,20.23,1.61,2.88,-2.15,6.15,18.24,2.82,-3.22,1.12,0.15,39
2.6,0.82,21.31,-0.05,-2.15,2.98,4.83,-0.49,19.88,2.05,-2.0,1.56,5.24,16.92,3.01,0.63,3.03,-1.9,39
2.21,2.15,20.55,3.42,-0.68,-0.49,4.93,1.24,20.48,1.76,-0.44,3.61,6.2,18.23,2.15,2.1,3.56,2.05,39
2.57,0.76,20.74,-5.32,-1.71,-0.73,4.71,0.7,20.25,2.34,2.25,-0.39,5.6,18.02,2.44,0.1,2.44,-1.03,39
2.68,-1.02,20.31,-1.95,-3.17,-0.15,4.53,0.66,20.38,-1.42,-2.1,1.95,6.27,18.27,2.64,-1.95,3.71,-0.1,39
-12.13,1.78,9.45,-10.64,192.43,2.2,-22.82,-0.63,-6.72,-55.32,74.07,22.22,-17.08,5.58,0.83,-11.77,34.47,-61.18,40
-19.71,-1.41,-4.01,-10.6,150.05,35.25,-18.65,6.62,-2.9,12.21,-30.81,-0.59,-22.78,5.24,-2.32,3.81,-1.12,17.29,40
-20.3,-2.81,-10.45,-32.13,48.83,25.83,-16.2,6.4,3.57,67.82,-98.88,-23.63,-19.54,8.49,0.88,-10.35,-59.62,65.09,40
-18.22,5.41,-3.85,-16.99,-20.61,-8.2,-13.61,-0.35,7.9,51.32,-135.89,-41.55,-19.32,8.82,1.48,-19.78,-79.98,104.15,40
-13.79,5.56,5.43,-49.17,-104.35,-44.68,-9.75,3.22,15.78,16.94,-159.91,-32.76,-8.51,13.32,6.94,-24.9,-109.77,122.27,40
-12.93,2.91,7.51,-31.84,-136.52,-58.69,-5.24,-2.55,21.14,68.07,-132.03,-23.97,-4.26,11.51,6.97,0.93,-61.72,106.25,40
-7.84,-8.33,17.7,-59.33,-142.87,-59.28,-0.55,6.48,20.87,123.93,-118.65,-2.88,6.53,20.69,6.86,51.51,-59.18,100.15,40
-2.22,-6.1,20.65,-10.01,-130.86,-30.03,5.53,1.84,26.18,-13.82,-38.67,6.05,7.44,21.58,4.85,9.33,-3.56,41.02,40
2.38,2.72,25.14,69.09,-143.9,-4.64,4.54,3.12,20.84,-7.08,5.18,-0.88,7.05,18.74,2.51,-0.78,8.25,-2.64,40
4.03,0.02,25.84,-3.13,-21.44,6.79,3.35,1.41,20.23,-5.13,4.98,-0.2,4.92,17.12,3.11,-6.64,8.94,-2.93,40
3.46,1.14,21.08,-3.66,4.25,0.49,2.44,2.03,19.55,0.83,-0.93,1.32,6.29,17.41,3.64,3.03,-0.78,-2.05,40
2.12,1.2,20.65,-0.44,4.15,0.63,3.4,2.08,20.43,2.93,-10.11,-0.59,5.06,17.44,3.54,8.64,-3.56,1.27,40
1.77,0.71,20.2,2.15,-1.12,1.95,3.82,2.12,19.97,3.42,-4.54,1.27,6.79,18.17,3.31,3.95,-0.59,-1.81,40
1.89,1.46,20.8,4.39,-6.05,0.0,3.63,2.19,20.64,-1.71,-5.37,1.81,5.41,17.89,2.57,1.17,3.47,2.15,40
2.25,0.91,20.65,0.88,-3.81,0.15,3.9,2.02,20.31,-0.15,-2.15,1.71,5.94,17.66,2.96,-2.2,3.81,1.71,40
2.81,1.15,21.32,1.51,-4.0,-0.15,3.9,2.65,20.01,-0.98,-1.07,0.63,6.46,17.91,3.13,2.15,0.78,0.1,40
2.63,0.97,20.91,1.32,-2.39,2.0,4.04,2.07,20.02,-0.59,-2.69,1.07,6.55,17.86,3.78,1.46,1.07,1.03,40
2.64,1.25,20.96,-0.39,-1.86,1.37,3.86,1.86,20.15,-3.56,2.88,1.66,6.5,18.6,3.7,2.0,1.37,-1.56,40
2.55,0.77,20.87,-0.0,-3.22,1.03,4.36,1.77,20.37,-3.22,0.49,0.93,5.71,17.76,3.08,-1.81,9.47,1.37,40
3.07,0.94,21.05,-1.66,1.22,2.73,3.87,1.56,20.07,0.15,-1.61,1.71,5.88,17.27,3.5,0.1,1.51,-2.49,40
-19.72,-2.14,3.16,31.35,264.11,1.61,-18.72,0.04,7.54,73.19,-155.57,-19.19,-22.9,11.59,2.82,-69.78,-5.52,112.4,41
-22.7,0.07,-2.02,-8.2,89.94,22.51,-7.22,-11.8,13.69,4.0,-207.28,-20.75,-21.19,10.41,3.68,-44.09,-38.13,131.84,41
-23.23,2.89,-0.56,2.59,-33.3,11.28,-1.04,-6.0,18.99,-31.54,-248.34,-24.27,-7.77,16.87,5.48,26.32,-59.81,134.52,41
-28.54,-2.99,-2.17,27.59,-148.68,12.01,15.83,-14.43,21.71,-17.58,-90.19,-21.83,2.98,23.79,7.23,52.15,-49.46,99.41,41
-23.96,-5.32,7.2,90.43,-160.6,36.08,9.42,1.64,21.09,82.28,-17.19,-8.01,7.32,21.66,3.25,41.99,-23.54,39.45,41
-14.38,-1.68,14.81,90.92,-219.92,6.45,7.77,0.09,21.11,-12.11,-31.2,-3.66,3.51,20.01,0.74,19.43,-3.42,14.31,41
-3.62,-7.54,23.17,90.67,-96.58,5.32,6.08,-1.02,18.99,-11.28,-12.26,3.52,4.59,18.51,0.43,-2.44,6.49,-3.71,41
-0.96,6.12,23.92,103.32,-82.71,3.08,5.87,-1.17,19.61,-1.17,0.2,3.37,4.04,19.03,1.1,12.7,2.49,-11.72,41
1.08,2.96,21.9,25.63,-23.88,7.13,3.82,1.14,18.98,-1.12,10.64,-4.25,5.03,19.84,0.46,15.77,-7.52,-6.93,41
1.18,2.5,20.58,2.54,6.1,4.83,2.78,0.17,19.2,12.26,1.46,0.59,3.08,17.03,-1.65,9.23,-17.58,-7.81,41
3.05,0.86,21.0,5.76,4.54,1.51,4.09,-0.09,19.6,-1.86,-5.91,1.51,2.5,18.06,-0.92,9.28,-3.52,-7.42,41
4.14,1.77,20.96,6.59,6.49,-7.23,6.36,0.19,20.0,-4.74,-5.91,4.74,3.17,19.68,-0.97,3.91,5.76,-6.64,41
4.22,0.77,20.18,7.13,4.74,3.86,6.44,0.21,19.19,-8.11,-0.54,-2.29,4.09,18.3,-1.11,7.62,-4.39,-3.32,41
3.94,1.6,20.78,-4.44,-0.39,3.66,6.01,-0.17,19.75,-8.98,1.37,1.95,3.73,18.86,-0.84,-2.73,3.91,-1.22,41
3.57,2.33,21.12,-1.56,5.62,5.32,6.38,0.37,19.49,-5.37,-0.73,1.12,2.93,18.58,-1.02,2.88,1.95,-4.83,41
3.52,1.25,20.54,-3.17,-6.4,0.98,6.15,0.49,19.91,-2.54,-5.66,3.61,4.71,18.47,-1.35,3.27,1.56,1.07,41
3.72,0.98,20.79,-12.01,-1.66,1.27,6.82,0.59,19.41,-1.07,-6.93,-0.73,3.02,18.44,-1.49,5.62,-2.44,-1.27,41
2.89,0.55,20.11,-5.62,-2.29,1.9,5.32,0.9,19.2,-6.93,4.39,-5.32,3.69,17.63,-1.75,9.67,-7.86,-6.98,41
2.61,1.63,20.02,-1.03,1.32,0.59,7.77,0.46,20.36,-3.03,-3.66,1.46,3.9,17.54,-2.09,4.88,-3.66,-0.29,41
3.01,2.69,20.24,5.18,-2.34,0.1,6.45,0.63,19.26,-3.91,1.32,2.34,4.13,18.74,-1.85,1.27,0.2,-4.25,41
0.76,5.42,17.21,-34.96,302.25,-57.86,-8.5,7.38,12.06,-40.43,356.35,-67.14,-11.34,15.13,5.02,7.71,-4.44,33.15,42
-21.58,-1.5,5.0,12.4,148.83,-28.56,-20.03,-3.19,6.12,17.14,135.4,0.29,-11.63,16.94,4.63,-62.84,0.78,102.73,42
-20.12,-2.93,5.24,-1.66,1.66,-1.86,-20.95,-5.79,6.95,-16.6,-1.86,-4.54,-4.84,16.68,5.66,27.78,-50.1,74.51,42
-22.03,3.89,6.64,-8.06,-104.25,5.91,-24.51,2.88,5.3,-10.79,-150.88,5.81,2.36,21.37,6.68,8.2,-24.51,55.18,42
-7.42,0.68,12.33,-35.11,-313.96,-15.28,-0.52,-2.19,22.23,-26.42,-299.76,-29.59,3.72,20.3,5.87,21.29,-10.06,20.02,42
6.2,-1.24,22.56,-8.11,-61.96,-25.29,5.07,-6.03,21.78,-28.03,-86.62,-39.7,2.55,19.63,4.9,8.01,-3.56,5.08,42
10.03,-4.64,22.14,-4.1,-51.37,-11.38,10.93,-2.83,20.37,28.08,-24.22,-20.8,3.2,18.81,4.23,-0.83,3.91,4.39,42
7.72,-1.29,21.15,6.88,-28.17,2.15,9.3,-2.5,19.31,8.84,-7.03,3.13,3.27,18.84,4.68,3.81,1.17,-5.52,42
6.6,0.8,20.48,15.82,0.24,-0.39,7.47,-0.77,18.16,20.9,11.91,-3.12,2.51,18.8,4.48,9.57,3.52,-7.81,42
6.46,0.88,20.12,-3.42,-6.01,0.73,9.11,-1.23,19.75,3.22,1.32,-0.05,1.77,18.86,3.94,5.32,1.95,-0.24,42
6.52,1.16,19.88,-0.88,-2.0,4.79,8.95,-1.38,19.14,-2.69,5.52,2.93,1.24,17.94,3.74,4.74,3.37,-1.12,42
4.05,0.7,19.72,-2.54,-4.83,5.91,8.69,-0.99,18.82,2.1,-5.18,4.1,1.81,18.81,3.65,1.27,4.54,-1.17,42
5.37,-0.4,20.07,-1.76,9.18,-1.42,6.44,-2.57,18.95,2.88,6.45,6.64,2.12,19.23,3.52,4.59,0.88,0.78,42
4.68,0.65,20.65,1.86,18.55,0.39,6.68,-3.13,19.01,-4.25,7.81,1.51,2.09,18.82,3.26,2.69,1.42,2.34,42
4.57,-0.16,20.5,-0.49,-3.96,0.78,6.75,-2.43,19.01,-1.66,1.56,-1.17,1.85,19.18,2.18,-4.35,7.28,3.91,42
4.7,-0.01,20.49,2.0,-5.62,1.46,6.87,-2.4,19.34,1.32,-1.9,-0.54,1.09,18.14,2.25,7.13,-0.39,-4.15,42
4.49,0.17,20.86,3.08,-6.79,-1.86,6.62,-2.47,19.23,3.66,0.63,-2.64,1.46,18.34,2.45,3.22,1.61,-0.39,42
5.03,0.36,20.31,1.37,6.49,0.98,6.83,-1.94,19.2,1.9,-1.66,1.46,2.1,19.19,3.13,3.32,2.83,-1.81,42
3.67,1.72,20.82,7.52,5.27,2.49,6.73,0.01,18.68,6.35,-3.56,1.51,2.02,19.77,2.48,7.91,0.88,-0.15,42
4.56,0.02,20.25,5.37,7.32,-1.51,5.64,-1.65,18.56,5.91,4.83,-3.91,1.61,18.96,1.65,6.45,1.56,0.2,42
-21.22,3.7,6.88,94.48,195.21,20.7,-20.66,8.02,1.36,-15.43,-3.86,7.76,-19.14,14.5,-8.93,18.46,-39.01,51.17,43
-27.42,6.97,4.19,47.8,58.15,12.35,-18.97,5.88,4.8,-14.55,-50.78,-7.03,-14.95,8.61,-6.25,-23.97,-18.95,29.69,43
-22.93,6.38,-0.19,29.0,38.57,8.3,-12.4,2.67,10.52,-55.03,-132.18,-37.21,-16.59,9.99,-4.0,-83.69,-14.7,45.7,43
-23.65,5.64,-0.48,-1.86,53.61,-1.03,-0.37,-2.01,16.43,-123.14,-274.56,-59.37,-14.71,7.84,-0.32,-117.09,-37.4,72.56,43
-15.77,8.75,2.11,-15.19,-56.3,2.73,5.9,-6.73,20.87,-2.3,-248.34,-43.36,-9.77,18.53,8.9,-70.22,-65.33,63.23,43
-9.98,3.84,7.43,-49.85,-152.54,-39.65,13.12,-9.22,19.43,2.93,-19.97,6.69,-6.22,15.81,11.41,-18.99,-17.43,16.75,43
-5.44,-5.02,14.37,-99.07,-246.24,-31.79,8.97,-5.11,18.01,-1.12,-7.37,2.2,-5.25,17.0,10.73,-3.56,7.18,2.15,43
1.67,-2.98,22.26,-28.13,-245.26,-19.58,7.12,-6.71,17.93,-2.49,3.61,2.88,-6.61,17.34,10.64,4.1,1.66,-4.25,43
4.81,-5.96,22.43,-14.89,-50.83,-4.74,7.01,-5.49,17.25,-2.73,-10.25,-1.86,-6.82,16.34,11.03,-0.73,-6.88,-2.1,43
4.45,-1.64,20.52,0.78,-10.25,6.45,8.62,-6.81,17.56,-12.79,-19.73,0.68,-5.32,16.56,11.42,-0.29,-7.86,0.78,43
3.39,-2.12,21.09,-2.0,3.08,-0.54,8.53,-7.24,17.27,-0.2,-2.59,3.91,-5.94,16.18,11.19,3.32,2.83,1.12,43
2.22,-1.68,20.79,3.37,-7.52,-1.61,7.77,-6.61,17.05,7.62,-2.54,1.07,-6.29,16.87,10.98,3.71,1.86,0.29,43
3.64,-2.22,20.99,-0.15,-16.11,-0.05,9.4,-7.81,17.53,-7.08,1.17,1.07,-5.7,16.53,11.44,-2.0,1.27,-4.54,43
4.9,-2.87,21.01,-0.15,-1.51,1.07,9.3,-7.78,17.77,0.54,-1.61,1.12,-6.43,15.99,11.15,0.59,1.56,0.39,43
3.56,-3.54,19.71,0.78,5.18,3.17,9.41,-6.36,17.49,-2.05,-4.54,-2.15,-6.6,16.95,10.91,3.56,0.83,-0.83,43
4.26,-3.02,20.98,-3.76,-0.59,1.81,9.34,-6.92,17.39,-5.62,-6.64,2.88,-5.2,17.04,11.36,1.07,-1.61,-1.32,43
3.72,-3.0,20.67,-0.34,-3.12,2.0,9.63,-6.7,17.28,0.73,-3.27,-0.44,-5.87,16.53,11.04,3.27,-2.69,1.76,43
2.64,-2.77,20.38,4.69,-0.63,0.34,9.87,-7.71,17.24,-5.18,-2.59,-0.05,-6.1,16.2,11.22,-0.34,0.39,-0.98,43
3.78,-2.51,20.72,4.2,-3.91,2.0,8.42,-6.5,16.85,5.66,3.17,-0.05,-6.11,15.85,11.1,2.15,4.54,-2.0,43
5.18,-2.55,20.75,2.2,-5.32,-0.2,8.69,-5.92,17.09,2.78,-2.0,0.49,-6.76,15.57,10.95,1.07,4.88,1.27,43
-1.68,1.82,14.06,152.15,359.03,27.49,-25.81,11.25,-6.96,10.69,0.29,11.13,-16.64,6.65,-5.49,-24.56,-9.67,-8.4,44
-21.29,10.05,-4.36,125.59,217.92,43.31,-21.82,8.81,-4.96,-26.71,-157.08,-27.34,-15.81,10.13,-3.3,-33.79,-17.48,33.79,44
-24.65,8.84,-8.01,10.6,19.43,7.71,-18.39,5.17,-0.91,-136.77,-291.26,-63.67,-10.81,20.17,2.13,-53.03,-65.77,97.95,44
-22.97,9.11,-5.05,-51.76,-113.87,-20.85,10.78,-15.99,26.09,-48.34,-182.57,-73.63,-8.67,15.03,6.83,-48.78,-60.06,86.77,44
-21.99,2.49,5.76,-106.49,-227.1,-29.74,8.54,-8.18,20.09,32.42,-33.74,12.35,-4.29,18.8,8.18,-21.97,13.72,7.28,44
-8.36,-5.37,17.63,-87.11,-181.69,-29.39,7.28,-6.63,20.42,-3.61,-17.92,4.15,-5.06,17.67,7.37,-17.92,6.79,8.45,44
-0.05,-3.84,22.56,10.5,-53.32,12.99,4.23,-6.01,19.32,7.57,6.49,3.91,-4.85,17.87,8.44,0.1,0.34,-3.91,44
-0.22,-1.82,21.49,-3.56,-28.37,8.4,3.68,-6.82,19.52,-1.37,-1.03,1.32,-6.4,17.42,7.99,0.83,3.42,-1.51,44
-0.36,-1.5,21.0,9.42,0.39,0.49,3.46,-6.18,19.42,2.39,1.37,2.83,-5.67,17.23,8.2,1.32,5.08,-2.34,44
-1.21,-2.13,20.78,-0.68,-0.05,2.0,3.17,-6.59,19.43,1.9,3.66,1.76,-6.18,17.26,7.95,0.1,6.49,-2.34,44
-1.42,-2.3,21.04,6.01,4.2,3.13,3.98,-6.38,19.62,1.81,-0.05,2.25,-5.78,17.75,8.18,0.49,2.59,-1.07,44
-1.18,-2.18,20.99,1.03,3.13,3.17,4.12,-6.39,19.62,-0.54,-3.17,0.98,-6.19,17.83,8.07,1.9,1.76,-0.83,44
-1.61,-2.26,21.15,0.49,0.15,1.42,3.27,-6.62,19.54,-0.1,0.2,-0.05,-6.28,17.44,7.85,3.27,1.22,-1.66,44
-1.69,-1.75,21.22,1.32,-0.39,1.56,3.79,-6.6,19.88,-1.47,-0.68,0.78,-6.29,17.89,7.85,1.66,3.56,-0.98,44
-1.69,-1.95,21.1,1.32,0.98,2.59,3.44,-6.22,19.7,-2.25,-1.66,0.54,-6.33,18.02,7.65,-0.59,3.22,-0.49,44
-1.52,-2.27,21.23,-0.15,-2.69,2.1,3.38,-6.53,19.56,-1.07,-1.9,1.95,-5.5,18.5,8.28,-0.59,1.66,-0.39,44
-1.65,-1.84,21.4,-0.15,-0.98,1.86,3.05,-6.7,19.62,-2.05,-0.54,0.49,-6.32,17.69,7.75,0.63,2.1,-1.22,44
-1.1,-2.44,21.54,-0.0,0.68,-0.24,2.07,-6.32,19.31,-0.24,-1.27,1.71,-6.1,17.59,8.02,-0.83,2.29,-0.63,44
-1.86,-1.79,21.32,3.66,2.2,2.1,2.3,-6.93,19.26,-0.59,-3.52,0.54,-6.32,17.51,8.19,2.39,-0.44,0.29,44
-1.77,-2.47,21.28,0.44,3.47,2.73,2.44,-7.39,19.36,-1.95,0.2,5.18,-6.26,17.49,8.0,-0.59,2.34,3.13,44
-18.42,2.59,7.08,33.15,147.85,17.53,-16.14,6.59,-0.36,-4.49,11.28,-7.96,-19.87,8.35,-0.74,9.47,-4.0,-14.45,45
-22.13,5.43,-1.59,6.93,95.56,12.45,-16.08,5.71,0.93,-0.05,-10.5,-6.25,-19.93,7.99,-0.21,18.55,-29.74,14.16,45
-19.71,5.83,-4.12,12.6,57.96,7.67,-16.86,4.58,3.58,-32.18,-18.6,-18.75,-18.6,9.0,1.87,6.79,-19.09,14.55,45
-14.89,6.84,-3.03,5.91,14.99,-12.45,-20.1,2.17,3.38,-23.19,-15.53,-9.47,-18.48,9.12,2.8,7.23,-9.03,21.73,45
-16.86,5.4,-2.92,3.27,-8.45,-11.72,-15.44,1.04,5.78,-26.42,-67.19,-18.07,-19.65,11.42,1.7,17.97,-15.04,45.17,45
-16.65,4.17,0.61,-19.92,-7.37,-12.5,-20.83,1.77,6.57,-31.93,-43.65,-34.67,-14.98,13.59,4.11,16.26,-34.37,59.62,45
-20.56,3.96,0.02,-5.03,-4.98,-5.47,-20.49,5.81,8.53,-44.78,-133.59,-42.43,-10.22,16.87,4.95,39.26,-53.37,81.64,45
-16.93,2.19,2.09,-25.83,-52.83,-18.51,-16.18,-1.46,15.12,-35.6,-77.59,-34.86,-8.34,20.37,5.25,25.78,-52.73,78.03,45
-22.59,1.46,4.73,-14.8,-35.16,-18.65,-9.92,-2.6,18.83,-38.77,-55.71,-30.32,-2.4,20.52,5.06,15.67,-39.7,48.78,45
-20.95,6.76,9.24,-16.6,-86.52,-13.13,-5.36,-6.6,21.7,-31.05,-20.02,-17.04,-0.2,22.48,4.66,28.37,-28.12,17.87,45
-18.24,0.21,14.88,-8.01,-78.81,-12.6,-2.43,-5.08,20.52,-5.57,-26.27,-11.23,-0.93,18.76,3.75,-2.83,-4.15,19.58,45
-12.35,-3.33,19.9,-22.56,-53.86,-18.95,-2.36,-6.24,20.31,-7.28,-16.85,-10.89,0.89,19.27,4.2,-2.69,-5.71,11.47,45
-8.56,-4.03,22.1,-7.72,-13.67,-15.92,-1.47,-5.85,20.25,-5.47,-14.84,-2.25,1.86,19.45,4.38,-0.24,-3.47,9.13,45
-7.04,-2.96,20.54,-6.15,-26.86,-6.84,-1.05,-5.6,20.03,4.25,-3.47,-3.17,1.68,18.35,4.56,-0.73,-1.66,2.0,45
-6.21,-2.6,20.79,-1.22,-17.48,-5.42,-0.82,-6.11,20.32,-3.56,2.83,-3.12,1.15,18.2,4.62,-2.1,1.03,2.34,45
-4.86,-3.51,21.16,2.93,-13.33,1.95,0.02,-5.88,20.29,2.39,-5.96,-1.37,2.08,18.48,4.59,1.07,0.88,4.3,45
-4.38,-3.2,20.79,2.93,-9.62,0.1,0.83,-5.67,20.69,1.37,-13.96,-0.93,3.32,19.22,4.69,3.37,-1.76,6.1,45
-3.32,-3.41,21.47,-0.54,-2.98,-0.93,-0.14,-5.64,19.88,1.46,-5.08,2.54,3.19,18.94,4.81,1.32,3.96,1.61,45
-3.88,-2.87,20.98,2.34,-11.04,2.0,1.91,-5.9,21.04,-8.64,-4.1,-1.86,2.25,18.77,4.34,-0.83,0.68,6.15,45
-2.81,-2.49,21.6,0.05,-17.29,0.93,1.33,-5.57,20.53,2.78,-10.84,4.88,3.46,18.27,4.73,1.27,-0.39,-2.2,45
-5.49,-1.39,20.06,13.53,80.62,30.47,-21.97,4.24,-0.94,-18.6,86.96,35.21,-13.1,11.92,2.09,-19.68,65.97,-97.12,46
-12.32,1.84,18.09,48.53,101.76,26.61,-19.51,9.62,-4.56,-0.24,-16.06,3.27,-21.02,3.22,-1.3,-13.57,2.69,-17.72,46
-17.04,3.31,12.28,33.06,125.24,21.63,-18.12,6.02,0.13,-2.98,-32.71,-19.14,-20.77,5.3,0.19,-17.19,-10.21,21.29,46
-19.84,3.47,3.43,54.64,176.66,-2.34,-22.96,5.33,1.11,-47.71,-49.22,-27.2,-16.68,11.85,3.7,-28.76,-19.97,49.76,46
-20.28,4.86,-3.43,7.08,98.97,21.63,-24.63,3.06,2.23,29.54,-106.45,-40.62,-14.16,11.91,3.26,19.48,-60.25,81.45,46
-19.33,7.28,-6.15,-10.06,-19.92,-13.57,-10.07,3.19,13.89,-53.37,-162.45,-73.19,-5.0,16.2,6.1,-0.05,-87.3,123.29,46
-18.57,6.53,-2.13,-16.31,-31.15,-15.77,-12.46,-15.22,18.35,16.89,-75.78,-45.12,-0.19,17.78,5.78,-7.67,-47.22,62.26,46
-21.43,1.7,1.4,-62.5,-58.74,-17.38,-4.78,-7.49,21.39,-45.41,-98.49,-36.67,6.18,20.06,6.96,16.7,-53.08,54.49,46
-23.72,4.62,1.26,-25.98,-143.41,-14.99,-2.96,-9.82,20.25,6.59,-47.51,-17.24,3.17,19.56,5.1,5.22,-19.82,18.12,46
-15.26,4.16,12.24,-91.46,-213.57,-65.38,-3.0,-10.56,19.2,-20.8,-73.29,-20.26,5.43,18.94,4.76,5.62,-18.7,3.81,46
-10.72,0.63,14.14,-14.89,-119.43,-26.12,0.92,-10.23,19.69,-6.54,-21.73,-11.77,4.53,18.99,4.86,5.62,-7.32,-0.59,46
-5.01,-3.41,21.75,-18.8,-70.95,-17.29,1.74,-9.37,17.91,8.11,-14.16,5.81,4.88,18.51,4.91,4.3,-8.45,-6.49,46
-5.56,-4.02,21.07,5.32,-56.59,-7.13,1.45,-8.59,19.13,-6.84,-25.44,1.17,3.09,17.19,5.36,-28.52,13.72,0.98,46
-5.51,-3.7,20.43,-8.4,-49.02,-3.27,2.46,-9.14,18.77,-7.18,-3.47,-2.15,4.08,17.04,6.0,-15.28,8.64,-1.22,46
-2.17,-4.21,20.97,-4.15,-15.48,-3.91,3.39,-7.9,18.74,8.45,-7.81,-6.01,4.07,18.16,6.44,-0.68,-3.22,-2.25,46
-4.2,-3.77,20.88,9.03,-1.9,2.59,2.5,-7.52,18.87,4.39,5.32,2.88,3.81,18.15,6.76,3.91,2.29,-7.57,46
-0.93,-4.72,21.23,-6.01,-10.11,-1.03,4.32,-7.06,19.24,23.68,-11.08,7.42,2.78,17.33,6.65,-2.1,2.25,-6.01,46
-0.23,-4.34,21.3,-1.17,-1.17,-1.95,3.28,-5.57,18.88,5.66,5.62,3.13,3.12,17.01,7.1,-9.67,5.62,-0.44,46
0.48,-3.98,20.88,8.01,-18.99,-0.73,4.44,-6.12,19.57,6.35,4.54,1.51,2.45,16.86,7.1,-2.25,4.0,-0.73,46
0.15,-4.08,21.08,5.32,5.91,2.73,4.85,-6.82,19.6,-3.27,3.86,0.73,2.8,17.6,7.14,1.12,1.9,-3.91,46
-18.05,6.21,7.56,24.61,63.09,3.86,-20.69,8.55,0.41,-1.51,20.56,5.27,-17.75,13.74,-0.51,-4.0,24.17,-26.86,47
-19.22,7.0,4.99,8.98,53.47,4.1,-19.28,6.3,1.03,-5.86,-15.38,-1.42,-17.17,10.64,-0.86,-6.54,3.61,-1.46,47
-20.19,8.09,2.01,6.88,41.36,9.03,-16.67,4.72,5.06,-56.98,-77.39,-28.47,-15.61,11.71,1.56,-23.63,-18.26,42.48,47
-20.8,8.75,-0.4,-1.17,21.97,1.32,-16.67,0.95,9.59,11.57,-97.12,-37.01,-14.95,11.43,1.06,-32.62,-40.92,49.9,47
-19.79,8.41,-0.47,4.2,-16.06,-0.49,-12.39,-0.82,15.31,0.68,-100.44,-40.38,-9.21,18.15,3.43,-14.89,-32.81,67.53,47
-15.86,7.03,2.44,-33.2,-60.11,-13.43,-7.18,-0.58,18.62,-56.69,-133.4,-31.98,-8.71,17.39,4.32,-11.72,-4.44,56.74,47
-14.1,6.15,8.4,-2.69,-119.63,-25.1,-0.04,-7.18,24.0,-80.52,-151.37,-24.46,-6.74,14.29,5.41,-33.55,-9.47,68.36,47
-12.19,7.74,12.98,1.12,-129.15,-15.33,0.21,-6.57,21.96,28.76,-62.5,-17.92,-1.78,19.05,6.17,-1.07,-18.46,36.18,47
-6.65,2.54,17.9,-23.73,-121.83,-14.36,3.4,-8.07,22.15,-24.76,-39.4,-2.83,0.84,19.58,5.81,2.59,-0.63,19.09,47
-1.07,-0.82,22.6,-32.37,-113.13,-8.06,2.68,-8.27,21.17,-3.32,-8.5,-2.98,-0.19,19.22,5.29,5.32,-3.61,5.27,47
-0.74,1.25,23.07,-4.69,-85.64,-8.15,2.27,-5.67,18.71,3.66,-9.96,0.15,1.68,18.49,5.71,-1.51,-0.98,2.59,47
0.58,-0.59,22.57,-14.75,-29.25,2.64,3.29,-6.76,19.78,-1.51,-16.5,0.2,0.98,18.51,5.74,2.88,4.64,13.72,47
-0.17,-1.71,21.92,1.27,-10.4,-0.88,4.84,-6.62,19.47,-3.91,-10.3,0.78,2.32,18.81,5.85,0.49,1.95,7.81,47
-0.96,0.23,20.71,1.56,-10.35,3.76,8.14,-8.04,19.71,-28.52,-40.77,-6.01,2.81,18.28,5.62,-4.93,3.37,11.96,47
0.56,-2.41,21.16,-6.79,-16.5,4.54,7.47,-6.78,18.28,0.68,-10.79,-1.22,3.55,18.83,6.05,1.76,-1.37,1.37,47
2.16,-1.84,21.6,-2.49,-7.76,3.27,7.23,-6.93,18.48,4.35,-10.11,-2.2,2.83,18.56,5.92,1.12,1.9,1.71,47
2.86,-2.28,21.21,-22.75,-31.74,0.68,6.21,-7.02,17.5,0.44,2.88,-1.12,2.79,18.04,6.01,0.49,3.32,-0.54,47
3.43,-2.68,21.1,-3.81,-12.99,0.15,7.1,-7.88,18.13,-2.0,1.03,-0.05,2.7,18.21,6.02,2.69,2.88,0.83,47
3.68,-2.64,20.88,-1.76,-10.4,1.03,8.18,-7.46,18.11,-0.49,-1.37,-1.12,3.23,18.34,5.94,3.86,1.07,0.59,47
3.19,-2.63,20.52,4.2,4.74,1.37,7.8,-7.23,17.97,-1.27,-1.22,-0.1,3.68,18.4,5.9,2.25,-0.54,-0.49,47
-17.61,5.1,6.52,36.43,127.05,5.32,-16.98,4.05,6.6,50.73,124.41,27.0,-5.02,17.81,1.95,-13.04,45.36,-131.98,48
-20.36,10.32,0.18,37.74,59.62,10.99,-24.82,9.74,-1.46,47.36,62.45,24.51,-12.49,13.61,1.2,4.78,43.8,-58.79,48
-20.61,8.41,-1.16,-21.58,-48.78,-0.24,-22.47,6.18,0.36,-18.6,-53.32,-1.61,-15.95,12.81,-0.34,-8.15,-2.78,9.77,48
-18.45,6.5,4.78,-33.15,-92.19,-2.39,-15.71,0.99,9.68,-34.08,-96.97,-20.12,-11.96,15.6,1.28,0.59,-47.46,69.97,48
-17.97,5.65,8.48,-86.38,-159.47,-15.72,-11.31,1.57,12.94,-78.08,-224.12,-50.39,-4.28,20.67,2.73,19.73,-50.68,109.13,48
-8.48,-1.47,20.72,-36.23,-109.96,-11.96,1.21,-7.02,24.09,-106.98,-118.55,-33.45,0.23,22.49,4.74,16.5,-51.9,90.48,48
-2.79,-2.43,21.36,-28.42,-42.97,-9.52,5.4,-8.86,19.5,-49.12,-73.44,-23.78,2.61,18.87,3.88,0.2,-16.46,24.61,48
1.68,-3.8,23.08,-30.22,-52.73,-6.49,8.9,-9.91,22.05,-17.48,-56.15,-15.87,1.58,19.3,3.38,-10.79,6.54,19.29,48
-1.23,-1.18,21.44,-20.95,-34.72,-4.35,2.44,-8.6,18.85,-15.09,-61.67,-11.72,3.98,19.14,3.65,-36.33,10.5,9.57,48
2.64,-3.56,21.08,3.71,-8.64,0.68,6.0,-8.85,18.24,1.51,0.34,-1.56,2.26,17.51,5.79,-14.06,0.59,6.35,48
3.41,-3.01,20.74,3.66,-6.59,1.12,6.05,-7.23,17.91,0.39,-3.12,0.63,2.1,17.29,5.8,-7.32,5.91,2.39,48
4.11,-3.12,20.6,-0.93,-7.76,0.05,8.49,-8.21,18.72,5.66,3.61,-0.54,2.29,17.79,6.0,-3.27,1.42,3.13,48
3.56,-3.6,20.43,-5.62,-9.62,3.22,8.05,-8.21,18.0,-6.69,-10.5,-1.81,3.25,17.98,6.38,-3.17,4.05,3.32,48
3.3,-3.7,20.64,-5.42,-20.56,-3.17,9.53,-8.53,18.3,-1.51,-18.8,-4.15,2.86,18.25,6.54,0.1,1.17,5.66,48
4.8,-3.94,20.31,-5.13,-8.11,-0.63,9.12,-9.04,17.96,-5.71,-3.66,-1.76,3.2,18.31,6.29,0.78,1.22,1.76,48
4.51,-3.52,20.05,-0.1,-2.2,2.29,8.48,-7.59,17.12,-0.44,-3.03,-0.93,3.36,18.15,6.38,0.93,4.0,-0.93,48
4.78,-3.61,20.56,2.54,1.42,1.76,8.59,-7.34,16.93,0.44,-0.1,1.46,3.59,18.37,6.5,2.64,3.96,-0.88,48
4.74,-4.01,20.47,-0.98,0.2,0.88,8.29,-8.55,17.26,-1.76,0.05,1.17,3.11,18.04,6.4,0.44,3.27,1.07,48
4.4,-3.64,20.24,1.42,-1.76,-0.54,7.95,-8.41,17.16,-3.76,-1.9,-1.07,2.84,17.85,6.41,1.37,2.34,0.44,48
4.5,-4.01,20.15,2.25,0.2,-0.2,7.93,-8.14,16.85,0.98,-2.15,-1.81,2.66,17.52,6.51,0.39,2.98,-0.63,48
6.34,-4.81,23.2,77.15,104.98,13.82,-21.47,1.53,1.54,-0.93,31.2,34.77,-4.11,19.66,3.78,24.71,12.16,-100.54,49
-4.7,0.56,17.15,88.23,241.36,16.36,-20.03,8.42,0.15,-37.6,-87.74,-4.1,-8.21,19.88,2.85,25.29,30.81,-118.99,49
-12.17,5.67,10.6,86.72,184.67,9.03,-19.93,6.89,5.84,-54.98,-171.63,-41.5,-14.71,11.38,1.34,-18.95,49.41,-68.99,49
-19.0,11.71,1.69,-6.2,40.67,3.76,-0.31,-4.64,15.34,-152.05,-260.79,-63.38,-17.46,9.31,0.25,-22.02,-4.05,8.59,49
-19.12,12.37,-0.36,-43.21,-80.47,-6.49,13.23,-21.63,20.74,-10.99,-69.73,-30.96,-12.76,14.33,2.43,-39.84,-21.14,76.56,49
-22.57,13.21,2.14,-63.82,-178.42,-27.0,10.95,-6.07,19.68,3.61,-25.73,-0.59,-5.67,20.07,5.21,-7.76,-45.51,108.3,49
-4.19,4.04,17.61,-74.61,-205.76,-20.26,9.82,-7.21,19.59,-2.1,-0.93,5.22,-2.16,16.36,5.74,-6.98,-33.74,93.9,49
2.81,-3.88,21.28,-15.04,-94.29,-5.42,5.58,-6.47,17.81,1.03,5.91,1.46,2.25,21.65,5.64,-3.03,0.29,29.79,49
6.22,-3.87,22.5,-28.56,-36.67,-1.03,5.15,-5.6,17.88,-0.1,3.66,-0.05,1.23,20.62,4.39,-3.13,7.76,4.79,49
4.88,-1.65,21.57,-11.18,-8.01,6.59,7.06,-7.12,19.17,-1.9,-8.3,0.29,1.71,19.23,4.95,-1.9,0.39,-4.69,49
2.51,-2.71,20.62,-0.68,8.5,-1.95,5.55,-6.92,18.17,2.25,-2.44,1.42,0.86,18.36,5.28,0.63,1.81,-2.34,49
2.12,-2.25,20.54,1.76,0.93,0.24,6.1,-6.74,18.49,-2.39,-0.29,-3.32,1.35,19.37,4.84,1.51,-0.24,1.37,49
2.69,-1.82,21.37,-2.25,-8.15,1.42,7.15,-6.97,18.89,5.81,0.39,2.88,0.92,18.62,4.95,0.54,3.61,-2.34,49
2.08,-1.7,20.61,0.93,-0.05,1.9,5.97,-6.6,18.63,1.51,0.15,0.1,0.56,18.76,5.0,-0.49,1.12,0.39,49
2.05,-1.87,20.83,-0.54,-2.69,-0.59,6.05,-6.71,18.61,-1.66,1.22,0.1,0.84,19.18,4.73,3.27,1.37,1.76,49
3.21,-2.84,21.33,-0.63,-4.0,1.76,5.64,-6.75,19.22,-1.22,-1.86,2.49,1.18,18.63,5.03,2.88,1.95,-0.88,49
2.1,-2.22,20.84,0.29,-0.68,1.22,6.08,-6.97,18.96,1.17,-1.81,-0.15,1.73,19.24,5.18,1.03,2.05,0.39,49
2.77,-2.15,20.99,1.07,0.05,1.22,6.11,-6.75,18.94,1.03,-0.44,-0.98,1.27,18.84,4.98,-0.1,2.69,1.71,49
2.54,-2.09,21.0,0.24,-2.39,0.39,6.63,-6.69,18.87,2.54,0.44,-0.59,1.19,18.67,5.2,1.56,-2.25,-2.54,49
2.72,-1.84,21.05,0.59,-3.47,0.49,6.41,-6.69,19.02,2.29,2.49,-0.15,1.73,18.65,5.19,1.66,-0.63,-0.2,49
-21.11,3.89,0.88,-24.46,88.57,-11.47,-22.09,3.45,-6.95,0.49,22.31,0.93,-18.05,10.25,-9.21,29.78,71.34,-48.05,50
-19.2,1.78,-4.71,-1.27,42.58,4.79,-16.86,4.56,-4.66,8.15,-9.96,6.15,-18.49,9.3,-11.62,18.31,37.99,-30.66,50
-21.4,0.85,-11.22,3.08,4.79,-1.9,-19.78,4.2,-0.83,25.15,-19.38,-4.54,-17.43,4.83,-10.87,-18.8,-11.04,4.98,50
-25.63,1.96,-10.89,-20.46,-2.34,-1.32,-18.17,3.71,3.65,31.1,-11.77,-5.13,-18.76,7.54,-9.39,-22.17,-24.12,13.87,50
-27.79,1.74,-7.39,-30.81,-16.41,9.72,-17.92,5.76,3.92,30.03,-46.0,17.29,-18.5,7.68,-7.07,-24.8,-21.97,20.36,50
-27.77,1.95,-0.98,-25.15,-16.6,2.59,-3.33,10.37,5.14,-68.99,-343.12,75.39,-18.34,10.46,-6.57,-30.81,-10.84,2.64,50
-38.28,1.35,-2.03,-41.26,-108.3,42.92,11.12,0.89,18.91,-60.5,-152.54,-7.47,-16.3,8.33,-5.87,-86.43,-40.33,13.92,50
-16.33,4.51,17.66,-125.59,-196.29,-31.88,6.9,-4.09,20.13,12.79,10.55,-4.93,-16.59,10.18,-3.03,-34.13,-71.92,34.03,50
-5.66,-2.14,21.0,-36.08,-96.73,-50.49,5.74,-3.12,19.47,-11.62,-16.6,-1.42,-12.6,12.92,4.43,-10.3,-43.51,10.4,50
-1.5,-5.32,22.22,3.42,-28.91,-3.96,7.85,-2.54,19.92,1.95,-8.84,2.1,-16.73,12.53,5.32,-3.86,-11.13,3.13,50
-1.99,-5.4,20.64,-5.27,-19.78,-2.2,5.48,-1.48,19.29,0.68,0.54,4.05,-16.21,12.88,5.27,-5.62,-6.4,7.57,50
-0.9,-4.12,21.53,4.44,-4.79,0.98,7.71,-1.42,19.36,0.59,-7.23,0.83,-15.53,13.56,5.45,7.71,3.81,1.22,50
-1.46,-3.18,20.74,-0.0,-6.54,6.54,8.21,-2.42,19.4,5.13,-0.44,2.0,-15.24,12.67,4.55,-7.37,-0.05,5.08,50
-0.4,-3.23,21.53,2.54,-9.18,-0.54,7.31,-0.98,18.97,1.76,2.0,2.98,-15.09,13.77,5.48,2.78,-0.39,2.05,50
-0.19,-3.19,21.28,6.64,-1.37,4.35,7.01,-1.78,19.17,0.15,0.24,0.73,-15.04,14.04,5.02,0.68,0.73,1.17,50
-0.93,-2.85,21.09,-0.68,1.03,2.59,7.22,-1.87,19.36,4.05,4.98,-3.71,-14.7,13.6,5.31,0.34,-1.07,1.51,50
-0.94,-3.42,21.12,1.22,-1.86,2.25,7.03,-1.83,19.17,5.18,11.72,1.22,-15.4,13.24,5.11,-2.64,-0.2,2.49,50
-0.22,-2.75,21.42,3.52,0.88,3.71,7.93,-2.16,20.19,5.42,30.47,1.42,-15.25,13.47,5.17,-3.91,0.93,0.93,50
-0.97,-3.21,20.89,3.95,0.98,3.42,5.54,-0.16,19.59,7.67,3.03,4.69,-15.05,14.38,5.71,-7.62,-5.42,6.84,50
0.96,-3.89,21.5,3.61,16.75,6.69,5.65,-0.32,19.71,0.39,2.73,-3.52,-13.8,14.47,6.35,-1.81,4.64,1.66,50
-0.41,-0.73,21.59,39.55,225.34,-25.29,0.37,-4.54,17.8,17.33,321.04,-7.13,-15.27,14.51,3.96,-0.24,3.13,-0.05,51
-21.96,-2.09,4.95,38.77,276.32,-5.71,-32.92,6.13,5.32,37.01,213.92,-29.39,-14.95,14.55,4.25,0.73,5.22,-1.56,51
-30.68,9.75,-11.25,26.03,113.57,-9.03,-26.51,9.3,-7.6,30.76,79.64,6.35,-14.74,14.5,4.07,-1.42,2.49,0.34,51
-23.12,3.18,-10.44,-5.81,-17.48,12.6,-23.64,6.02,-7.68,18.07,-61.43,31.49,-14.26,14.97,4.72,-2.34,-1.27,1.17,51
-18.03,7.16,-4.98,-55.91,-209.62,23.93,-19.17,13.68,-10.94,19.34,-158.54,33.5,-14.09,14.97,4.78,0.05,-0.2,0.83,51
-13.4,1.65,14.65,-66.16,-125.54,-27.64,-8.8,2.3,15.63,-98.97,-178.81,18.26,-14.57,14.48,4.94,0.73,-7.32,0.68,51
-7.43,-1.06,17.54,-29.3,-104.2,-14.55,-2.12,1.2,20.3,-41.75,-150.98,-2.0,-14.91,14.85,5.28,0.98,3.96,0.0,51
-1.97,-2.36,20.54,-17.09,-50.1,-3.03,5.3,-0.03,21.14,-12.45,-65.14,3.91,-13.96,14.7,5.41,3.91,3.22,-0.98,51
-1.17,-2.87,21.87,5.08,-16.89,2.88,1.91,0.89,21.1,13.38,3.61,9.62,-13.77,15.2,5.28,2.2,3.96,-0.59,51
-3.84,-2.14,21.18,-1.03,-23.0,2.1,3.18,0.18,20.78,-3.66,-17.09,5.22,-14.05,15.0,5.28,3.27,1.12,0.1,51
-3.9,-1.72,21.32,-0.0,-6.64,1.95,2.57,0.18,20.26,-4.0,-1.22,2.25,-13.82,14.41,5.32,4.1,-1.42,0.49,51
-4.87,-2.19,20.99,3.61,-5.76,2.29,1.83,0.2,19.93,-0.1,-4.05,2.54,-14.33,14.55,4.92,3.61,0.29,1.07,51
-4.11,-2.11,21.22,1.81,-10.3,0.63,3.37,0.09,20.27,-2.0,-8.2,2.05,-14.54,14.24,5.03,1.07,2.34,-1.03,51
-3.47,-2.17,21.44,-0.93,-3.61,-0.2,3.57,-1.05,20.37,-2.15,-3.71,3.08,-14.11,14.31,5.03,-0.15,6.01,-1.03,51
-3.23,-2.01,21.52,4.64,-7.03,2.69,4.75,-0.5,20.38,0.54,-5.71,5.27,-14.29,14.41,4.94,0.44,2.34,-1.37,51
-2.62,-2.31,21.23,1.76,-6.88,3.08,4.8,-0.5,20.41,3.61,3.17,-0.34,-14.16,14.42,5.0,0.49,-2.88,0.24,51
-2.8,-1.78,21.48,1.17,-3.37,2.25,5.32,-0.92,20.77,-2.49,0.83,-0.68,-14.24,14.47,5.14,1.32,-3.03,2.59,51
-3.92,-1.6,21.01,1.12,0.73,2.88,4.79,-0.84,20.61,-2.93,-6.01,0.0,-14.44,14.33,5.42,0.49,-1.9,1.81,51
-3.78,-2.07,20.9,-1.56,-4.2,3.17,4.2,-0.13,20.32,-0.73,-2.34,-0.68,-14.07,14.97,5.63,-5.22,-0.39,1.37,51
-2.88,-2.22,21.28,-3.17,-4.59,3.56,5.14,-0.64,20.59,0.73,-1.07,0.68,-14.01,14.75,5.77,-4.39,2.83,0.44,51
4.19,-0.93,19.29,112.65,150.93,-7.96,-23.1,4.57,-2.14,6.64,140.14,2.29,-19.79,9.77,-7.35,-87.99,-118.6,43.46,52
-27.59,7.33,3.6,120.07,323.73,-32.32,-22.44,5.64,-5.68,13.18,-14.75,3.76,-16.29,12.69,2.74,-39.7,-95.95,43.6,52
-24.15,-2.85,-3.04,42.97,142.72,1.76,-26.78,6.41,-7.6,-27.93,-114.4,26.46,-12.49,12.33,9.1,-27.25,-43.31,16.65,52
-20.96,4.45,-5.73,-22.61,-40.92,0.24,-6.98,3.79,9.19,-95.12,-382.08,35.55,-12.74,15.75,10.13,-10.06,-11.57,8.59,52
-32.69,11.29,-5.75,-22.41,-222.12,28.56,5.61,0.65,21.01,-25.59,-68.8,-16.26,-12.78,14.7,9.3,-4.88,-5.13,3.03,52
-9.51,0.83,9.65,-68.65,-286.33,-26.22,7.57,-0.15,19.8,-0.93,-33.4,1.71,-12.41,13.68,9.38,-0.73,-1.9,1.22,52
-2.06,-0.14,20.99,-2.1,-125.59,-35.01,6.76,1.69,19.43,11.03,4.74,-0.39,-12.32,13.23,9.58,-1.66,-2.49,3.42,52
1.1,-2.17,22.45,2.59,-55.71,-2.2,7.56,1.41,19.32,2.05,-0.34,2.78,-12.57,13.85,10.08,-2.49,-1.27,-1.95,52
-0.67,0.34,22.38,3.47,-18.07,6.64,6.82,0.15,19.82,-6.84,-1.12,-0.88,-11.92,14.19,10.38,-0.34,-2.29,-1.32,52
-1.37,-0.45,21.51,0.39,-6.88,4.83,7.65,0.61,19.88,-1.27,-5.03,1.9,-12.62,13.91,9.83,-0.83,-1.56,-1.76,52
-0.48,-1.46,21.17,-5.66,-2.44,-1.95,6.34,0.91,19.27,0.59,-7.62,3.08,-12.27,14.0,10.29,2.69,2.59,-0.88,52
0.46,-1.1,21.77,-0.05,-5.18,1.17,6.73,0.49,19.33,0.63,-6.01,1.86,-11.26,14.45,10.19,6.15,-2.25,-0.29,52
-0.37,-0.75,21.44,0.54,-8.74,3.03,6.65,0.67,19.0,2.54,0.39,-2.73,-11.6,14.32,10.75,0.88,-4.54,-1.61,52
-0.13,-1.11,21.1,0.78,-8.94,2.44,6.09,0.57,19.16,4.44,-0.83,0.83,-11.98,13.91,10.35,3.17,0.39,0.2,52
-0.56,-0.76,21.21,3.81,-1.12,-0.68,6.84,1.06,19.28,-2.64,1.81,1.81,-12.93,13.25,10.1,6.25,-0.54,-1.86,52
-0.61,-1.47,20.83,2.2,-0.24,2.25,6.23,0.56,19.42,-0.93,-1.9,1.9,-11.91,13.27,10.24,-0.73,-0.73,-0.49,52
0.37,-0.31,21.5,-1.81,0.73,1.51,6.22,0.36,19.56,0.05,-2.29,2.25,-12.19,14.04,9.98,0.39,2.93,0.73,52
0.48,-0.86,21.37,0.59,-6.54,2.49,6.19,0.74,19.35,-0.44,-3.96,-0.88,-11.7,13.82,10.5,0.44,-0.34,0.2,52
0.25,-1.24,21.4,0.34,-1.07,0.83,7.53,0.69,19.62,-2.25,-0.83,-0.15,-12.08,13.62,10.31,1.86,-0.59,-0.78,52
-0.55,-0.63,21.33,1.9,-0.39,-1.66,6.96,0.61,19.25,-1.86,-3.37,2.64,-12.3,13.57,10.52,3.61,2.44,-0.73,52
0.79,1.85,15.4,143.07,208.94,19.92,-22.43,4.66,-0.4,108.3,287.4,-28.17,-15.08,10.77,-6.33,33.74,12.79,-24.17,53
-15.75,0.98,4.97,100.15,311.23,2.34,-22.7,6.83,-3.33,-5.03,127.83,-26.95,-17.33,10.37,-7.45,-7.08,-0.88,1.27,53
-31.52,8.32,-6.5,101.27,208.59,-29.25,-24.03,3.59,-7.44,-24.02,38.09,-10.6,-17.62,10.32,-5.32,-69.82,-16.89,-1.37,53
-21.1,3.42,-7.97,9.37,34.47,-13.28,-19.36,2.59,0.01,-30.22,-88.23,10.74,-18.44,8.4,-4.76,-57.81,-48.58,26.86,53
-21.65,4.03,-5.45,-18.75,-61.47,4.74,-13.23,5.83,5.72,-42.72,-265.48,54.3,-14.86,13.72,4.61,-29.79,-47.12,19.92,53
-11.38,-2.95,0.36,-74.46,-294.19,90.63,2.91,2.61,21.64,-202.78,-380.91,59.96,-14.61,13.96,6.48,-21.48,-26.66,16.21,53
-4.73,0.44,14.8,-117.48,-167.63,-27.44,-0.04,3.1,20.41,8.4,-39.11,-5.81,-13.83,14.17,7.36,-9.96,-9.86,3.81,53
-2.54,0.88,20.71,1.51,-80.22,-3.56,8.85,2.93,19.56,3.91,-28.76,6.79,-13.92,14.27,6.93,-10.01,0.24,3.66,53
-2.19,1.45,22.51,7.96,-50.24,4.35,5.75,3.36,19.54,16.5,14.55,-2.93,-13.71,14.22,7.39,-3.17,-2.83,0.49,53
-2.92,0.99,21.67,10.3,-15.38,6.88,6.34,3.02,19.19,1.46,-5.86,7.08,-13.99,13.87,7.67,-0.98,1.51,0.1,53
-2.32,1.59,21.17,-3.52,-9.72,8.45,6.81,2.39,19.42,0.59,-0.29,0.39,-14.15,13.5,7.99,2.73,-3.08,0.24,53
-1.96,1.39,21.28,-1.22,-6.35,2.93,5.42,2.15,19.26,-0.93,0.0,2.29,-14.06,12.95,7.69,-4.1,-1.61,2.44,53
-1.68,1.26,21.04,-1.27,-5.08,1.76,5.21,1.28,19.22,0.78,1.81,-4.88,-13.74,13.63,7.96,-3.32,1.32,-2.15,53
-2.23,0.29,20.86,0.05,4.15,-1.86,6.61,2.32,19.44,-5.18,3.71,-0.98,-13.73,13.64,8.35,-1.56,1.27,-0.98,53
-0.67,1.93,21.47,2.98,-11.82,3.81,6.53,2.75,19.21,0.78,4.35,-4.0,-13.51,14.05,8.19,-0.63,1.03,-1.32,53
-1.27,1.29,21.22,2.73,-5.81,4.35,6.54,2.4,19.39,2.1,3.22,-1.61,-13.99,14.04,8.26,-0.1,1.81,-1.51,53
-1.16,1.13,21.37,3.56,-5.52,1.95,5.4,3.02,19.25,2.2,0.63,-1.12,-13.57,14.16,8.23,0.63,1.71,-0.34,53
-2.0,1.51,21.11,4.1,-0.73,0.98,5.51,2.47,19.28,0.63,4.35,-2.78,-12.57,14.45,8.91,-1.22,2.64,0.1,53
-1.54,1.76,21.24,1.76,1.46,1.51,6.17,3.14,19.36,-0.88,-2.34,-0.83,-13.13,14.14,8.4,5.62,1.81,1.22,53
-1.41,1.42,21.01,-1.76,-2.05,1.71,6.17,3.02,19.35,3.42,-1.32,4.83,-13.44,13.48,8.67,2.83,0.88,-0.44,53
-19.17,2.28,-4.8,-35.06,-18.31,-7.37,-25.98,7.14,-4.51,-4.49,-175.05,33.84,-1.22,16.37,17.09,-21.97,-40.82,38.62,54
-26.57,2.81,-7.18,-41.6,-141.36,23.14,1.88,8.84,11.38,-145.85,-392.09,63.13,-2.06,15.33,15.81,-4.83,-1.46,8.35,54
-11.19,4.83,3.85,-143.9,-380.76,59.28,13.01,-7.5,18.07,-78.37,-170.12,-15.19,-6.95,13.6,14.46,-10.4,29.35,0.88,54
-7.31,1.88,15.16,-76.76,-168.46,-39.6,17.46,-5.66,18.49,-32.57,-60.99,19.38,-6.66,12.89,14.73,-1.07,10.74,-0.78,54
11.31,-0.73,21.79,11.08,-113.82,-26.86,13.05,-2.96,16.72,7.52,14.26,-0.05,-4.41,13.89,15.25,-2.59,1.95,-1.12,54
11.17,-4.01,19.81,2.88,-14.26,7.37,9.93,-1.49,16.89,4.25,12.74,8.74,-4.33,14.21,15.71,8.15,5.81,-4.98,54
8.44,-3.28,20.06,3.12,-5.32,12.16,9.59,-1.81,17.76,1.42,-0.05,2.39,-7.47,12.56,14.48,5.71,8.45,-3.03,54
5.56,-2.61,19.82,4.35,3.61,4.44,10.09,-2.96,18.07,4.05,-0.39,3.27,-8.92,11.01,14.21,-5.71,13.23,-0.54,54
5.3,-2.4,19.96,-1.51,6.45,0.59,9.41,-2.1,18.04,7.47,16.65,0.98,-6.99,12.14,14.65,-7.91,1.81,-0.44,54
6.18,-3.32,20.35,5.42,4.49,4.3,8.45,-1.03,18.19,4.78,11.43,-5.76,-6.21,11.77,15.36,-6.05,3.66,0.0,54
4.53,-2.94,19.74,3.56,16.85,9.13,10.05,-0.69,17.8,-22.51,50.54,-8.45,-6.22,12.8,15.64,1.12,10.55,-0.34,54
4.31,-3.01,20.24,5.08,2.59,5.57,3.24,-2.27,19.66,-17.09,15.33,-6.25,-6.99,12.48,15.15,10.35,16.46,-4.35,54
4.86,-3.34,19.99,-5.03,-9.47,-3.61,4.95,-2.14,20.46,-9.86,-6.69,1.81,-8.42,13.99,13.77,3.32,14.21,-2.05,54
4.42,-2.4,20.6,2.78,-1.42,0.83,4.8,-2.88,20.86,-4.1,4.59,5.86,-7.48,12.39,14.88,2.88,4.88,0.83,54
4.84,-3.39,20.8,-0.78,9.38,0.59,3.53,-2.32,20.15,-8.74,1.07,5.22,-7.62,13.04,14.44,6.15,-4.0,0.88,54
4.91,-3.21,20.97,2.39,12.35,2.78,4.45,-2.0,20.32,19.58,-24.8,12.26,-9.02,12.6,13.66,-1.71,15.23,0.93,54
2.44,-2.58,20.79,-4.0,10.45,10.79,3.07,-2.28,20.4,16.45,-17.09,13.18,-8.98,12.51,13.63,0.73,4.44,-1.9,54
2.31,-4.52,20.75,4.35,-3.61,0.0,5.66,-2.27,20.31,11.03,4.2,2.29,-9.8,10.98,13.82,-8.79,4.83,1.37,54
1.63,-3.11,20.93,5.22,-2.25,2.05,4.11,-1.62,20.52,-1.76,0.88,4.1,-7.49,12.81,15.0,-0.39,1.32,-1.17,54
3.56,-1.73,21.7,9.96,-4.39,9.28,2.74,-1.87,20.07,1.37,6.25,-1.95,-8.29,13.56,14.08,1.71,7.28,-1.12,54
-17.4,-1.49,13.94,47.41,171.53,-14.16,-20.52,2.62,3.85,-13.72,26.42,7.47,-17.89,9.87,5.08,13.92,16.65,-16.8,55
-21.0,-1.74,6.92,15.43,166.85,0.39,-20.35,3.25,2.91,-6.01,17.72,8.94,-17.12,9.66,4.75,2.73,10.79,-10.21,55
-19.77,1.01,2.21,-13.87,46.19,8.64,-21.55,5.06,1.25,-13.23,-0.68,0.49,-18.28,10.21,3.54,-1.17,2.0,-3.71,55
-20.89,-0.38,0.72,-21.88,41.31,8.84,-22.74,6.52,0.51,-4.44,-29.64,-2.0,-18.79,8.85,3.74,-7.03,-9.72,1.17,55
-20.65,1.05,0.94,-8.98,24.51,8.74,-24.41,6.46,0.87,48.1,-35.4,-5.37,-19.58,6.88,4.21,-17.82,-19.97,-14.75,55
-21.48,2.26,-0.0,-11.38,9.33,-0.83,-24.84,1.41,4.68,-0.29,-53.42,-9.42,-20.08,9.89,5.98,-23.14,-6.4,-1.27,55
-21.54,3.67,0.57,-1.47,-22.27,-7.91,-13.02,0.35,12.8,-58.35,-125.29,7.42,-19.3,12.76,7.28,-32.42,0.15,8.98,55
-20.27,6.57,2.32,4.35,-76.27,-22.41,-10.42,-0.84,19.48,-33.55,-95.02,-26.27,-16.95,7.9,7.91,-5.62,-45.51,31.79,55
-24.51,-2.18,3.28,7.96,-68.51,-8.4,-10.69,-1.34,19.1,6.54,-55.22,-3.81,-15.22,11.78,11.04,8.79,-24.76,16.41,55
-21.24,-3.7,9.54,-58.59,-78.96,-7.81,-4.05,-2.67,19.53,-16.16,-79.54,-7.52,-14.44,12.52,11.04,-8.98,-22.85,23.44,55
-16.25,-1.99,13.69,-7.96,-95.61,-33.98,-2.08,-3.23,21.61,-11.13,-36.28,-8.94,-14.26,11.92,11.71,0.59,-15.38,21.58,55
-15.39,-3.56,17.36,17.24,-51.61,-14.06,-1.13,-2.3,21.62,-2.78,-28.08,-4.25,-10.71,13.69,12.82,7.62,-12.7,15.97,55
-11.96,-4.98,17.34,-7.23,-60.84,-12.79,-0.31,-2.78,20.97,-2.73,-17.29,-0.1,-9.84,13.91,12.67,4.83,-3.56,10.5,55
-10.31,-4.37,19.18,-8.55,-34.08,-6.4,0.41,-2.54,21.27,-7.67,-17.63,1.61,-9.02,14.5,12.82,2.34,-3.03,10.5,55
-8.24,-4.17,20.41,4.78,-24.22,-4.88,1.34,-3.16,21.46,-8.01,-16.46,5.08,-8.63,14.5,12.8,-0.0,-0.2,5.42,55
-6.54,-4.19,20.44,0.49,-16.8,0.2,0.27,-2.8,21.06,0.68,-10.64,0.68,-8.58,14.25,12.92,3.76,-0.88,4.98,55
-5.47,-3.96,20.92,-0.44,-16.5,1.51,1.03,-2.71,21.09,1.27,-8.3,-1.07,-8.62,14.16,12.64,2.49,-2.29,4.15,55
-4.86,-3.93,21.05,-2.98,-8.89,1.17,1.23,-2.83,21.32,-0.29,-4.64,1.71,-8.05,14.51,12.76,1.56,1.86,4.59,55
-5.94,-4.17,20.49,5.08,-2.88,2.34,2.37,-1.97,21.23,3.12,-10.06,4.1,-6.76,14.97,12.89,6.35,-2.64,6.45,55
-5.36,-4.76,20.75,3.95,-10.69,-0.34,1.89,-2.86,21.04,0.98,-5.76,1.76,-7.11,14.77,12.61,4.69,-2.83,3.42,55
-13.19,1.62,14.27,28.66,121.44,-2.15,-20.37,6.44,2.7,8.4,40.77,-9.86,-17.85,7.62,3.37,9.08,16.26,-25.68,56
-15.7,2.61,9.9,12.21,118.36,-17.63,-17.42,5.72,2.42,-13.09,44.63,-27.73,-19.37,6.76,1.97,6.35,9.81,-14.16,56
-18.73,3.28,5.62,12.45,82.18,-16.06,-26.8,6.98,-4.24,1.71,-73.73,15.92,-20.63,7.62,1.07,7.62,-49.41,13.77,56
-20.55,3.48,1.32,3.08,37.74,-3.86,-27.46,6.81,2.38,-10.11,-108.4,7.52,-17.57,9.95,5.34,-6.84,-39.4,28.76,56
-18.67,2.99,2.2,4.3,43.12,-24.02,-22.23,4.1,13.23,-4.25,-131.49,13.96,-14.63,14.06,8.67,-13.62,-42.63,35.45,56
-22.78,2.87,-5.21,-9.86,-45.12,-1.32,-14.44,7.27,17.19,-23.24,-121.78,25.49,-10.68,12.2,11.46,-32.62,-41.94,43.9,56
-25.03,2.6,1.09,-26.17,-79.54,2.15,-3.74,2.69,19.43,-47.9,-125.93,18.36,-9.96,12.23,11.06,-12.55,-32.67,34.72,56
-22.28,-0.16,11.37,0.29,-144.63,9.47,8.28,-2.65,22.51,-69.48,-102.59,8.2,-8.99,13.67,11.62,-13.18,-24.9,30.42,56
-14.48,3.52,15.18,-7.72,-138.09,24.71,8.01,-5.4,21.97,-28.66,-55.62,-0.63,-7.33,13.12,13.06,-3.03,-18.9,20.02,56
-8.46,1.41,17.44,-26.42,-117.58,1.46,8.15,-5.78,21.63,-2.98,-17.38,-2.98,-6.34,13.33,13.77,-0.83,-16.8,22.36,56
-0.46,-1.34,21.15,-62.26,-113.87,-15.43,5.57,-2.34,20.96,40.72,28.91,-1.56,-4.24,13.59,14.02,7.37,-17.87,25.24,56
1.35,-4.28,21.56,-28.81,-89.6,-13.67,5.5,-0.25,20.4,5.81,-4.74,0.54,-2.97,14.23,13.76,4.44,-3.71,14.7,56
1.35,-4.15,22.22,-7.57,-74.71,-14.01,6.11,-0.79,19.65,-3.86,-2.98,1.61,-2.01,15.52,13.92,3.56,4.79,2.49,56
3.87,-4.54,22.29,31.1,-41.7,8.35,5.49,-1.61,19.87,2.64,5.03,0.93,-2.74,14.78,13.48,3.08,4.35,0.68,56
1.95,-1.68,21.28,5.13,-7.67,1.9,6.27,-1.87,20.15,-3.13,-0.34,3.61,-1.97,15.3,13.91,0.68,7.42,0.44,56
2.65,-1.04,21.58,-2.64,-3.32,1.37,6.21,-1.18,20.12,5.03,17.77,-1.46,-2.31,15.17,13.48,2.29,1.17,1.66,56
2.85,-1.46,21.15,-2.49,7.03,-3.76,7.29,-2.34,21.33,-1.61,3.86,1.42,-2.25,14.79,13.44,0.78,0.05,3.37,56
2.41,-1.04,21.58,-3.13,-8.98,5.32,6.38,-0.6,20.35,-4.15,1.71,0.98,-1.96,15.35,13.57,2.34,2.59,-2.69,56
3.2,-1.24,22.06,2.15,0.93,0.88,5.51,-0.35,20.14,-5.91,-9.52,-4.74,-2.15,14.52,13.38,-1.37,0.29,-2.39,56
2.51,-1.36,21.96,-0.88,-10.84,-0.88,6.98,-0.6,20.52,1.71,-2.25,-1.27,-2.48,14.68,13.51,-2.49,2.59,1.32,56
-19.5,1.41,8.46,34.03,144.78,-23.93,4.77,-7.19,19.75,60.79,156.69,6.49,-6.04,17.65,12.85,50.83,58.64,-55.52,57
-20.44,4.33,4.31,43.26,92.77,-12.84,-8.93,5.19,15.56,56.88,212.01,-62.01,-9.8,15.22,8.94,20.7,40.38,-40.14,57
-23.88,2.36,-0.23,-5.62,34.47,11.57,-18.88,3.47,9.03,21.53,135.55,-36.82,-11.21,14.14,7.55,36.87,14.36,-40.23,57
-24.31,2.7,-2.69,-9.38,-6.35,5.13,-21.93,5.15,3.45,23.93,114.45,-23.1,-12.16,16.64,7.41,36.23,17.58,-46.44,57
-23.12,1.91,-2.09,-2.88,-57.62,4.79,-23.25,3.93,0.56,1.51,23.58,17.58,-16.59,12.85,4.7,2.83,43.07,-36.23,57
-24.59,0.25,3.44,-7.23,-129.35,4.1,-22.56,3.42,0.37,5.13,-19.53,12.6,-19.21,10.12,2.04,-11.08,36.62,-23.83,57
-31.36,0.33,5.35,-9.72,-56.1,9.23,-16.85,3.12,3.02,3.61,-66.26,5.42,-18.23,10.14,1.96,-15.09,4.79,6.4,57
