ACC-X,ACC-Y,ACC-Z,GYRO-X,GYRO-Y,GYRO-Z,TEST
0.314,-0.209,1.313,162.631,-18.691,8.144,1
0.216,-0.362,0.685,206.526,-7.541,-15.309,1
0.228,-0.560,0.772,189.555,-28.114,-2.391,1
0.299,-0.457,0.841,164.936,-16.245,9.388,1
0.218,-0.436,0.808,109.343,-10.311,-11.060,1
0.215,-0.592,0.733,113.359,-2.938,-22.217,1
0.206,-0.713,0.709,168.288,-19.806,1.167,1
0.242,-0.521,0.841,159.244,-43.939,11.011,1
0.197,-0.682,0.674,154.739,-17.792,-12.615,1
0.255,-0.699,0.701,133.508,-18.043,-6.536,1
0.205,-0.690,0.625,122.927,-11.605,-12.200,1
0.185,-0.857,0.584,159.558,-16.029,-18.245,1
0.147,-0.876,0.536,249.653,-35.091,-2.736,1
0.157,-0.821,0.587,276.087,-36.386,8.006,1
0.170,-0.851,0.450,272.002,-13.404,-1.355,1
0.191,-0.847,0.358,248.186,-15.418,-0.836,1
0.160,-0.925,0.291,211.380,-7.253,-9.575,1
0.166,-0.880,0.219,179.672,0.947,-13.616,1
0.171,-0.911,0.152,180.511,-4.736,-34.790,1
0.111,-1.014,0.108,184.526,2.745,-22.908,1
0.123,-1.010,0.051,200.031,0.659,-17.485,1
0.118,-0.988,-0.032,266.100,3.752,-6.985,1
0.138,-0.953,-0.140,282.059,5.047,-9.782,1
0.141,-0.947,-0.243,276.157,2.709,-9.679,1
0.153,-0.947,-0.351,234.672,5.479,-11.440,1
0.124,-0.909,-0.318,195.387,5.982,-10.335,1
0.129,-0.766,-0.379,238.862,6.090,-11.751,1
0.116,-0.882,-0.490,282.373,11.233,-18.176,1
0.092,-0.833,-0.617,275.354,12.456,-12.684,1
0.111,-0.746,-0.673,254.611,11.053,-13.789,1
0.109,-0.732,-0.762,228.910,16.880,-10.888,1
0.081,-0.690,-0.835,199.263,16.736,-7.019,1
0.120,-0.555,-0.855,220.983,8.967,-1.527,1
0.089,-0.516,-0.844,223.462,8.176,-12.442,1
0.076,-0.558,-0.847,200.415,7.780,-12.580,1
0.071,-0.472,-0.906,174.015,14.290,-3.531,1
0.057,-0.472,-0.868,191.056,8.428,-0.836,1
0.061,-0.323,-0.962,179.638,12.060,0.787,1
0.064,-0.327,-0.940,171.466,10.442,1.789,1
0.059,-0.265,-0.946,167.381,8.140,0.891,1
0.060,-0.272,-0.944,169.266,14.218,5.070,1
0.059,-0.112,-0.934,179.184,20.548,12.496,1
0.064,-0.081,-1.074,168.114,15.010,4.690,1
0.100,0.012,-1.023,161.235,11.773,4.655,1
0.051,0.042,-0.966,149.187,10.082,-6.190,1
0.041,0.093,-1.002,150.409,13.391,-10.059,1
0.031,0.045,-0.970,155.543,9.255,-7.157,1
0.014,0.080,-1.044,148.943,10.010,1.512,1
0.029,0.215,-1.019,141.505,8.032,7.591,1
0.038,0.243,-0.975,130.191,7.061,4.863,1
0.045,0.201,-0.910,129.213,10.945,5.554,1
0.030,0.324,-0.969,124.568,8.068,9.008,1
0.027,0.323,-0.990,116.502,7.601,3.619,1
0.022,0.374,-0.934,99.880,2.745,1.685,1
0.025,0.425,-0.986,96.458,8.284,2.963,1
0.017,0.461,-0.990,80.569,3.608,3.377,1
0.008,0.400,-0.985,64.156,-0.348,1.650,1
0.020,0.493,-0.962,44.601,-1.894,3.757,1
0.017,0.475,-0.965,24.557,-2.326,-0.871,1
0.021,0.490,-1.017,-7.779,-1.355,-0.733,1
0.026,0.401,-0.967,-33.166,-6.031,0.442,1
0.022,0.369,-0.979,-52.268,-7.433,7.799,1
0.029,0.385,-0.954,-82.020,-11.174,17.539,1
0.039,0.345,-0.969,-113.832,-8.512,21.442,1
0.013,0.339,-1.037,-155.527,-5.491,25.414,1
0.036,0.346,-1.002,-178.050,-6.210,28.661,1
0.025,0.289,-0.990,-194.672,-9.519,24.067,1
0.011,0.217,-0.998,-177.911,-15.849,17.125,1
0.033,0.118,-0.970,-201.377,-10.958,16.952,1
0.043,0.146,-1.004,-172.952,-5.275,13.705,1
0.014,-0.030,-0.948,-151.686,-9.699,11.184,1
0.053,0.070,-0.995,-126.264,-8.584,7.557,1
0.054,-0.060,-0.937,-117.010,-8.980,2.134,1
0.061,-0.106,-0.946,-107.092,-3.297,7.971,1
0.042,-0.091,-0.981,-112.889,-2.002,2.687,1
0.050,-0.156,-1.004,-132.898,-2.038,1.547,1
0.032,-0.236,-0.970,-130.978,-5.455,-0.284,1
0.056,-0.279,-0.938,-134.854,-4.017,3.965,1
0.069,-0.272,-0.970,-137.683,-1.031,5.450,1
0.067,-0.283,-0.939,-166.457,-1.787,-3.738,1
0.052,-0.375,-0.922,-183.952,0.156,-2.702,1
0.037,-0.443,-0.890,-215.590,4.615,-9.402,1
0.055,-0.550,-0.834,-247.332,6.845,-7.537,1
-0.041,-0.737,-0.381,-286.094,107.191,37.054,1
-0.018,-0.758,-0.620,-345.772,201.099,60.369,1
-0.058,-0.765,-0.930,-316.195,170.132,56.777,1
-0.058,-0.716,-0.880,-292.589,75.829,33.428,1
-0.023,-0.771,-0.607,-288.992,31.266,9.111,1
-0.061,-0.896,-1.289,-296.989,-126.122,-21.112,1
-0.111,-0.934,-0.621,-239.719,-302.753,5.035,1
0.011,-0.852,0.148,-313.855,-262.794,18.161,1
0.083,-0.788,0.250,-343.572,-80.481,-6.950,1
0.002,-0.977,-0.035,-376.048,-8.656,-25.740,1
0.029,-1.021,0.141,-366.899,-11.426,-21.975,1
0.003,-0.935,0.420,-359.426,22.419,-21.871,1
0.011,-0.930,0.320,-351.848,53.745,-29.678,1
0.016,-0.933,0.243,-303.903,33.568,-28.400,1
-0.033,-0.936,0.396,-192.053,0.623,-13.789,1
0.010,-0.820,0.578,-120.641,-8.117,-0.422,1
0.025,-0.806,0.550,-137.473,9.938,-15.689,1
0.002,-0.845,0.515,-142.641,13.067,-17.243,1
0.013,-0.824,0.563,-129.127,6.234,-9.610,1
-0.013,-0.764,0.689,-101.261,0.803,-1.907,1
-0.007,-0.749,0.695,-83.172,9.435,-2.563,1
0.026,-0.723,0.644,-124.902,14.758,-8.988,1
0.010,-0.756,0.644,-151.895,10.442,-9.782,1
-0.013,-0.669,0.750,-151.232,1.990,-1.493,1
0.002,-0.601,0.792,-153.676,4.759,-3.116,1
0.003,-0.516,0.836,-189.923,10.190,-7.503,1
0.015,-0.525,0.892,-208.291,19.398,-18.832,1
0.003,-0.505,0.826,-200.155,25.440,-19.903,1
-0.002,-0.483,0.860,-156.435,10.154,-11.820,1
0.015,-0.416,0.914,-133.562,7.529,-2.114,1
0.009,-0.332,0.886,-101.121,3.824,0.027,1
0.007,-0.274,0.963,-106.918,-2.038,-2.494,1
0.015,-0.277,0.996,-103.566,11.377,-10.266,1
0.013,-0.249,0.920,-89.842,11.125,-10.197,1
0.022,-0.234,0.955,-79.959,3.752,-10.093,1
0.014,-0.219,0.968,-54.014,2.817,-9.022,1
0.013,-0.204,0.952,-60.404,4.148,-13.893,1
0.021,-0.164,0.992,-74.023,5.263,-13.236,1
0.116,-0.128,0.953,-75.140,12.636,-21.284,1
0.002,-0.146,0.979,-86.350,7.529,-26.120,1
-0.010,-0.142,0.977,-57.296,6.162,-18.901,1
0.048,-0.062,0.936,-15.252,1.810,-5.430,1
0.024,-0.062,0.949,-19.373,-6.139,-13.409,1
0.036,-0.052,1.023,-30.512,-6.103,-16.587,1
0.017,-0.112,1.072,-62.325,7.780,-23.080,1
0.013,-0.160,0.952,-63.163,17.491,-4.567,1
0.019,-0.022,0.959,-55.376,5.838,3.619,1
0.023,0.009,0.968,-38.754,5.119,3.274,1
0.028,0.037,0.992,-34.004,1.990,2.238,1
0.017,0.032,1.001,-35.157,3.069,-4.429,1
0.044,-0.038,1.026,-44.725,4.436,-4.843,1
0.017,-0.033,0.991,-43.817,6.773,3.654,1
0.028,0.022,1.004,-31.700,6.126,8.144,1
0.028,0.066,0.994,-26.043,9.866,11.840,1
0.037,0.108,0.959,-16.440,7.888,10.147,1
0.051,0.075,0.992,-21.678,6.234,4.759,1
0.041,0.043,1.016,-25.309,5.011,4.310,1
0.036,0.074,0.980,-24.541,14.039,7.626,1
0.020,0.088,0.976,-18.954,5.299,6.521,1
0.025,0.107,0.981,-19.128,7.637,6.348,1
0.057,0.019,0.991,-21.014,6.558,3.101,1
0.061,0.043,0.937,-12.109,5.443,7.246,1
0.045,0.129,1.021,4.373,-6.570,13.601,1
0.038,0.177,1.080,-8.059,4.040,5.864,1
0.030,0.101,0.974,-13.681,7.133,-0.767,1
0.039,0.105,0.992,-1.808,-0.384,3.343,1
0.041,0.128,1.007,-4.671,4.400,1.443,1
0.059,0.080,0.954,-2.681,7.816,3.861,1
0.056,0.136,0.952,1.719,1.414,6.348,1
0.052,0.144,0.986,12.055,-0.816,4.414,1
0.044,0.111,0.941,14.186,-3.225,2.307,1
0.038,0.109,1.041,3.430,-4.052,2.341,1
0.047,0.082,0.968,10.309,2.026,1.927,1
0.051,0.077,0.976,6.503,-2.578,5.139,1
0.044,0.122,1.009,4.582,-0.024,5.001,1
0.049,0.090,0.961,8.982,1.271,2.410,1
0.044,0.097,1.023,-6.697,-1.679,1.167,1
0.048,0.069,1.020,-4.636,8.068,3.032,1
0.045,0.090,0.943,-0.306,1.810,4.276,1
0.050,0.120,1.011,1.509,-1.175,4.517,1
0.039,0.125,0.972,5.455,1.055,1.720,1
0.063,0.081,0.989,5.386,-3.009,-0.007,1
0.050,0.068,0.991,3.744,4.472,3.447,1
0.048,0.103,0.968,6.119,-3.009,3.999,1
0.062,0.094,1.033,-0.306,3.213,4.241,1
0.024,0.109,0.942,1.894,2.529,5.519,1
0.046,0.137,1.008,3.290,-1.894,1.443,1
0.058,0.075,0.945,7.341,0.623,0.822,1
0.035,0.090,0.971,3.779,-5.923,2.894,1
0.039,0.109,1.025,8.808,-4.160,1.996,1
0.049,0.076,0.973,8.738,-4.340,0.027,1
0.038,0.096,1.055,4.443,-1.247,1.927,1
0.041,0.107,1.017,2.522,3.716,-1.562,1
0.049,0.031,0.981,0.671,4.436,-2.667,1
0.046,0.054,0.961,4.687,3.824,3.792,1
0.053,0.090,0.977,5.630,-0.708,3.930,1
0.039,0.083,0.987,1.929,-1.139,3.412,1
0.046,0.110,1.018,5.071,-1.031,2.169,1
0.034,0.110,1.009,0.287,3.249,-1.907,1
0.047,0.061,0.981,-0.341,2.997,-2.667,1
0.045,0.048,0.976,-0.865,2.278,-0.836,1
0.058,0.067,0.981,0.462,0.192,0.718,1
0.040,0.075,0.985,1.649,0.875,3.136,1
0.059,0.107,0.977,4.303,-0.204,2.376,1
0.038,0.072,0.986,-1.424,0.407,0.131,1
0.005,0.097,0.994,4.024,0.947,-0.007,1
0.073,0.084,0.966,-5.859,2.889,-5.914,1
0.063,0.055,0.986,1.719,-0.564,3.170,1
0.041,0.087,0.977,-0.691,0.407,0.407,1
0.059,0.117,1.034,0.392,-0.060,0.303,1
0.046,0.023,0.975,-4.043,3.357,-2.184,1
0.043,0.060,0.986,3.116,0.947,3.205,1
0.042,0.070,1.001,-2.576,2.170,2.065,1
0.042,0.085,0.953,-2.960,1.271,1.029,1
0.058,0.085,0.984,1.021,-2.146,0.338,1
0.049,0.075,0.993,-0.481,2.350,1.201,1
0.047,0.105,0.990,2.033,-0.420,0.200,1
0.163,0.629,-0.836,144.228,-5.419,25.345,2
0.174,0.726,-0.828,124.464,-9.088,21.269,2
0.158,0.662,-0.829,104.838,-14.339,15.950,2
0.162,0.721,-0.580,94.502,-12.289,16.814,2
0.146,0.740,-0.633,79.696,8.248,18.886,2
0.160,0.833,-0.696,79.870,7.924,20.751,2
0.154,0.879,-0.763,65.134,7.888,12.254,2
0.146,0.863,-0.775,57.137,0.084,6.659,2
0.153,0.853,-0.656,47.953,-9.340,1.374,2
0.139,0.788,-0.610,30.668,7.025,0.062,2
0.113,0.705,-0.691,28.154,7.169,2.583,2
0.123,0.757,-0.664,33.741,1.342,5.830,2
0.143,0.780,-0.669,28.468,2.098,6.279,2
0.152,0.758,-0.647,26.303,-1.499,3.930,2
0.127,0.731,-0.623,16.036,-1.499,3.688,2
0.113,0.678,-0.614,15.547,1.055,8.489,2
0.123,0.764,-0.602,16.385,3.536,12.531,2
0.133,0.793,-0.628,15.408,-0.348,11.425,2
0.074,0.799,-0.627,9.436,-0.060,6.693,2
0.127,0.812,-0.606,7.446,-0.780,7.695,2
0.117,0.751,-0.503,7.097,-1.391,6.590,2
0.108,0.792,-0.600,3.325,4.508,10.182,2
0.127,0.850,-0.616,9.297,1.990,9.284,2
0.130,0.875,-0.618,10.274,1.450,4.379,2
0.125,0.850,-0.615,3.675,0.299,-1.700,2
0.103,0.762,-0.586,1.824,0.299,-1.078,2
0.107,0.806,-0.596,2.417,-0.851,2.099,2
0.114,0.770,-0.589,3.221,1.127,1.547,2
0.113,0.823,-0.596,6.468,-0.995,2.894,2
0.121,0.826,-0.583,10.484,-0.887,1.927,2
0.105,0.796,-0.590,11.671,-0.276,-1.389,2
0.103,0.806,-0.549,6.503,-0.456,2.583,2
0.105,0.798,-0.592,2.313,3.752,3.619,2
0.119,0.838,-0.565,6.782,3.033,4.103,2
0.119,0.831,-0.560,10.484,1.666,1.271,2
0.122,0.845,-0.594,9.611,1.378,-1.285,2
0.103,0.802,-0.606,4.967,-1.463,-0.526,2
0.104,0.787,-0.611,-2.017,1.342,1.132,2
0.115,0.792,-0.600,-4.392,-0.060,1.961,2
0.104,0.780,-0.609,-6.313,-1.283,2.376,2
0.099,0.800,-0.607,-6.173,-2.218,2.928,2
0.100,0.793,-0.611,-11.446,-2.182,4.345,2
0.117,0.882,-0.610,-24.855,-1.319,0.372,2
0.120,0.862,-0.596,-30.966,-3.297,-1.216,2
0.120,0.856,-0.633,-45.144,1.091,-2.702,2
0.102,0.809,-0.654,-57.401,-2.506,-2.287,2
0.100,0.765,-0.637,-59.426,-3.477,0.338,2
0.125,0.821,-0.597,-64.001,-2.182,-2.253,2
0.115,0.758,-0.649,-70.636,6.198,-2.909,2
0.128,0.783,-0.607,-91.343,12.348,-3.807,2
0.114,0.702,-0.782,-107.931,13.103,-5.499,2
0.114,0.678,-0.779,-120.083,4.400,-3.496,2
0.089,0.694,-0.691,-111.318,0.695,1.374,2
0.116,0.661,-0.760,-119.140,9.902,-4.221,2
0.126,0.660,-0.797,-129.791,18.247,-11.095,2
0.110,0.597,-0.851,-133.771,11.557,-16.587,2
0.074,0.399,-0.913,-135.273,8.931,-16.310,2
0.088,0.438,-0.852,-138.590,0.803,-3.634,2
0.116,0.379,-0.900,-123.330,5.155,1.029,2
0.126,0.489,-0.881,-133.737,8.644,-2.356,2
0.103,0.387,-1.028,-153.432,7.960,-8.953,2
0.085,0.248,-0.968,-148.613,-5.599,-8.884,2
0.105,0.301,-0.937,-172.428,-4.664,-1.838,2
0.114,0.254,-0.952,-188.038,-1.355,-3.876,2
0.143,0.247,-0.997,-198.339,2.134,-8.263,2
0.165,0.212,-1.029,-200.015,-4.268,-13.305,2
0.115,0.089,-1.027,-220.828,-7.829,-25.567,2
0.086,-0.167,-0.899,-225.612,-10.742,-16.241,2
0.099,-0.237,-0.885,-220.793,5.155,-0.698,2
0.139,-0.084,-1.008,-197.571,7.205,10.113,2
0.132,-0.135,-0.942,-204.031,-3.009,-5.983,2
0.115,-0.233,-0.919,-236.507,1.918,-17.278,2
0.086,-0.441,-0.924,-271.183,1.846,-22.355,2
0.095,-0.551,-0.832,-256.621,5.838,-9.161,2
0.122,-0.526,-0.902,-285.290,17.887,-1.320,2
0.128,-0.558,-0.860,-299.398,7.744,-6.501,2
0.108,-0.591,-0.747,-356.318,2.386,-13.789,2
0.046,-0.778,-0.618,-383.486,-2.218,-24.324,2
0.077,-0.847,-0.413,-404.019,1.522,-17.174,2
0.089,-0.877,-0.308,-373.883,15.513,-11.958,2
0.104,-0.904,-0.312,-346.540,23.929,-14.756,2
0.073,-0.967,-0.226,-307.954,19.901,-10.646,2
0.050,-1.001,-0.087,-260.567,8.500,-8.090,2
0.051,-0.942,-0.051,-265.910,8.680,-8.366,2
0.072,-1.000,0.023,-280.751,10.298,-12.960,2
0.061,-0.936,0.087,-308.373,6.126,-11.648,2
0.051,-0.914,0.273,-320.699,-0.744,-18.038,2
0.019,-0.966,0.471,-244.678,1.702,-15.965,2
0.052,-0.906,0.406,-179.657,13.931,-6.466,2
0.040,-0.900,0.441,-174.035,7.709,-13.513,2
0.047,-0.918,0.475,-182.974,13.067,-9.921,2
0.029,-0.823,0.521,-201.936,9.579,-5.948,2
0.039,-0.805,0.586,-185.523,5.622,-6.294,2
0.043,-0.725,0.609,-138.730,4.328,-5.603,2
0.036,-0.717,0.665,-133.143,-0.492,-11.958,2
0.031,-0.714,0.723,-121.165,4.939,-8.815,2
0.034,-0.699,0.715,-115.334,7.313,-8.021,2
0.048,-0.733,0.712,-98.327,4.723,-1.527,2
0.034,-0.630,0.744,-117.010,4.220,3.930,2
0.039,-0.586,0.762,-117.708,2.781,-1.700,2
0.019,-0.552,0.823,-131.781,-0.851,-5.430,2
0.047,-0.563,0.856,-115.543,3.500,-7.744,2
0.059,-0.617,0.822,-146.482,7.097,-5.568,2
0.048,-0.502,0.842,-150.813,7.924,3.067,2
0.044,-0.446,0.883,-148.578,1.127,-1.424,2
0.012,-0.411,0.926,-141.349,4.687,1.201,2
0.041,-0.306,0.969,-96.197,3.752,2.721,2
0.033,-0.306,0.924,-104.334,9.327,-5.465,2
0.044,-0.299,0.979,-111.807,9.759,-9.955,2
0.042,-0.267,0.939,-113.203,14.075,-11.337,2
0.037,-0.197,0.980,-132.130,10.910,-14.618,2
0.052,-0.125,1.039,-130.559,18.283,-16.449,2
0.059,-0.127,0.966,-112.750,21.915,-21.492,2
0.063,-0.110,0.922,-108.769,15.837,-24.220,2
0.064,-0.103,0.932,-80.553,3.464,-22.010,2
0.055,-0.076,1.006,-69.972,-2.938,-20.732,2
0.052,0.020,0.995,-54.957,0.767,-18.901,2
0.057,0.047,1.033,-53.734,0.228,-27.881,2
0.064,0.041,1.007,-57.925,8.859,-36.482,2
0.059,-0.025,1.000,-63.372,6.522,-41.214,2
0.048,0.014,1.016,-38.823,5.910,-31.508,2
0.074,-0.007,0.975,-27.195,4.543,-25.084,2
0.064,0.007,1.042,-30.408,4.040,-19.177,2
0.056,0.079,0.988,-28.312,7.960,-15.102,2
0.057,0.084,1.013,-25.205,-0.096,-16.932,2
0.073,0.025,1.002,-10.294,5.694,-8.712,2
0.080,0.043,0.931,2.103,-1.607,-2.598,2
0.069,0.028,1.013,-7.605,-6.822,2.894,2
0.071,0.072,1.017,-5.090,0.012,3.585,2
0.056,0.115,0.999,-3.344,-0.132,5.277,2
0.073,0.116,0.993,-2.017,0.839,-0.526,2
0.067,0.102,0.980,-16.684,2.781,-4.463,2
0.067,0.072,0.984,-27.824,5.047,-6.536,2
0.067,0.104,0.994,-16.160,2.925,-2.874,2
0.075,0.076,1.001,-10.992,0.731,-4.636,2
0.070,0.067,0.970,0.881,1.307,0.372,2
0.070,0.115,0.983,-4.148,-2.038,2.307,2
0.075,0.118,1.045,1.405,-1.031,-0.215,2
0.073,0.094,0.908,0.776,6.845,-0.215,2
0.081,0.106,0.948,16.630,-1.607,1.892,2
0.077,0.101,0.998,2.836,-1.643,1.996,2
0.082,0.104,0.973,14.116,0.695,1.029,2
0.068,0.106,0.978,13.732,-1.067,-0.940,2
0.080,0.085,1.007,4.128,-1.571,-4.670,2
0.065,0.067,1.012,-0.271,4.220,-1.596,2
0.068,0.082,0.967,-6.417,4.903,-1.355,2
0.069,0.088,0.982,4.024,0.659,-1.320,2
0.171,0.054,1.255,83.048,29.900,4.828,2
0.083,0.121,0.769,-7.884,37.273,-6.190,2
0.094,0.031,1.088,25.954,-12.433,-1.182,2
0.086,0.066,0.994,19.773,20.441,-7.848,2
0.103,0.065,0.969,31.681,9.219,-2.563,2
0.099,0.003,0.899,1.579,6.917,-4.912,2
0.109,0.039,0.968,5.036,-6.930,0.994,2
0.092,0.038,1.029,-2.995,-1.139,0.407,2
0.094,0.063,1.005,-8.233,5.982,0.752,2
0.103,0.059,0.982,-7.186,6.558,-0.318,2
0.100,-0.022,0.963,-8.129,6.665,-0.802,2
0.102,0.015,0.943,-10.922,2.062,8.386,2
0.105,0.021,0.955,-7.919,-3.405,8.213,2
0.092,0.060,1.020,-8.268,-5.527,11.460,2
0.096,0.112,1.005,-2.297,-0.744,9.837,2
0.103,0.075,0.972,-6.313,0.443,2.445,2
0.103,0.033,0.966,-3.379,-2.074,3.930,2
0.094,0.039,0.989,-2.402,-3.549,8.213,2
0.095,0.069,0.994,-3.030,-3.225,9.284,2
0.077,0.053,0.998,-5.998,-3.369,7.695,2
0.085,0.098,1.038,-3.379,-1.787,10.631,2
0.088,0.120,0.980,-14.414,2.457,4.103,2
0.084,0.043,1.020,-22.516,-0.672,-0.146,2
0.087,0.056,0.983,-3.763,0.515,8.248,2
0.093,0.064,0.979,-14.030,-2.002,8.179,2
0.096,0.051,0.962,-9.141,-3.477,11.460,2
0.089,0.064,0.931,0.462,-9.771,15.847,2
0.088,0.109,0.979,-4.252,-13.907,17.194,2
0.079,0.152,1.017,-3.729,-10.886,13.325,2
0.063,0.091,0.983,-13.716,-7.577,9.249,2
0.050,0.179,1.106,-8.967,-13.332,13.152,2
0.079,0.199,1.125,1.963,5.407,5.174,2
0.071,0.159,0.987,-6.627,12.708,-1.113,2
0.083,0.109,0.968,-0.725,5.730,-1.147,2
0.078,0.043,0.935,1.475,7.709,-1.355,2
0.059,0.019,0.906,-1.983,0.659,12.116,2
0.070,0.169,1.013,-2.402,-9.843,17.125,2
0.095,0.184,1.068,8.249,0.515,7.557,2
0.096,0.120,0.886,8.528,11.305,0.683,2
0.087,0.143,0.958,13.732,-5.239,4.034,2
0.080,0.128,1.010,16.839,1.163,-4.014,2
0.057,0.046,0.988,5.700,2.421,-7.157,2
0.062,0.021,1.001,-7.465,0.299,1.340,2
0.064,0.144,1.053,4.967,1.199,6.244,2
0.075,0.087,0.998,0.287,6.162,-1.424,2
0.076,0.071,0.977,6.224,1.666,1.167,2
0.093,0.034,0.952,18.341,4.328,4.034,2
0.082,0.070,0.886,0.357,-3.585,7.902,2
0.068,0.124,1.027,-9.036,-10.131,3.619,2
0.063,0.091,1.091,-15.113,0.443,-1.424,2
0.088,0.093,0.999,13.173,9.399,4.137,2
0.087,0.155,0.933,27.979,0.551,1.409,2
0.089,0.096,0.943,10.135,-2.650,-9.333,2
0.205,-0.677,0.780,430.679,18.031,37.158,3
0.180,-0.737,0.645,412.416,37.201,41.752,3
0.200,-0.736,0.387,310.519,51.623,24.171,3
0.218,-0.982,0.225,289.846,42.308,3.412,3
0.217,-1.046,0.079,310.100,27.274,17.574,3
0.213,-0.953,0.098,377.111,15.046,21.580,3
0.232,-0.857,0.233,424.044,13.535,16.779,3
0.244,-0.965,0.088,383.991,49.465,7.246,3
0.229,-0.984,-0.323,308.912,72.879,15.847,3
0.232,-0.893,-0.488,223.672,45.293,20.475,3
0.248,-0.855,-0.433,243.926,22.814,10.458,3
0.240,-0.766,-0.448,266.833,27.238,6.659,3
0.238,-0.833,-0.423,333.252,25.764,-2.114,3
0.242,-0.713,-0.520,303.954,43.171,3.619,3
0.253,-0.662,-0.672,266.694,48.998,-4.083,3
0.211,-0.585,-0.827,220.808,38.855,2.445,3
0.204,-0.504,-0.883,223.113,25.404,-6.777,3
0.219,-0.488,-0.882,256.567,6.486,-16.863,3
0.169,-0.455,-0.723,271.408,18.067,-18.176,3
0.194,-0.419,-0.768,278.287,23.102,-12.615,3
0.162,-0.414,-0.879,274.132,39.539,-0.836,3
0.188,-0.163,-0.993,290.020,29.216,5.001,3
0.186,0.030,-1.038,258.906,22.095,-16.276,3
0.190,0.026,-1.007,238.304,10.082,-25.187,3
0.177,-0.027,-0.918,203.732,3.680,-26.016,3
0.151,-0.013,-0.860,184.666,17.312,-17.658,3
0.134,0.069,-0.906,185.539,23.066,-2.598,3
0.136,0.201,-0.938,192.139,19.577,-4.083,3
0.153,0.245,-0.946,215.047,17.060,-8.677,3
0.149,0.259,-0.869,225.278,14.003,-8.988,3
0.147,0.315,-0.723,208.936,13.931,-8.988,3
0.143,0.431,-0.887,150.374,28.353,-1.285,3
0.126,0.450,-0.938,159.035,21.951,-2.771,3
0.124,0.480,-0.832,188.158,13.895,-3.945,3
0.126,0.508,-0.732,206.386,26.411,-6.674,3
0.113,0.499,-0.734,208.063,21.124,-1.458,3
0.086,0.575,-0.774,195.177,25.728,8.766,3
0.087,0.619,-0.681,182.222,14.506,14.914,3
0.075,0.771,-0.707,147.825,19.577,20.579,3
0.064,0.861,-0.686,117.305,15.585,20.682,3
0.044,0.886,-0.674,96.423,12.888,18.886,3
0.031,0.911,-0.641,87.797,6.450,15.156,3
0.022,0.919,-0.616,79.591,6.917,14.154,3
0.027,0.934,-0.574,61.223,7.421,12.772,3
0.033,1.017,-0.595,51.830,9.543,14.638,3
0.036,0.915,-0.653,45.614,4.184,5.554,3
0.035,0.942,-0.626,29.201,-3.045,5.243,3
0.047,0.837,-0.511,18.760,-5.887,1.789,3
0.048,0.798,-0.446,14.814,1.594,8.144,3
0.045,0.801,-0.503,16.490,6.378,9.526,3
0.041,0.806,-0.529,18.760,9.435,12.772,3
0.025,0.876,-0.611,18.236,3.860,9.975,3
0.030,0.802,-0.592,15.897,-2.470,11.425,3
0.035,0.881,-0.492,12.649,-4.736,11.287,3
0.044,0.855,-0.431,12.230,1.990,8.179,3
0.028,0.899,-0.480,16.001,6.234,6.970,3
0.007,0.797,-0.572,19.319,5.371,5.554,3
0.014,0.894,-0.478,22.427,-1.966,14.430,3
0.021,0.970,-0.439,20.297,2.997,11.874,3
0.015,1.047,-0.488,14.360,7.565,5.864,3
0.003,0.928,-0.489,12.160,6.845,-3.911,3
-0.015,0.864,-0.525,3.744,2.134,-1.700,3
0.005,0.886,-0.489,-0.656,-0.672,2.583,3
0.008,0.917,-0.492,-7.081,0.875,2.030,3
0.010,0.952,-0.499,-10.957,-1.175,-0.387,3
0.011,0.910,-0.526,-16.824,0.479,-6.536,3
0.014,0.823,-0.582,-32.677,-4.628,-3.841,3
0.036,0.812,-0.549,-59.741,-12.181,8.455,3
0.057,0.905,-0.557,-122.003,-12.217,12.876,3
0.002,0.892,-0.623,-141.140,-12.037,12.807,3
0.012,0.935,-0.617,-158.984,-13.044,5.657,3
0.029,0.788,-0.614,-182.276,-7.289,4.794,3
0.003,0.683,-0.726,-206.580,-9.843,12.358,3
0.077,0.718,-0.659,-242.478,-1.859,22.306,3
0.043,0.714,-1.009,-326.566,0.731,18.299,3
-0.072,0.667,-0.915,-369.518,-18.295,7.522,3
0.034,0.330,-0.959,-327.404,-21.568,-2.184,3
0.016,0.271,-0.934,-340.639,-28.258,15.156,3
0.047,0.215,-0.926,-390.889,-24.266,12.496,3
0.054,0.076,-0.985,-413.867,-17.864,12.427,3
0.090,0.139,-1.083,-546.179,-8.261,12.047,3
0.013,-0.242,-0.852,-488.386,-27.682,-14.722,3
0.039,-0.394,-0.686,-436.251,-3.981,-1.734,3
0.025,-0.550,-0.759,-288.887,14.398,0.442,3
0.033,-0.503,-0.931,-229.278,15.010,18.333,3
0.033,-0.547,-0.931,-268.773,-1.823,5.243,3
0.039,-0.677,-0.755,-322.865,-16.425,2.963,3
0.063,-0.664,-0.651,-328.033,-15.634,4.897,3
0.057,-0.681,-0.557,-286.687,-13.943,-5.568,3
0.061,-0.874,-0.464,-230.954,-13.224,-16.656,3
0.054,-0.954,-0.389,-149.765,-3.837,1.443,3
0.049,-0.926,-0.411,-126.299,-3.297,4.897,3
0.058,-0.976,-0.401,-116.067,-2.614,9.629,3
0.048,-0.963,-0.407,-167.225,-1.823,12.945,3
0.077,-0.836,-0.337,-195.964,-5.671,15.190,3
0.057,-0.963,-0.188,-204.590,-11.354,-6.259,3
0.062,-1.061,-0.107,-165.514,0.371,0.822,3
0.066,-1.029,-0.085,-142.502,9.687,13.532,3
0.081,-0.980,-0.151,-198.234,14.758,13.049,3
0.070,-1.014,-0.019,-197.676,5.263,9.457,3
0.091,-0.967,0.115,-181.473,6.054,12.807,3
0.090,-0.983,0.109,-178.888,18.930,6.106,3
0.088,-0.991,0.119,-187.374,18.103,7.971,3
0.099,-0.959,0.186,-164.431,11.413,11.425,3
0.106,-0.892,0.263,-167.644,6.486,6.106,3
0.110,-0.910,0.330,-155.317,7.709,0.545,3
0.108,-0.931,0.391,-133.073,11.845,1.789,3
0.115,-0.908,0.387,-112.854,17.491,5.070,3
0.112,-0.895,0.386,-99.166,14.650,3.999,3
0.106,-0.900,0.446,-126.857,12.564,6.797,3
0.111,-0.808,0.550,-138.486,18.498,8.973,3
0.111,-0.826,0.480,-143.200,24.325,-1.182,3
0.109,-0.869,0.500,-156.155,21.879,3.930,3
0.109,-0.853,0.565,-149.381,12.096,5.035,3
0.130,-0.807,0.609,-148.613,17.527,15.916,3
0.131,-0.711,0.605,-131.362,8.967,15.398,3
0.146,-0.654,0.696,-123.435,7.277,12.669,3
0.143,-0.583,0.748,-147.006,10.838,4.483,3
0.152,-0.592,0.793,-136.391,15.945,-1.838,3
0.137,-0.625,0.738,-130.384,14.146,-3.807,3
0.158,-0.631,0.767,-111.038,13.103,4.310,3
0.157,-0.484,0.753,-120.676,5.838,6.141,3
0.160,-0.467,0.944,-134.679,4.148,-2.702,3
0.156,-0.419,0.977,-125.914,21.304,-4.325,3
0.172,-0.401,0.819,-104.264,24.936,-8.573,3
0.165,-0.458,0.896,-96.058,14.506,-12.373,3
0.168,-0.447,0.870,-91.832,11.989,-6.017,3
0.184,-0.324,0.899,-94.626,12.060,0.096,3
0.175,-0.230,0.945,-87.677,5.299,-8.850,3
0.172,-0.303,0.959,-76.677,9.435,-19.005,3
0.166,-0.360,0.899,-63.756,10.298,-13.582,3
0.176,-0.380,0.946,-83.312,12.384,-4.014,3
0.171,-0.252,0.913,-83.521,13.032,3.827,3
0.186,-0.151,0.886,-62.080,0.156,0.338,3
0.188,-0.202,0.959,-65.398,-3.693,-8.263,3
0.187,-0.205,0.965,-73.290,5.443,-4.947,3
0.190,-0.140,0.939,-80.309,8.212,-1.458,3
0.185,-0.136,0.946,-70.496,0.012,-4.809,3
0.189,-0.071,0.924,-47.099,-8.261,1.132,3
0.192,-0.072,1.010,-63.861,-2.686,-4.152,3
0.169,-0.079,0.983,-95.988,4.364,-4.325,3
0.188,-0.065,1.007,-99.200,8.392,0.718,3
0.178,-0.004,1.000,-76.817,8.284,5.312,3
0.172,-0.002,0.968,-48.217,1.846,-0.215,3
0.188,0.014,0.960,-47.065,2.781,2.652,3
0.172,0.024,1.000,-69.414,0.947,2.445,3
0.200,0.075,1.068,-58.518,2.889,6.797,3
0.196,0.078,0.964,-30.443,7.133,6.279,3
0.198,0.093,0.930,2.417,-3.729,11.356,3
0.195,0.137,0.887,-21.503,-4.052,5.381,3
0.192,0.094,0.993,-47.868,-5.995,3.343,3
0.187,0.142,1.032,-37.531,-0.384,2.238,3
0.173,0.046,1.005,-19.024,-2.650,2.341,3
0.180,0.110,0.968,5.770,-4.376,11.080,3
0.176,0.139,0.972,-0.097,-5.167,4.966,3
0.171,0.109,1.018,-8.862,-2.578,3.757,3
0.172,0.119,1.011,-10.189,-1.031,4.414,3
0.176,0.144,1.012,0.357,1.630,4.794,3
0.168,0.112,0.985,3.011,1.522,1.616,3
0.169,0.122,0.975,2.906,0.875,2.203,3
0.171,0.089,0.979,0.392,0.587,0.649,3
0.178,0.125,0.987,-0.376,0.228,3.792,3
0.178,0.098,0.976,5.874,-1.355,1.720,3
0.177,0.102,0.965,2.243,4.579,5.692,3
0.185,0.081,0.932,-5.649,2.781,3.170,3
0.178,0.130,1.019,-11.411,3.932,-0.422,3
0.181,0.101,0.961,2.417,8.320,0.372,3
0.181,0.130,0.910,0.462,-1.715,1.823,3
0.182,0.081,0.978,11.462,-5.923,3.377,3
0.168,0.140,0.953,16.211,-4.592,6.106,3
0.184,0.170,0.995,-4.602,-6.426,2.099,3
0.175,0.097,1.038,2.033,-0.708,-3.669,3
0.165,0.074,0.947,9.332,1.055,2.272,3
0.179,0.134,0.972,2.592,-2.326,2.859,3
0.174,0.089,1.014,8.249,0.587,-0.595,3
0.168,0.103,0.939,11.566,2.421,2.756,3
0.180,0.112,0.971,-2.402,-2.146,1.858,3
0.171,0.057,0.983,3.046,1.486,1.547,3
0.170,0.115,0.934,3.116,0.192,5.208,3
0.178,0.109,0.996,-2.122,-2.254,2.203,3
0.171,0.094,0.971,4.198,1.019,2.445,3
0.175,0.129,0.957,4.792,-1.607,2.030,3
0.171,0.118,0.990,7.097,-3.513,-0.975,3
0.172,0.094,1.008,2.033,0.371,-0.836,3
0.173,0.092,0.975,5.560,3.105,-0.871,3
0.167,0.063,0.959,8.424,0.875,1.685,3
0.174,0.097,0.971,7.446,-0.780,3.999,3
0.174,0.099,0.973,11.357,1.666,1.478,3
0.173,0.107,0.968,-2.960,0.371,1.374,3
0.175,0.089,0.982,1.440,1.342,-1.320,3
0.170,0.066,0.969,5.246,0.623,0.649,3
0.169,0.083,0.978,6.084,-0.708,0.994,3
0.166,0.077,0.969,7.865,-0.312,1.754,3
0.168,0.079,0.985,3.395,-0.528,1.720,3
0.179,0.107,0.975,6.503,0.947,2.030,3
0.167,0.089,0.978,6.259,-0.204,-0.664,3
0.168,0.062,0.982,5.700,-0.096,-1.216,3
0.170,0.068,1.013,-3.798,0.192,-0.146,3
0.173,0.083,0.993,-3.449,7.996,0.787,3
0.173,0.084,0.924,4.827,3.105,1.098,3
0.203,-0.511,0.924,440.212,17.563,-4.843,4
0.234,-0.605,0.781,439.060,24.001,11.667,4
0.249,-0.519,0.695,420.727,33.532,25.000,4
0.251,-0.678,0.574,472.967,27.634,-3.151,4
0.220,-0.983,0.390,468.114,41.948,3.999,4
0.229,-0.899,0.260,496.329,21.124,21.787,4
0.257,-0.887,0.095,466.822,9.363,7.695,4
0.261,-1.048,-0.040,495.421,-4.304,-3.807,4
0.264,-0.895,-0.074,467.031,-15.849,11.218,4
0.220,-0.868,-0.067,437.593,3.572,-4.601,4
0.248,-0.922,-0.329,457.358,36.410,-0.836,4
0.263,-0.848,-0.623,363.388,36.625,10.769,4
0.266,-0.731,-0.630,327.769,16.556,6.037,4
0.270,-0.666,-0.687,275.354,15.801,-4.601,4
0.202,-0.625,-0.890,210.437,10.082,1.581,4
0.266,-0.467,-0.618,173.980,-4.520,-4.809,4
0.214,-0.563,-0.672,165.565,19.146,-18.038,4
0.227,-0.512,-0.753,230.900,24.505,-17.001,4
0.227,-0.425,-0.801,241.656,30.691,-18.866,4
0.204,-0.454,-0.889,225.593,30.403,-17.450,4
0.202,-0.347,-0.922,206.840,28.389,-2.702,4
0.213,-0.162,-0.844,190.079,19.937,-6.708,4
0.211,-0.212,-0.771,212.358,40.941,-19.868,4
0.166,-0.176,-0.916,220.110,49.897,-14.653,4
0.160,-0.006,-0.998,196.190,43.387,-12.373,4
0.133,0.022,-0.994,183.933,38.352,-14.445,4
0.123,0.090,-1.063,164.238,28.893,-12.097,4
0.129,0.117,-1.029,146.044,18.570,-18.141,4
0.110,0.171,-0.884,135.708,16.376,-14.583,4
0.112,0.169,-0.905,133.543,33.137,-18.210,4
0.117,0.135,-0.871,133.298,38.855,-15.136,4
0.084,0.187,-1.061,129.248,44.826,-12.511,4
0.079,0.190,-1.031,130.959,32.238,-9.402,4
0.062,0.324,-0.943,111.753,24.649,-5.050,4
0.054,0.354,-1.005,107.423,22.886,-8.643,4
0.064,0.365,-0.903,105.572,23.246,-7.054,4
0.058,0.423,-0.916,102.464,22.635,-10.542,4
0.052,0.387,-0.885,114.511,27.418,-6.605,4
0.049,0.419,-0.858,125.581,28.209,-6.743,4
0.037,0.465,-0.907,117.724,28.461,-0.836,4
0.019,0.487,-0.908,108.575,20.189,2.134,4
0.019,0.601,-0.860,105.467,15.477,3.965,4
0.026,0.593,-0.785,106.305,14.326,-1.147,4
0.032,0.575,-0.716,106.026,20.764,0.476,4
0.019,0.611,-0.762,101.765,24.433,3.827,4
0.004,0.678,-0.794,95.375,25.116,4.137,4
-0.024,0.687,-0.804,86.959,17.060,6.590,4
-0.016,0.719,-0.756,74.597,10.550,4.932,4
-0.007,0.715,-0.715,67.439,9.399,4.897,4
-0.001,0.761,-0.676,65.867,11.953,5.381,4
-0.017,0.804,-0.673,57.696,13.787,3.896,4
-0.027,0.746,-0.716,45.788,11.953,4.276,4
-0.028,0.747,-0.674,38.211,8.967,5.933,4
-0.037,0.782,-0.678,36.080,6.234,8.731,4
-0.034,0.852,-0.626,30.039,6.270,7.419,4
-0.037,0.867,-0.634,20.401,6.486,4.068,4
-0.046,0.831,-0.646,16.944,5.551,-0.906,4
-0.045,0.826,-0.677,8.528,2.817,-0.180,4
-0.034,0.773,-0.633,4.967,-1.031,-1.078,4
-0.031,0.811,-0.630,0.217,-1.031,0.752,4
-0.050,0.801,-0.643,-4.497,1.271,0.718,4
-0.036,0.822,-0.638,-2.087,-0.420,-1.942,4
-0.025,0.770,-0.633,-3.065,0.623,-3.738,4
-0.025,0.745,-0.626,-5.929,-0.851,-2.978,4
-0.028,0.773,-0.635,-5.405,-0.276,-0.802,4
-0.025,0.771,-0.638,-6.208,-0.600,-1.078,4
-0.022,0.792,-0.640,-17.208,-2.110,0.545,4
-0.022,0.770,-0.608,-14.274,-1.930,-1.458,4
-0.027,0.775,-0.645,-9.246,-1.643,-0.526,4
-0.026,0.773,-0.652,-12.214,0.407,-1.355,4
-0.023,0.802,-0.648,-17.871,-1.535,-1.113,4
-0.037,0.794,-0.593,-33.166,-0.456,-1.216,4
-0.020,0.771,-0.673,-37.462,7.313,-2.080,4
-0.032,0.753,-0.717,-28.452,5.227,-2.633,4
-0.033,0.778,-0.763,-35.262,-0.672,-3.496,4
-0.027,0.819,-0.729,-64.210,-7.289,-6.190,4
-0.027,0.773,-0.776,-101.470,-9.016,-12.960,4
0.002,0.667,-0.790,-140.337,-10.778,-15.723,4
-0.004,0.505,-0.802,-141.489,-15.957,-5.810,4
-0.006,0.548,-0.796,-134.016,-18.151,4.241,4
0.014,0.613,-0.770,-130.035,-16.101,3.447,4
0.026,0.569,-0.803,-148.473,-11.677,-4.152,4
0.061,0.500,-0.885,-182.555,-9.375,-8.055,4
0.012,0.288,-0.896,-174.908,-17.540,-3.876,4
0.009,0.369,-0.902,-161.882,-14.411,10.009,4
0.014,0.331,-0.951,-142.571,-14.950,14.776,4
0.015,0.419,-0.972,-166.562,-18.367,18.126,4
0.015,0.248,-1.012,-175.571,-21.640,4.586,4
0.031,0.171,-1.087,-198.304,-29.517,10.700,4
0.059,0.152,-1.014,-241.151,-40.055,16.123,4
0.038,0.159,-0.934,-300.027,-33.725,10.562,4
0.056,0.093,-0.942,-339.312,-19.086,1.063,4
0.062,-0.204,-1.011,-301.773,-27.071,-11.993,4
0.091,-0.329,-0.964,-334.702,-29.373,2.549,4
0.088,-0.355,-0.880,-365.607,-26.891,7.695,4
0.108,-0.402,-0.849,-354.502,-22.000,9.491,4
0.100,-0.513,-0.786,-360.718,-21.568,-3.703,4
0.105,-0.648,-0.744,-334.947,-17.396,-4.360,4
0.117,-0.769,-0.628,-291.646,-21.856,-2.322,4
0.114,-0.842,-0.487,-216.113,-16.065,0.718,4
0.123,-0.802,-0.501,-167.085,1.127,13.498,4
0.129,-0.701,-0.561,-187.863,2.026,6.624,4
0.121,-0.876,-0.518,-197.710,-4.628,-9.333,4
0.122,-0.953,-0.429,-209.723,-10.454,-0.249,4
0.138,-0.866,-0.353,-216.637,-12.505,2.099,4
0.125,-0.942,-0.261,-228.755,-10.239,-6.052,4
0.144,-0.995,-0.191,-226.974,-3.549,-4.498,4
0.116,-1.010,-0.144,-221.037,-1.607,2.859,4
0.133,-0.973,-0.049,-207.244,-1.139,5.450,4
0.132,-0.951,-0.010,-205.114,4.076,3.032,4
0.127,-0.962,0.024,-186.676,-1.391,-5.430,4
0.129,-0.928,0.091,-183.149,-1.715,-5.776,4
0.124,-0.978,0.192,-171.276,-0.995,-11.648,4
0.108,-1.018,0.299,-174.803,4.687,-9.713,4
0.126,-0.951,0.320,-165.933,18.714,-1.562,4
0.122,-0.911,0.290,-160.451,25.404,-4.187,4
0.119,-0.925,0.324,-178.679,16.448,-12.615,4
0.114,-0.914,0.433,-159.159,14.039,-7.261,4
0.108,-0.845,0.429,-164.571,15.513,-10.646,4
0.110,-0.822,0.535,-150.044,8.068,-13.996,4
0.120,-0.836,0.559,-149.730,15.909,-16.069,4
0.109,-0.795,0.555,-149.451,16.808,-16.069,4
0.102,-0.826,0.616,-128.045,14.111,-12.960,4
0.101,-0.815,0.704,-116.730,17.959,-5.983,4
0.122,-0.659,0.631,-133.457,23.570,-6.397,4
0.113,-0.679,0.726,-130.210,18.031,-17.209,4
0.109,-0.710,0.734,-117.289,23.606,-11.855,4
0.110,-0.670,0.727,-98.781,16.268,-8.781,4
0.114,-0.670,0.794,-80.344,11.737,-2.425,4
0.125,-0.601,0.827,-84.639,16.916,0.683,4
0.128,-0.524,0.745,-88.166,19.541,-3.289,4
0.132,-0.571,0.883,-107.616,15.981,-5.879,4
0.118,-0.564,0.867,-116.032,29.288,-4.981,4
0.135,-0.575,0.854,-104.334,23.857,2.928,4
0.140,-0.481,0.873,-87.816,22.922,8.006,4
0.162,-0.411,0.869,-90.261,23.893,8.110,4
0.172,-0.354,0.853,-104.927,23.965,0.960,4
0.169,-0.400,0.897,-116.346,25.152,-2.702,4
0.162,-0.427,0.887,-124.762,23.785,0.131,4
0.170,-0.372,0.952,-95.918,14.938,8.386,4
0.180,-0.290,0.931,-79.261,16.017,12.565,4
0.188,-0.233,0.918,-78.842,13.751,7.246,4
0.196,-0.228,0.959,-86.978,17.923,3.930,4
0.205,-0.244,0.938,-91.483,17.995,2.998,4
0.199,-0.176,0.940,-74.267,14.434,9.422,4
0.206,-0.175,0.915,-65.188,10.766,7.073,4
0.221,-0.119,0.920,-57.820,5.622,10.976,4
0.219,-0.096,0.958,-57.366,3.680,3.827,4
0.221,-0.103,0.951,-59.810,9.039,8.697,4
0.231,-0.067,0.945,-45.912,-0.492,4.103,4
0.219,-0.088,0.973,-31.630,0.120,8.628,4
0.215,-0.030,0.955,-20.979,-0.312,9.526,4
0.225,-0.028,0.963,-43.433,4.903,4.517,4
0.218,-0.025,0.988,-49.160,1.882,0.614,4
0.205,-0.074,1.007,-51.045,7.025,3.067,4
0.216,-0.031,0.961,-40.814,3.500,7.004,4
0.214,0.018,0.973,-24.576,-0.456,6.762,4
0.210,0.013,0.976,-32.433,1.774,-0.802,4
0.218,-0.012,1.009,-44.760,8.680,1.858,4
0.220,0.004,0.988,-33.236,7.529,3.101,4
0.220,0.009,0.957,-16.440,5.479,6.244,4
0.232,0.058,0.908,1.335,3.141,10.044,4
0.236,0.092,0.925,-4.602,-4.628,2.479,4
0.225,0.017,0.994,-21.119,-1.571,2.030,4
0.223,0.060,0.967,-20.351,-0.132,2.618,4
0.212,0.053,0.987,-12.738,-0.923,2.687,4
0.218,0.032,0.991,-11.306,-0.959,1.720,4
0.218,0.047,0.969,-3.275,1.450,3.619,4
0.219,0.054,0.968,-0.027,-1.607,3.896,4
0.222,0.070,0.989,3.535,-0.636,5.001,4
0.221,0.053,0.966,0.881,-1.823,1.409,4
0.224,0.061,0.973,3.675,-0.276,3.723,4
0.226,0.077,0.923,5.351,-2.650,1.685,4
0.226,0.063,0.978,9.751,-6.390,0.303,4
0.219,0.060,0.957,5.770,-3.945,-1.804,4
0.211,0.020,0.986,-2.890,-0.240,-0.077,4
0.210,0.015,0.962,-11.236,-0.060,1.063,4
0.208,0.031,1.000,-4.252,-1.966,4.206,4
0.216,0.056,0.953,8.982,-4.556,4.586,4
0.214,0.076,0.951,15.024,-8.620,5.105,4
0.218,0.023,0.965,10.798,-10.095,0.891,4
0.207,0.046,0.965,1.195,-6.031,1.167,4
0.204,0.033,0.989,1.859,-5.419,2.169,4
0.203,0.065,0.982,6.433,-2.650,2.963,4
0.197,0.054,0.970,9.052,-4.484,1.098,4
0.198,0.040,0.963,12.859,-6.894,0.096,4
0.191,0.031,0.963,6.817,-11.354,-0.249,4
0.188,0.035,1.001,5.840,-11.641,-0.249,4
0.193,0.023,1.061,3.814,-5.491,0.027,4
0.190,0.031,0.959,5.246,3.033,2.859,4
0.188,0.020,0.956,4.478,-2.506,2.652,4
0.193,0.035,0.969,2.208,-1.966,3.688,4
0.195,0.050,0.953,1.370,-5.167,2.169,4
0.191,0.044,1.004,-1.878,-5.815,1.305,4
0.191,0.056,0.987,-0.725,-0.384,0.994,4
0.178,0.028,0.960,1.859,-1.823,-2.322,4
0.179,-0.018,0.982,4.513,-3.045,0.442,4
0.184,0.030,0.978,5.246,-2.002,5.035,4
0.186,0.067,0.962,1.021,-2.973,2.134,4
0.185,0.040,1.009,-5.544,-2.146,-1.285,4
0.254,-0.536,0.811,312.125,34.791,20.475,5
0.207,-0.576,0.902,306.363,37.740,22.893,5
0.247,-0.605,0.842,429.387,52.307,24.689,5
0.215,-0.636,0.783,632.064,68.276,26.070,5
0.276,-0.751,0.340,705.466,67.952,32.426,5
0.349,-0.693,0.066,672.048,40.150,21.649,5
0.354,-0.797,-0.184,604.512,23.606,3.274,5
0.355,-0.925,-0.265,515.186,5.622,-12.338,5
0.314,-1.015,-0.496,487.250,-3.117,-4.774,5
0.299,-0.803,-0.474,395.759,-27.610,4.276,5
0.313,-0.645,-0.366,338.944,-25.273,-6.363,5
0.340,-0.649,-0.358,320.191,2.961,-24.082,5
0.299,-0.714,-0.619,300.427,22.455,-18.728,5
0.305,-0.601,-0.633,319.528,25.943,-23.875,5
0.260,-0.552,-0.717,353.540,37.165,-25.015,5
0.252,-0.261,-0.990,368.381,43.495,-22.010,5
0.271,-0.232,-0.959,304.512,29.288,-35.549,5
0.263,-0.317,-0.916,254.611,25.800,-30.645,5
0.224,-0.113,-0.976,199.402,31.123,-17.312,5
0.210,-0.207,-0.988,188.298,25.907,-20.041,5
0.201,-0.084,-0.975,201.672,29.648,-6.190,5
0.194,0.091,-0.922,177.228,27.094,-9.161,5
0.181,0.048,-0.987,136.302,32.058,-13.858,5
0.173,0.041,-1.027,112.591,26.051,-8.988,5
0.166,0.104,-1.016,97.750,23.642,-1.320,5
0.188,0.001,-0.892,114.581,18.426,-1.147,5
0.190,0.092,-0.948,133.543,32.813,13.463,5
0.143,0.231,-1.008,135.638,34.180,9.215,5
0.151,0.273,-0.912,130.924,28.965,8.248,5
0.197,0.334,-0.925,117.235,27.130,5.588,5
0.120,0.306,-0.966,122.752,30.403,4.655,5
0.113,0.400,-0.906,126.419,26.267,9.733,5
0.122,0.408,-0.869,114.302,24.433,3.377,5
0.096,0.402,-0.923,100.997,29.720,9.249,5
0.097,0.481,-0.881,106.270,22.563,8.662,5
0.097,0.483,-0.836,122.299,28.497,7.211,5
0.076,0.556,-0.830,107.457,27.166,7.177,5
0.060,0.561,-0.842,83.956,29.828,6.003,5
0.057,0.547,-0.849,80.115,24.037,7.764,5
0.062,0.542,-0.842,90.102,22.275,7.246,5
0.050,0.593,-0.846,84.620,17.491,10.078,5
0.041,0.659,-0.769,73.375,16.161,11.184,5
0.043,0.681,-0.748,65.728,19.290,8.110,5
0.030,0.676,-0.763,64.121,22.023,3.757,5
0.026,0.662,-0.792,58.883,19.541,3.447,5
0.013,0.640,-0.830,46.172,12.744,6.452,5
0.011,0.698,-0.759,33.496,4.975,13.187,5
0.005,0.759,-0.723,23.789,2.925,8.006,5
0.019,0.789,-0.712,7.167,3.033,4.345,5
-0.003,0.803,-0.740,10.763,2.637,-0.180,5
-0.007,0.739,-0.736,6.817,1.307,-3.565,5
0.009,0.728,-0.716,1.929,2.098,-1.009,5
0.017,0.657,-0.685,9.925,0.623,0.683,5
0.011,0.756,-0.722,6.782,0.228,1.167,5
0.017,0.731,-0.702,1.021,-0.600,-1.976,5
0.020,0.700,-0.690,0.776,0.515,-4.256,5
0.021,0.707,-0.712,-3.135,-0.312,-3.807,5
0.029,0.681,-0.705,-4.602,-0.060,-3.461,5
0.027,0.678,-0.690,-2.297,0.012,-1.907,5
0.015,0.719,-0.738,-4.636,-0.132,-1.078,5
0.019,0.708,-0.711,-6.313,-1.103,-0.940,5
0.022,0.724,-0.708,-13.576,-0.348,-1.493,5
0.022,0.711,-0.751,-18.674,-1.391,-2.978,5
0.030,0.687,-0.741,-27.125,-3.153,-2.736,5
0.023,0.712,-0.762,-45.284,-7.973,1.478,5
0.034,0.671,-0.774,-63.652,-10.958,-2.460,5
0.032,0.696,-0.772,-74.826,-13.296,5.139,5
0.012,0.671,-0.820,-89.982,-14.483,-1.769,5
0.024,0.569,-0.750,-91.867,-17.971,-3.047,5
0.049,0.580,-0.772,-73.080,-9.304,1.340,5
0.056,0.587,-0.809,-69.483,-6.894,1.340,5
0.046,0.575,-0.874,-71.125,-5.167,-0.871,5
0.056,0.609,-0.910,-99.131,-13.008,-5.189,5
0.059,0.573,-0.961,-160.660,-23.330,-13.582,5
0.044,0.488,-0.918,-221.491,-35.487,-18.245,5
0.046,0.344,-0.896,-220.129,-29.013,-22.700,5
0.061,0.234,-0.951,-157.832,-22.755,-12.200,5
0.086,0.315,-0.911,-148.403,-25.201,-5.499,5
0.111,0.246,-0.893,-139.883,-23.079,-13.685,5
0.144,0.092,-1.018,-130.594,-10.023,-3.703,5
0.110,0.125,-1.024,-168.168,-16.065,-0.180,5
0.094,0.094,-0.940,-150.568,-18.583,-1.320,5
0.112,0.099,-0.985,-140.581,-19.194,-2.909,5
0.124,0.072,-0.940,-148.368,-14.339,-8.539,5
0.122,-0.059,-1.053,-191.460,-14.087,-12.477,5
0.134,-0.159,-1.038,-257.843,-25.920,-5.603,5
0.181,-0.174,-0.879,-295.836,-34.732,-0.664,5
0.180,-0.248,-0.816,-260.497,-17.935,-3.427,5
0.153,-0.372,-0.877,-206.580,-5.419,-4.981,5
0.153,-0.464,-0.903,-192.158,-1.894,-0.664,5
0.166,-0.467,-0.908,-238.462,-5.671,-0.526,5
0.161,-0.545,-0.838,-327.264,-14.914,-1.596,5
0.184,-0.589,-0.716,-373.883,-16.281,0.752,5
0.184,-0.689,-0.638,-404.508,-10.203,-4.843,5
0.165,-0.755,-0.518,-368.610,-17.000,-8.919,5
0.164,-0.876,-0.406,-303.449,-17.684,-14.480,5
0.165,-0.940,-0.315,-260.672,-8.476,-5.499,5
0.175,-0.930,-0.314,-249.951,2.134,-4.360,5
0.168,-0.964,-0.274,-266.748,0.551,-3.151,5
0.172,-0.991,-0.143,-285.640,-5.095,2.169,5
0.167,-0.922,-0.020,-258.087,-1.103,3.723,5
0.159,-0.941,0.019,-231.548,5.227,-7.883,5
0.163,-0.983,0.078,-187.549,7.241,-10.024,5
0.167,-0.973,0.121,-180.774,7.529,-7.157,5
0.158,-1.010,0.235,-197.361,4.543,-9.713,5
0.164,-0.942,0.278,-189.260,12.780,-3.358,5
0.149,-0.944,0.287,-187.304,12.096,-5.845,5
0.151,-0.942,0.344,-168.238,5.622,-4.636,5
0.162,-0.907,0.456,-162.441,7.529,1.236,5
0.162,-0.889,0.444,-148.578,13.139,-1.147,5
0.169,-0.763,0.470,-145.679,9.039,0.131,5
0.157,-0.822,0.536,-137.438,5.011,-14.653,5
0.163,-0.849,0.576,-133.318,10.082,-6.052,5
0.154,-0.818,0.609,-140.965,11.773,-1.734,5
0.160,-0.792,0.635,-131.746,17.312,2.721,5
0.162,-0.731,0.667,-118.826,15.082,6.037,5
0.175,-0.680,0.668,-103.007,12.780,1.616,5
0.156,-0.718,0.700,-117.918,11.269,1.305,5
0.177,-0.616,0.695,-105.870,10.010,2.652,5
0.176,-0.631,0.753,-121.794,9.003,-4.014,5
0.172,-0.614,0.785,-118.616,9.219,-1.665,5
0.174,-0.573,0.796,-95.848,9.435,-2.771,5
0.186,-0.573,0.820,-63.931,9.974,-1.285,5
0.197,-0.551,0.801,-102.273,14.686,-1.769,5
0.186,-0.523,0.781,-132.549,12.600,-0.007,5
0.185,-0.494,0.859,-124.518,2.781,0.407,5
0.194,-0.463,0.909,-86.769,1.990,5.899,5
0.199,-0.407,0.898,-65.991,8.248,12.565,5
0.199,-0.289,0.813,-82.404,6.270,6.659,5
0.181,-0.368,0.903,-113.902,-3.261,-11.129,5
0.176,-0.411,1.004,-128.149,4.436,-2.391,5
0.177,-0.346,0.972,-92.915,6.306,2.169,5
0.184,-0.284,0.947,-57.366,4.831,5.726,5
0.188,-0.193,0.923,-34.319,0.659,2.376,5
0.210,-0.238,0.988,-13.611,-1.930,-5.292,5
0.202,-0.255,0.916,-78.947,14.614,-4.739,5
0.196,-0.260,0.939,-72.033,3.357,-3.772,5
0.196,-0.226,0.977,-57.890,5.479,1.685,5
0.208,-0.142,0.870,-57.645,5.119,4.621,5
0.211,-0.140,0.962,-65.921,-1.787,-1.769,5
0.200,-0.135,0.980,-62.534,3.680,-1.216,5
0.197,-0.165,0.996,-60.439,4.400,-0.387,5
0.203,-0.113,0.961,-33.725,5.910,5.450,5
0.203,-0.100,0.935,-61.836,-0.168,3.999,5
0.208,-0.033,0.963,-49.474,-3.441,6.624,5
0.204,-0.028,1.020,-50.242,-0.564,0.165,5
0.200,-0.014,1.004,-32.293,2.134,-2.011,5
0.139,-0.039,0.967,-20.351,3.213,-2.218,5
0.197,-0.071,0.995,3.360,-3.621,-0.007,5
0.201,-0.010,0.924,-38.055,0.443,1.789,5
0.201,-0.041,1.010,-51.569,-2.362,1.512,5
0.200,0.015,0.988,-43.433,2.997,1.512,5
0.195,-0.020,1.004,-25.170,0.875,0.925,5
0.196,0.019,0.983,5.106,4.004,5.381,5
0.202,0.032,0.938,-4.881,0.263,1.271,5
0.203,-0.005,1.006,-14.938,-1.823,-0.560,5
0.209,0.049,0.947,-17.068,1.882,0.511,5
0.200,-0.017,1.020,-24.122,-0.816,-1.907,5
0.202,0.015,0.966,-18.255,6.306,3.654,5
0.200,0.018,0.950,-12.843,-0.312,5.415,5
0.204,0.096,0.955,-6.103,-0.708,7.488,5
0.213,0.071,0.979,-16.160,-2.650,-0.940,5
0.202,0.054,0.969,-9.944,0.084,-0.698,5
0.204,0.058,1.027,4.338,-3.729,-0.318,5
0.200,0.047,1.014,2.348,0.048,1.374,5
0.197,0.066,0.968,7.132,-0.456,-1.355,5
0.194,0.025,0.983,-2.541,1.199,1.029,5
0.201,0.035,0.970,-9.700,-1.247,-0.111,5
0.196,0.057,0.964,0.532,1.163,2.238,5
0.202,0.053,0.972,4.582,-4.988,-0.077,5
0.200,0.026,1.002,-3.065,4.543,2.618,5
0.196,0.058,0.947,2.487,0.012,2.341,5
0.206,0.070,0.996,1.475,-1.031,1.961,5
0.199,0.048,0.969,6.573,0.587,1.478,5
0.207,0.050,0.972,-9.560,0.407,0.442,5
0.198,0.059,0.987,-12.948,1.522,-0.595,5
0.198,0.064,0.967,-6.033,0.875,0.856,5
0.197,0.026,0.980,1.160,1.019,0.545,5
0.201,0.072,0.956,7.551,-0.456,3.757,5
0.200,0.065,0.984,-2.262,0.479,0.338,5
0.198,0.042,0.978,0.182,0.551,1.754,5
0.196,0.059,0.968,4.932,0.299,2.238,5
0.200,0.065,0.987,2.662,-0.923,2.549,5
0.205,0.089,0.969,-5.963,1.342,0.131,5
0.201,0.040,0.981,-3.729,0.695,-0.940,5
0.197,0.061,0.963,-2.367,1.307,1.098,5
0.200,0.054,0.982,2.976,-0.168,1.581,5
0.206,0.074,0.983,0.497,2.098,0.545,5
0.208,0.041,0.968,1.684,3.249,0.925,5
0.201,0.066,0.963,-0.935,0.335,1.305,5
0.206,0.060,0.976,2.417,2.206,-0.318,5
0.204,0.044,0.926,-2.925,-0.528,0.752,5
0.203,0.062,0.982,-1.983,-0.887,2.169,5
0.200,0.090,0.979,-1.948,-1.930,0.545,5
0.193,0.060,1.008,-6.522,1.630,-1.424,5
0.195,0.050,0.970,0.008,0.911,0.994,5
0.200,0.063,1.000,0.392,1.666,1.236,5
0.200,0.054,0.968,3.849,1.666,1.443,5
0.207,0.064,0.944,2.487,1.163,1.720,5
0.206,0.091,0.964,-2.611,-1.715,2.445,5
0.202,-0.318,1.136,403.232,31.950,-17.001,6
0.121,-0.691,0.923,531.459,70.470,-4.739,6
0.127,-0.735,0.733,743.075,63.708,19.991,6
0.254,-0.775,0.493,883.629,57.054,44.584,6
0.215,-0.755,0.139,912.508,19.398,36.985,6
0.285,-0.698,-0.202,775.132,-22.899,22.478,6
0.287,-0.821,-0.026,669.848,-22.539,-15.343,6
0.257,-0.930,-0.361,540.573,26.986,-2.563,6
0.259,-0.835,-0.596,425.546,12.996,2.825,6
0.257,-0.720,-0.778,385.946,3.357,-1.596,6
0.286,-0.606,-0.458,375.645,-13.763,-8.159,6
0.257,-0.578,-0.640,330.947,21.771,-4.118,6
0.249,-0.507,-0.840,257.440,30.439,5.588,6
0.222,-0.388,-0.839,235.405,29.900,2.721,6
0.221,-0.270,-0.967,214.418,29.864,5.381,6
0.200,-0.182,-1.003,201.882,23.929,-6.708,6
0.206,-0.212,-0.853,197.691,17.887,-13.927,6
0.205,-0.161,-0.954,180.545,32.525,-2.149,6
0.196,-0.090,-0.949,180.895,25.943,-10.404,6
0.202,-0.078,-0.916,189.450,29.432,-12.580,6
0.172,0.001,-0.975,197.552,31.015,-9.679,6
0.180,-0.008,-0.966,182.711,29.073,-8.470,6
0.171,0.136,-0.972,137.209,27.922,2.859,6
0.152,0.127,-1.043,117.759,18.894,0.303,6
0.154,0.158,-0.950,127.083,16.520,-3.254,6
0.154,0.159,-0.927,157.638,24.145,-4.118,6
0.143,0.222,-0.909,151.108,25.512,4.655,6
0.132,0.309,-1.019,117.794,23.965,6.555,6
0.117,0.297,-0.940,104.769,17.419,9.318,6
0.118,0.348,-0.813,109.937,25.836,10.216,6
0.112,0.390,-0.882,127.921,31.302,3.343,6
0.106,0.404,-0.911,134.102,31.914,0.960,6
0.087,0.446,-0.902,125.686,30.619,6.452,6
0.074,0.511,-0.851,113.010,24.505,6.313,6
0.069,0.558,-0.846,103.896,23.821,1.823,6
0.066,0.591,-0.842,101.102,23.030,1.029,6
0.064,0.632,-0.794,98.623,25.296,-2.805,6
0.043,0.600,-0.785,91.708,25.224,-3.980,6
0.038,0.622,-0.825,74.528,19.973,-0.111,6
0.029,0.676,-0.800,52.877,16.592,4.448,6
0.025,0.718,-0.836,34.439,10.586,1.616,6
0.043,0.654,-0.763,26.233,5.299,-0.180,6
0.030,0.692,-0.763,17.433,5.155,0.752,6
0.019,0.683,-0.788,8.808,5.515,1.512,6
0.033,0.656,-0.799,5.176,2.529,0.062,6
0.032,0.680,-0.779,4.233,0.299,0.062,6
0.031,0.679,-0.775,2.697,-1.211,-0.007,6
0.042,0.614,-0.728,7.411,-1.571,-0.629,6
0.040,0.672,-0.760,1.021,-0.780,0.234,6
0.043,0.655,-0.758,-1.913,0.371,2.583,6
0.042,0.677,-0.742,-6.278,0.515,2.790,6
0.034,0.673,-0.760,-2.052,-0.744,4.206,6
0.037,0.693,-0.755,2.068,-0.492,0.511,6
0.035,0.664,-0.746,1.789,-1.283,-0.387,6
0.038,0.677,-0.745,-2.017,0.695,1.063,6
0.045,0.637,-0.715,-2.017,1.271,1.478,6
0.034,0.703,-0.773,-4.706,2.134,0.822,6
0.033,0.726,-0.784,-16.160,-9.591,-3.254,6
0.027,0.710,-0.814,-42.560,-3.765,-5.603,6
0.028,0.685,-0.774,-77.515,-9.124,-8.781,6
0.029,0.619,-0.850,-101.331,-10.994,-8.953,6
0.053,0.566,-0.871,-104.753,-14.734,-5.603,6
0.068,0.571,-0.862,-109.083,-20.453,-1.976,6
0.070,0.578,-0.859,-115.334,-19.374,-5.361,6
0.098,0.537,-0.843,-147.705,-20.849,-11.475,6
0.101,0.506,-0.948,-197.396,-25.416,-13.685,6
0.088,0.381,-0.950,-248.764,-29.625,-16.552,6
0.074,0.322,-0.922,-242.408,-30.739,-18.141,6
0.085,0.164,-0.941,-219.291,-28.294,-21.975,6
0.107,0.067,-0.933,-187.025,-23.762,-11.371,6
0.169,0.178,-1.140,-229.837,-26.280,1.927,6
0.140,0.067,-0.904,-273.487,-37.897,-16.103,6
0.160,-0.087,-0.967,-288.189,-26.172,-7.986,6
0.153,-0.105,-0.907,-234.551,-25.380,-7.503,6
0.130,-0.210,-1.026,-238.986,-18.259,-5.914,6
0.148,-0.255,-0.959,-264.827,-31.135,-5.983,6
0.162,-0.352,-0.918,-335.541,-30.128,-6.881,6
0.179,-0.449,-0.865,-400.283,-36.278,-6.087,6
0.206,-0.531,-0.721,-361.626,-36.602,-8.401,6
0.200,-0.723,-0.620,-316.369,-26.747,-10.577,6
0.194,-0.760,-0.584,-286.932,-19.770,0.027,6
0.204,-0.757,-0.528,-262.243,-17.576,1.685,6
0.212,-0.811,-0.484,-254.002,-16.065,1.236,6
0.211,-0.797,-0.434,-264.548,-14.159,-0.629,6
0.201,-0.925,-0.362,-265.875,-12.936,-6.743,6
0.213,-0.911,-0.249,-238.253,-14.806,-1.216,6
0.210,-0.973,-0.241,-208.361,-11.641,-8.504,6
0.207,-1.010,-0.126,-187.618,-15.238,-1.216,6
0.208,-0.973,-0.079,-177.352,-6.139,4.310,6
0.209,-0.965,-0.061,-175.536,-4.340,3.965,6
0.222,-1.010,-0.034,-183.219,-5.491,0.856,6
0.231,-1.026,0.053,-136.670,-10.598,13.325,6
0.220,-0.957,0.063,-108.454,-12.289,18.506,6
0.221,-0.884,0.082,-128.219,-22.179,9.180,6
0.210,-0.924,0.280,-136.810,-28.150,3.619,6
0.224,-0.915,0.292,-189.015,-10.670,4.310,6
0.221,-0.913,0.350,-192.018,-6.786,-1.251,6
0.219,-0.881,0.326,-223.412,0.803,-0.629,6
0.210,-0.886,0.381,-223.447,-2.146,-4.739,6
0.211,-0.894,0.464,-236.751,-9.519,-2.978,6
0.227,-0.824,0.612,-246.599,-4.088,5.139,6
0.224,-0.688,0.607,-222.469,5.335,0.165,6
0.207,-0.700,0.665,-169.879,3.464,-4.705,6
0.214,-0.675,0.662,-152.663,0.371,-9.851,6
0.215,-0.751,0.775,-126.822,3.141,-5.568,6
0.212,-0.687,0.694,-121.899,6.270,0.925,6
0.214,-0.628,0.730,-114.880,-1.715,3.205,6
0.215,-0.522,0.806,-109.118,-4.124,2.445,6
0.219,-0.499,0.842,-111.423,0.767,-4.739,6
0.215,-0.488,0.829,-98.677,3.357,-8.124,6
0.211,-0.530,0.864,-103.356,6.701,-8.297,6
0.216,-0.509,0.838,-87.677,6.234,-5.810,6
0.219,-0.518,0.886,-65.328,7.205,-1.320,6
0.207,-0.437,0.821,-60.649,4.508,3.136,6
0.219,-0.364,0.929,-61.556,0.371,-1.113,6
0.217,-0.394,0.909,-63.826,10.118,-5.119,6
0.218,-0.378,0.868,-51.674,8.032,-3.772,6
0.225,-0.376,0.921,-39.487,4.292,-6.432,6
0.216,-0.404,0.881,-46.680,6.953,-5.085,6
0.223,-0.363,0.907,-48.426,4.579,-1.113,6
0.223,-0.327,0.943,-51.604,2.925,-3.634,6
0.223,-0.314,0.927,-44.131,7.097,-3.772,6
0.223,-0.307,0.886,-41.338,3.393,-4.843,6
0.217,-0.346,0.976,-37.881,3.860,-3.116,6
0.229,-0.293,0.917,-27.300,6.989,-0.836,6
0.233,-0.287,0.891,-27.928,2.745,-0.560,6
0.236,-0.229,0.934,-37.077,2.853,-1.838,6
0.230,-0.258,0.942,-29.570,4.364,-3.531,6
0.226,-0.278,0.969,-32.538,1.954,-1.838,6
0.235,-0.203,0.929,-33.865,7.780,-0.595,6
0.224,-0.228,0.931,-25.728,5.191,-1.976,6
0.244,-0.224,0.973,-31.385,0.407,-2.011,6
0.253,-0.188,0.948,-37.252,9.291,-2.287,6
0.240,-0.187,0.924,-30.303,4.364,-3.738,6
0.238,-0.200,0.957,-35.087,7.025,-1.976,6
0.239,-0.185,0.910,-38.823,5.299,-3.289,6
0.239,-0.198,0.994,-36.763,5.263,-1.251,6
0.250,-0.155,0.936,-34.912,10.622,-0.836,6
0.245,-0.146,0.948,-30.408,6.989,0.027,6
0.253,-0.114,0.904,-29.185,7.421,-0.387,6
0.253,-0.122,0.953,-36.728,4.831,-1.389,6
0.254,-0.122,0.946,-40.534,6.737,-1.458,6
0.251,-0.132,0.990,-36.798,4.328,-0.698,6
0.244,-0.106,0.969,-24.297,6.558,1.478,6
0.257,-0.068,0.946,-18.954,4.112,1.927,6
0.252,-0.100,0.972,-26.881,4.400,-0.249,6
0.256,-0.045,0.960,-25.763,4.723,0.614,6
0.255,-0.061,0.967,-21.119,3.357,-1.596,6
0.257,-0.058,0.963,-12.249,2.853,0.027,6
0.257,-0.043,0.959,-7.081,1.738,-0.111,6
0.256,-0.044,0.936,-7.500,1.163,-0.387,6
0.256,-0.051,0.963,-6.592,0.623,-0.595,6
0.265,-0.044,0.956,-3.554,-0.420,-0.733,6
0.255,-0.066,0.939,-1.459,0.587,-1.216,6
0.262,-0.058,0.937,-7.919,-1.139,-0.871,6
0.259,-0.057,0.966,-5.195,-0.492,0.131,6
0.258,-0.041,0.939,-5.754,-2.758,-1.424,6
0.250,-0.074,0.979,-9.595,-2.038,-1.182,6
0.252,-0.061,0.957,-9.106,-2.398,-0.007,6
0.255,-0.040,1.013,-12.040,1.019,3.412,6
0.250,-0.034,0.958,-2.995,0.515,0.683,6
0.257,-0.030,0.955,0.217,-1.535,2.859,6
0.254,-0.013,0.979,-0.935,-1.427,1.409,6
0.255,-0.000,0.920,-0.621,-1.894,-0.560,6
0.265,-0.027,1.000,-11.551,-2.470,-1.942,6
0.252,-0.027,0.945,-20.386,2.853,-2.702,6
0.254,-0.026,0.978,-16.998,-1.715,-3.220,6
0.250,-0.069,0.984,-13.087,-0.168,-1.078,6
0.250,-0.012,0.954,-8.652,1.019,2.445,6
0.248,-0.012,0.996,-9.979,-2.002,2.549,6
0.251,0.031,0.943,-9.735,1.990,-1.527,6
0.256,0.008,1.000,-14.868,0.048,-1.355,6
0.247,-0.018,0.951,-6.557,4.579,-1.182,6
0.254,0.017,0.962,-2.262,-1.139,0.994,6
0.262,0.006,0.964,-0.621,3.213,0.165,6
0.254,0.013,0.947,6.922,-0.204,0.476,6
0.263,0.028,0.940,-1.983,-3.837,-1.113,6
0.320,0.004,0.980,-7.814,1.235,-4.049,6
0.249,-0.039,0.938,4.094,-1.679,-1.562,6
0.248,0.006,0.910,14.709,-4.304,-0.215,6
0.255,-0.016,1.000,6.922,-7.253,-0.146,6
0.251,0.002,0.967,6.259,-0.995,-1.044,6
0.250,-0.007,0.958,9.646,-2.254,-1.251,6
0.253,-0.038,0.970,5.840,-1.966,-1.044,6
0.243,-0.008,0.938,5.630,-1.031,0.683,6
0.256,-0.003,0.973,4.198,-3.837,0.683,6
0.247,-0.005,0.967,3.989,-1.031,-0.940,6
0.246,0.000,0.959,2.313,-3.117,-2.529,6
0.244,-0.028,1.001,-2.995,-1.643,-2.391,6
0.237,-0.033,0.977,0.916,0.299,-0.767,6
0.240,-0.028,0.966,0.182,0.371,-0.146,6
0.244,-0.045,0.991,-0.621,0.515,0.372,6
0.247,-0.009,0.951,1.754,1.630,2.618,6
0.251,0.005,0.964,0.916,0.084,2.307,6
0.245,-0.010,0.974,-1.459,1.414,-0.906,6
0.245,0.002,0.926,-2.471,0.263,0.476,6
0.244,-0.006,0.986,0.462,-0.096,1.063,6
0.251,-0.004,0.940,-1.005,0.299,-1.009,6
0.249,-0.010,0.974,-0.551,0.875,0.165,6
0.250,-0.010,0.931,1.230,-1.463,-0.595,6
0.205,-0.316,1.085,137.489,23.246,-3.531,7
0.191,-0.325,0.900,185.853,39.719,1.650,7
0.210,-0.294,0.863,183.898,31.195,-3.047,7
0.236,-0.407,0.943,203.698,29.144,-2.218,7
0.226,-0.399,0.895,226.815,38.388,-1.527,7
0.228,-0.545,0.833,250.456,39.071,-2.494,7
0.252,-0.528,0.861,341.213,39.035,3.930,7
0.205,-0.593,0.968,454.669,66.873,-3.496,7
0.248,-0.707,0.496,520.494,78.562,1.858,7
0.266,-0.752,0.326,589.042,51.120,-2.702,7
0.267,-0.928,0.095,564.703,34.899,1.478,7
0.284,-0.909,0.065,603.569,17.743,5.554,7
0.252,-1.055,-0.177,597.842,12.528,19.611,7
0.278,-0.743,-0.187,532.786,-7.469,19.197,7
0.325,-0.581,-0.182,576.681,12.924,-0.146,7
0.294,-0.714,-0.473,525.837,46.732,-20.179,7
0.298,-0.664,-0.774,402.289,53.206,-1.285,7
0.279,-0.547,-0.781,278.601,37.812,-1.873,7
0.269,-0.521,-0.812,256.008,35.403,-1.734,7
0.231,-0.358,-0.894,244.973,30.583,-0.698,7
0.277,-0.373,-0.750,219.202,46.228,-21.215,7
0.224,-0.436,-1.002,183.793,37.453,-13.927,7
0.220,-0.297,-0.916,178.555,37.165,-2.805,7
0.186,-0.249,-1.005,153.063,37.057,-4.809,7
0.186,-0.201,-0.924,151.632,30.259,-17.485,7
0.209,-0.146,-0.837,175.831,40.726,-11.475,7
0.167,-0.091,-1.026,161.025,47.056,-11.440,7
0.160,-0.098,-0.945,144.578,36.158,-12.926,7
0.134,0.012,-0.963,131.098,41.229,-4.981,7
0.116,0.084,-1.027,116.537,35.726,-2.218,7
0.127,0.114,-1.001,101.556,32.633,-9.575,7
0.130,0.085,-0.944,106.480,28.425,-12.753,7
0.116,0.105,-0.963,135.743,42.344,-8.539,7
0.071,0.237,-1.019,116.537,36.841,-5.914,7
0.071,0.210,-1.031,80.045,32.489,-9.748,7
0.066,0.256,-1.020,64.017,27.238,-12.338,7
0.068,0.210,-0.969,70.232,29.144,-16.483,7
0.064,0.185,-0.965,73.690,28.065,-17.554,7
0.059,0.158,-0.963,84.270,34.575,-5.534,7
0.030,0.274,-1.025,73.305,30.367,1.236,7
0.023,0.323,-1.036,46.626,18.966,3.101,7
0.029,0.363,-0.949,39.538,13.391,-0.007,7
0.027,0.369,-0.947,47.534,19.002,-2.253,7
0.022,0.343,-0.941,60.525,22.095,-0.007,7
0.022,0.360,-0.899,58.045,19.002,1.789,7
0.012,0.388,-0.935,58.325,20.189,8.248,7
-0.013,0.481,-0.936,56.474,20.189,3.999,7
0.001,0.497,-0.926,55.147,15.118,-2.011,7
-0.024,0.478,-0.974,44.077,10.945,-1.873,7
-0.017,0.444,-0.850,27.106,3.860,-2.702,7
-0.022,0.446,-0.953,15.512,4.543,2.410,7
-0.012,0.479,-0.896,9.681,1.594,4.483,7
-0.019,0.508,-0.914,4.094,-0.456,-0.733,7
-0.015,0.513,-0.915,-6.976,-4.772,-3.427,7
-0.001,0.452,-0.879,-5.510,-0.672,-1.976,7
0.007,0.416,-0.892,-8.163,-3.981,-3.496,7
-0.008,0.414,-0.923,-11.271,-1.966,1.754,7
0.000,0.467,-0.901,-10.957,-3.729,3.447,7
-0.001,0.454,-0.886,-11.306,-7.002,-3.392,7
0.001,0.451,-0.928,-21.014,-5.851,-2.045,7
0.007,0.379,-0.904,-17.103,-5.024,-1.147,7
0.013,0.448,-0.904,-18.186,-7.397,1.063,7
0.010,0.424,-0.920,-17.103,-5.851,0.372,7
0.008,0.445,-0.928,-26.846,-9.088,-1.458,7
0.008,0.420,-0.940,-41.617,-10.059,-2.322,7
0.009,0.403,-0.888,-53.455,-12.576,-4.256,7
0.014,0.403,-0.941,-49.649,-8.332,0.614,7
0.029,0.395,-0.936,-45.668,-12.936,-6.674,7
0.027,0.326,-0.927,-43.433,-10.850,-4.705,7
0.037,0.394,-0.946,-61.696,-9.951,-5.879,7
0.024,0.296,-0.972,-81.112,-13.476,-8.504,7
0.036,0.365,-1.025,-111.423,-19.590,-7.503,7
0.052,0.254,-0.917,-122.353,-25.093,-17.139,7
0.066,0.229,-1.024,-130.419,-21.640,-12.787,7
0.071,0.130,-0.945,-130.803,-23.223,-13.064,7
0.085,0.146,-1.034,-164.850,-23.438,-10.197,7
0.073,0.158,-0.992,-310.642,-26.352,-5.430,7
0.080,-0.029,-1.110,-308.408,-45.558,-15.723,7
0.103,-0.160,-0.996,-308.652,-66.706,-13.755,7
0.102,-0.244,-0.824,-303.274,-53.182,-4.912,7
0.150,-0.297,-0.895,-313.366,-32.718,0.303,7
0.125,-0.429,-0.863,-331.315,-28.042,-0.077,7
0.139,-0.522,-0.853,-356.772,-21.065,4.034,7
0.170,-0.561,-0.794,-365.642,-26.531,1.685,7
0.173,-0.650,-0.712,-371.054,-29.553,-4.083,7
0.159,-0.773,-0.603,-328.137,-32.826,-4.187,7
0.169,-0.806,-0.440,-295.871,-31.243,0.165,7
0.188,-0.871,-0.405,-280.890,-19.770,-1.838,7
0.191,-0.916,-0.311,-264.338,-17.576,2.272,7
0.188,-0.925,-0.238,-253.199,-8.908,6.762,7
0.186,-0.970,-0.184,-213.809,-4.556,3.757,7
0.192,-0.950,-0.190,-209.828,-5.311,4.206,7
0.191,-0.976,-0.083,-209.863,-12.361,2.790,7
0.198,-0.996,-0.019,-200.853,-8.117,5.484,7
0.198,-0.945,0.039,-193.974,-7.218,8.938,7
0.201,-0.953,0.126,-182.101,-5.779,3.861,7
0.210,-0.945,0.181,-150.009,-1.787,2.998,7
0.207,-0.901,0.131,-171.765,-2.542,-2.978,7
0.187,-0.942,0.246,-176.549,-12.325,-5.534,7
0.195,-0.940,0.370,-146.482,-7.253,-2.287,7
0.203,-0.906,0.349,-122.178,2.817,0.856,7
0.193,-0.884,0.321,-153.676,-1.966,-2.736,7
0.204,-0.866,0.409,-142.397,-5.239,-0.180,7
0.188,-0.852,0.471,-151.790,-5.599,-5.258,7
0.190,-0.843,0.502,-134.086,-4.412,-4.429,7
0.188,-0.818,0.533,-142.257,-6.642,-5.050,7
0.179,-0.818,0.627,-123.226,-2.614,-2.702,7
0.191,-0.763,0.531,-111.911,2.026,-1.942,7
0.179,-0.763,0.633,-139.394,-7.218,-3.151,7
0.182,-0.733,0.701,-123.854,-2.866,-1.424,7
0.178,-0.681,0.720,-92.286,-0.348,-1.493,7
0.175,-0.688,0.750,-66.445,-0.456,-2.736,7
0.174,-0.651,0.708,-55.236,4.939,-1.562,7
0.178,-0.664,0.689,-96.058,-1.751,-5.085,7
0.172,-0.656,0.765,-110.934,-0.240,-1.700,7
0.177,-0.611,0.797,-102.483,-0.384,8.386,7
0.176,-0.539,0.811,-79.855,1.307,0.165,7
0.183,-0.549,0.806,-64.979,3.572,-1.804,7
0.175,-0.535,0.776,-74.477,0.192,-2.840,7
0.174,-0.557,0.856,-63.372,-0.096,-1.873,7
0.172,-0.511,0.820,-59.671,2.098,-0.560,7
0.176,-0.493,0.880,-57.925,-0.384,-0.629,7
0.176,-0.479,0.852,-46.820,4.004,0.372,7
0.183,-0.434,0.861,-49.090,2.817,-1.355,7
0.166,-0.485,0.882,-60.649,2.350,-3.323,7
0.176,-0.455,0.878,-58.903,6.342,0.545,7
0.175,-0.419,0.905,-51.220,4.903,0.096,7
0.177,-0.394,0.906,-38.090,5.622,0.131,7
0.186,-0.374,0.875,-30.373,5.155,-0.733,7
0.184,-0.402,0.867,-46.436,5.227,-2.080,7
0.186,-0.382,0.914,-50.731,3.285,-0.698,7
0.181,-0.346,0.907,-48.112,5.227,-2.184,7
0.179,-0.362,0.945,-35.541,3.536,-1.355,7
0.189,-0.339,0.898,-28.627,5.910,0.131,7
0.189,-0.332,0.913,-30.792,1.846,0.338,7
0.189,-0.286,0.905,-39.801,2.565,-0.975,7
0.188,-0.305,0.968,-42.036,1.702,-2.840,7
0.187,-0.298,0.955,-39.242,4.687,-0.906,7
0.186,-0.279,0.950,-31.385,3.752,-0.491,7
0.194,-0.260,0.934,-36.623,5.587,-1.216,7
0.195,-0.235,0.942,-49.893,6.306,-2.287,7
0.189,-0.246,0.957,-59.706,5.694,-5.879,7
0.192,-0.255,1.004,-52.791,8.788,-4.325,7
0.195,-0.240,0.929,-45.004,9.723,0.511,7
0.210,-0.183,0.958,-34.668,6.342,1.823,7
0.210,-0.180,0.905,-51.779,8.104,-0.353,7
0.209,-0.134,0.971,-59.496,6.018,-0.629,7
0.207,-0.164,0.993,-59.147,10.802,-1.562,7
0.209,-0.121,0.953,-43.119,10.730,2.687,7
0.216,-0.106,0.957,-24.297,6.018,2.445,7
0.218,-0.068,0.977,-15.008,3.860,0.856,7
0.218,-0.081,0.959,-15.287,6.737,-3.185,7
0.209,-0.123,0.969,-21.503,5.011,-2.598,7
0.214,-0.103,0.970,-16.928,5.910,-0.077,7
0.228,-0.103,0.963,-15.182,3.932,1.685,7
0.212,-0.092,0.969,-14.938,4.687,2.445,7
0.216,-0.073,0.963,-6.871,1.666,1.789,7
0.214,-0.086,0.968,-8.059,0.084,0.476,7
0.228,-0.084,0.960,-11.865,3.321,2.756,7
0.221,-0.100,0.978,-10.049,2.206,3.550,7
0.215,-0.079,0.967,-10.294,2.745,3.827,7
0.219,-0.058,0.955,-9.316,0.911,4.345,7
0.228,-0.064,0.969,-7.884,-0.851,3.101,7
0.238,-0.064,0.967,-11.062,1.486,3.619,7
0.218,-0.071,0.983,-13.367,0.767,3.619,7
0.227,-0.036,0.974,-12.843,1.774,3.688,7
0.219,-0.040,0.978,-5.963,1.307,3.447,7
0.223,-0.046,0.984,-6.836,1.450,1.512,7
0.224,-0.029,0.940,-6.068,2.350,2.065,7
0.222,-0.023,0.953,-5.649,-0.312,2.790,7
0.235,-0.032,0.989,-5.579,0.263,0.131,7
0.220,-0.046,0.956,-7.919,2.242,1.961,7
0.230,-0.028,0.991,-4.881,-0.312,1.201,7
0.223,-0.030,0.960,-3.938,3.249,1.789,7
0.227,-0.012,0.957,-4.811,1.954,0.614,7
0.227,-0.021,0.970,-5.230,0.156,-0.146,7
0.224,-0.035,0.968,-8.094,1.307,-0.802,7
0.224,0.017,0.968,-5.195,0.156,0.131,7
0.230,-0.025,0.992,0.322,-1.751,0.787,7
0.224,-0.037,0.946,-0.900,1.558,0.407,7
0.228,-0.021,0.972,-2.716,0.875,1.132,7
0.227,-0.015,0.957,-0.900,-0.528,-0.456,7
0.229,-0.046,0.993,-6.383,1.918,-0.042,7
0.227,-0.010,0.923,-5.824,2.889,1.063,7
0.225,-0.028,0.999,-1.040,-1.535,0.200,7
0.217,-0.019,0.951,4.094,-1.175,0.131,7
0.230,-0.012,1.008,-6.452,0.803,0.200,7
0.228,-0.031,0.962,-5.405,3.536,1.029,7
0.222,-0.002,0.931,0.462,0.299,0.856,7
0.231,-0.009,1.003,-0.237,-2.938,-0.353,7
0.228,-0.026,0.948,0.846,0.228,0.891,7
0.226,0.014,0.955,2.906,-2.074,-0.422,7
0.224,-0.023,1.005,-2.995,-2.038,-0.456,7
0.221,-0.014,0.918,0.741,-0.744,-0.422,7
0.233,0.001,0.994,0.392,0.911,0.856,7
0.222,-0.026,1.000,-1.598,1.019,0.960,7
0.220,-0.011,0.966,1.649,1.882,0.096,7
0.220,-0.020,0.966,-1.738,-0.528,0.165,7
0.223,-0.006,0.947,0.951,0.120,-1.044,7
0.229,-0.035,0.982,-6.417,1.414,-0.180,7
0.149,-0.181,1.049,316.176,10.694,-6.466,8
0.233,-0.249,1.052,290.405,18.139,8.248,8
0.244,-0.320,0.910,294.525,31.770,0.476,8
0.259,-0.361,0.816,325.115,39.215,-1.838,8
0.232,-0.509,0.826,304.408,29.360,-10.853,8
0.247,-0.557,0.844,294.839,36.050,-2.978,8
0.241,-0.568,0.739,308.842,61.190,-5.465,8
0.253,-0.716,0.516,308.458,58.169,-18.452,8
0.253,-0.838,0.427,303.465,40.977,-0.387,8
0.274,-0.741,0.629,369.499,28.101,-1.355,8
0.247,-0.959,0.495,451.003,54.393,7.315,8
0.262,-0.957,0.209,540.643,56.767,20.924,8
0.279,-0.856,-0.079,543.087,46.013,27.521,8
0.278,-0.862,-0.260,481.104,23.749,22.547,8
0.293,-0.777,-0.280,523.322,2.026,3.308,8
0.312,-0.791,-0.320,446.882,7.493,1.063,8
0.301,-0.846,-0.518,431.901,20.692,-0.906,8
0.308,-0.696,-0.630,392.581,25.008,9.526,8
0.267,-0.648,-0.727,375.959,28.137,10.009,8
0.276,-0.404,-0.729,302.277,24.325,19.335,8
0.291,-0.315,-0.703,228.526,37.345,-0.215,8
0.294,-0.481,-0.892,182.222,27.994,-8.366,8
0.240,-0.365,-0.848,169.057,36.014,1.512,8
0.248,-0.270,-0.971,152.190,37.597,-4.601,8
0.253,-0.261,-0.923,125.721,28.065,-10.577,8
0.244,-0.287,-0.959,100.334,26.015,-10.473,8
0.230,-0.323,-0.918,92.686,24.685,-6.639,8
0.229,-0.226,-0.900,96.702,29.468,-3.772,8
0.218,-0.194,-0.913,112.730,33.604,-5.948,8
0.189,-0.144,-0.968,109.692,37.561,-5.879,8
0.197,-0.158,-0.955,109.413,31.914,-10.266,8
0.178,-0.102,-0.998,99.915,32.849,-5.465,8
0.166,-0.038,-0.997,102.429,32.058,-3.323,8
0.162,0.020,-0.987,85.562,26.663,-10.542,8
0.158,-0.043,-0.987,93.070,31.734,-13.271,8
0.134,-0.036,-0.967,91.918,31.410,-10.231,8
0.129,0.014,-1.081,66.182,27.382,-2.840,8
0.147,0.035,-0.888,83.747,24.289,-1.458,8
0.113,0.163,-1.044,88.461,33.101,-1.631,8
0.101,0.133,-1.003,86.540,25.476,-12.373,8
0.086,0.116,-0.997,61.852,23.929,-8.919,8
0.087,0.125,-1.012,50.642,21.807,-4.429,8
0.087,0.185,-0.974,52.423,20.009,-2.425,8
0.084,0.216,-0.971,66.252,24.577,-6.777,8
0.074,0.198,-0.996,62.794,20.908,-10.577,8
0.066,0.190,-1.014,44.252,16.017,-5.534,8
0.082,0.195,-0.932,39.817,14.362,-0.560,8
0.058,0.273,-1.002,42.576,18.139,2.928,8
0.057,0.300,-0.949,47.080,14.326,-3.289,8
0.047,0.280,-1.008,43.588,16.664,-3.392,8
0.050,0.271,-0.951,38.804,12.384,-2.494,8
0.045,0.307,-0.970,29.515,11.881,-1.355,8
0.033,0.326,-0.954,31.017,11.521,-0.906,8
0.029,0.354,-0.980,21.763,8.428,-3.185,8
0.027,0.308,-1.027,4.478,1.738,-2.702,8
0.040,0.304,-0.953,-2.471,-3.189,-0.733,8
0.050,0.315,-0.934,4.478,2.134,0.614,8
0.036,0.315,-0.946,11.322,3.968,-0.664,8
0.043,0.326,-0.931,5.421,-0.420,0.476,8
0.029,0.374,-0.979,3.570,0.875,0.062,8
0.038,0.330,-0.928,3.919,0.192,-3.116,8
0.047,0.285,-0.951,2.802,2.925,-2.667,8
0.037,0.327,-0.932,-1.354,-0.744,1.581,8
0.051,0.341,-0.923,-3.100,-0.132,-1.424,8
0.045,0.347,-0.957,0.287,0.875,-1.804,8
0.035,0.330,-0.940,1.055,2.493,-1.804,8
0.037,0.313,-0.947,-5.160,-0.348,-3.358,8
0.050,0.275,-0.930,-1.179,1.954,0.476,8
0.041,0.335,-0.949,-2.681,-1.139,0.200,8
0.039,0.340,-0.968,-3.938,1.954,-0.042,8
0.049,0.311,-0.915,2.417,3.716,-0.733,8
0.028,0.333,-0.959,-0.551,0.299,-2.529,8
0.034,0.313,-0.967,-4.602,0.947,-3.358,8
0.034,0.315,-0.961,-12.528,-2.290,-2.149,8
0.049,0.283,-0.914,-12.843,-2.758,-3.772,8
0.038,0.279,-0.982,-9.525,0.803,-1.389,8
0.036,0.354,-0.985,-23.912,-4.088,0.580,8
0.033,0.328,-0.996,-41.093,-8.225,-2.494,8
0.030,0.294,-1.030,-64.874,-14.123,-8.263,8
0.076,0.211,-0.921,-60.229,-18.583,-9.264,8
0.066,0.247,-0.967,-65.572,-11.174,-0.664,8
0.064,0.224,-1.008,-81.251,-15.058,-4.463,8
0.077,0.228,-1.011,-86.559,-19.878,-6.121,8
0.070,0.193,-1.038,-101.854,-25.488,-10.266,8
0.085,0.173,-1.011,-130.000,-34.660,-16.483,8
0.112,0.030,-0.858,-119.978,-30.811,-19.177,8
0.143,0.097,-0.819,-98.956,-19.302,-14.791,8
0.119,-0.024,-0.950,-56.039,4.364,-14.618,8
0.128,0.085,-1.022,-85.791,-7.721,-14.031,8
0.099,-0.080,-1.056,-88.236,-8.764,-15.758,8
0.092,-0.023,-1.024,-134.959,-13.476,-11.509,8
0.116,-0.049,-0.994,-179.028,-21.784,-17.658,8
0.135,-0.173,-0.927,-175.152,-19.734,-20.006,8
0.137,-0.318,-0.940,-127.556,-10.023,-15.551,8
0.130,-0.398,-0.939,-102.762,-13.512,-3.185,8
0.143,-0.326,-0.947,-108.978,-6.930,12.185,8
0.130,-0.283,-0.982,-147.216,-9.304,10.251,8
0.150,-0.319,-0.975,-190.866,-16.389,5.657,8
0.147,-0.402,-0.877,-187.863,-17.899,-2.184,8
0.157,-0.517,-0.792,-135.203,-15.238,-1.769,8
0.153,-0.489,-0.823,-111.108,-4.700,-1.113,8
0.152,-0.557,-0.841,-119.454,-5.347,-2.184,8
0.168,-0.576,-0.774,-137.508,-5.923,2.238,8
0.164,-0.610,-0.836,-181.368,-1.355,5.554,8
0.159,-0.618,-0.792,-213.075,-11.210,3.585,8
0.164,-0.715,-0.721,-233.539,-19.626,1.961,8
0.172,-0.706,-0.626,-272.056,-18.763,3.032,8
0.178,-0.792,-0.522,-269.541,-19.050,-0.733,8
0.181,-0.884,-0.441,-240.942,-10.239,-1.734,8
0.186,-0.885,-0.432,-232.526,-6.067,3.585,8
0.182,-0.891,-0.392,-263.884,-7.829,1.374,8
0.188,-0.947,-0.272,-270.275,-12.541,6.279,8
0.182,-0.898,-0.126,-263.430,-10.706,2.479,8
0.194,-0.957,-0.064,-246.704,-5.851,-5.568,8
0.172,-0.978,0.014,-223.272,-1.894,-4.152,8
0.191,-0.990,0.020,-185.174,0.587,-3.980,8
0.171,-1.027,0.062,-197.396,-2.614,-0.871,8
0.175,-0.936,0.201,-169.460,-7.182,4.552,8
0.183,-0.952,0.235,-150.568,2.853,-0.906,8
0.170,-0.929,0.225,-124.797,5.982,-1.631,8
0.177,-0.936,0.297,-99.061,0.767,-12.684,8
0.182,-0.937,0.256,-93.962,1.378,-8.263,8
0.185,-0.927,0.310,-112.854,-7.289,-11.786,8
0.175,-0.959,0.388,-132.829,-3.729,-5.638,8
0.173,-0.876,0.418,-144.457,-0.851,-3.185,8
0.157,-0.912,0.482,-141.663,-1.499,-4.290,8
0.164,-0.850,0.477,-123.191,1.990,-0.284,8
0.168,-0.860,0.495,-105.975,-2.830,-1.838,8
0.164,-0.806,0.566,-133.213,-5.455,-1.976,8
0.168,-0.817,0.617,-124.657,0.731,0.338,8
0.165,-0.755,0.635,-133.737,3.321,-1.285,8
0.160,-0.751,0.642,-121.026,6.234,-0.975,8
0.160,-0.723,0.669,-113.797,1.954,-1.285,8
0.157,-0.695,0.678,-92.496,2.026,0.960,8
0.171,-0.646,0.698,-84.290,-4.160,-1.527,8
0.167,-0.681,0.775,-81.636,0.048,-1.424,8
0.162,-0.637,0.752,-80.378,5.011,1.374,8
0.155,-0.587,0.752,-104.473,4.220,0.372,8
0.163,-0.582,0.773,-86.559,0.911,-0.284,8
0.172,-0.549,0.817,-71.613,-1.391,-2.184,8
0.168,-0.574,0.824,-72.382,1.918,-2.805,8
0.162,-0.526,0.819,-87.363,1.307,-2.633,8
0.157,-0.531,0.870,-68.610,3.321,-1.044,8
0.168,-0.476,0.838,-44.376,3.464,0.891,8
0.166,-0.464,0.849,-56.912,0.911,-3.461,8
0.167,-0.483,0.867,-56.842,2.745,-2.184,8
0.166,-0.490,0.866,-61.172,3.429,-1.355,8
0.165,-0.434,0.866,-68.785,2.314,2.065,8
0.166,-0.409,0.922,-54.712,-0.780,1.478,8
0.169,-0.368,0.912,-34.947,2.637,-2.322,8
0.171,-0.393,0.874,-31.455,3.500,-3.738,8
0.167,-0.420,0.914,-40.954,1.055,-2.978,8
0.172,-0.363,0.910,-60.264,2.925,0.614,8
0.166,-0.349,0.928,-49.160,3.680,0.718,8
0.172,-0.314,0.922,-37.741,0.012,-1.113,8
0.170,-0.308,0.929,-30.722,2.421,-1.493,8
0.173,-0.316,0.949,-31.420,5.119,-2.840,8
0.163,-0.336,0.922,-30.897,8.320,-1.804,8
0.170,-0.315,0.915,-30.198,1.630,0.787,8
0.168,-0.326,0.980,-29.150,1.199,0.649,8
0.176,-0.271,0.900,-34.214,5.371,2.549,8
0.172,-0.269,0.966,-26.147,0.911,0.683,8
0.173,-0.261,0.947,-22.341,5.515,-0.215,8
0.178,-0.262,0.951,-30.443,3.105,-0.180,8
0.177,-0.250,0.913,-26.741,5.802,2.203,8
0.181,-0.218,0.967,-16.440,-1.211,1.478,8
0.180,-0.226,0.934,-13.646,3.213,-0.836,8
0.178,-0.226,0.969,-17.452,0.335,-1.389,8
0.174,-0.256,0.975,-21.957,5.730,-1.251,8
0.176,-0.238,0.948,-20.805,2.421,-1.147,8
0.175,-0.232,0.968,-12.144,0.263,1.167,8
0.183,-0.206,0.960,-10.713,3.141,2.687,8
0.181,-0.182,0.968,-2.157,1.271,-0.111,8
0.181,-0.213,0.923,-13.716,6.198,-1.769,8
0.176,-0.233,0.968,-17.138,0.371,-0.664,8
0.191,-0.193,0.979,-15.951,5.551,0.131,8
0.180,-0.219,0.948,-11.446,2.457,1.271,8
0.187,-0.164,0.946,-8.722,-0.060,1.132,8
0.182,-0.181,0.964,-9.211,1.522,0.718,8
0.185,-0.185,0.969,-4.252,1.522,-0.456,8
0.187,-0.203,0.967,-9.036,1.055,-0.180,8
0.186,-0.170,0.951,-4.217,2.889,1.512,8
0.182,-0.165,0.962,3.395,-0.168,-0.733,8
0.190,-0.189,0.937,-5.335,0.407,-1.493,8
0.186,-0.182,1.004,-3.135,-0.240,1.581,8
0.183,-0.181,0.945,0.846,2.601,-0.802,8
0.185,-0.208,0.976,-7.849,0.156,0.096,8
0.186,-0.154,0.946,-7.989,2.961,2.307,8
0.194,-0.159,0.958,-6.068,0.084,-1.182,8
0.187,-0.202,0.975,-11.935,2.781,1.374,8
0.187,-0.157,0.950,-7.779,0.263,1.236,8
0.190,-0.179,0.969,-4.287,0.659,-0.629,8
0.191,-0.157,0.990,-6.906,-1.607,0.891,8
0.188,-0.151,0.944,-3.135,3.752,1.132,8
0.191,-0.166,0.957,-0.341,0.120,1.063,8
0.193,-0.134,0.921,-2.786,0.263,0.718,8
0.190,-0.161,0.986,-6.767,-1.823,-0.215,8
0.189,-0.159,0.967,-3.030,1.378,-0.802,8
0.188,-0.174,0.969,1.963,-0.348,0.131,8
0.135,-0.131,0.959,3.814,2.673,-0.111,8
0.212,-0.885,0.591,590.404,73.563,-12.131,9
0.219,-0.922,0.168,626.023,66.549,24.033,9
0.294,-0.836,0.021,654.797,36.338,28.592,9
0.299,-0.818,-0.275,617.432,17.923,15.432,9
0.297,-0.854,-0.327,600.322,0.947,1.789,9
0.271,-0.824,-0.517,501.427,6.090,13.394,9
0.328,-0.616,-0.376,346.940,6.845,10.320,9
0.285,-0.732,-0.503,321.274,28.317,7.660,9
0.249,-0.542,-0.599,338.036,34.575,11.840,9
0.261,-0.494,-0.854,321.588,45.185,6.382,9
0.266,-0.439,-0.958,246.929,24.073,2.479,9
0.247,-0.411,-0.913,173.876,18.894,0.442,9
0.258,-0.369,-0.870,164.971,10.082,1.996,9
0.255,-0.282,-0.848,126.349,22.455,2.998,9
0.231,-0.260,-0.939,111.299,25.548,-7.468,9
0.230,-0.237,-0.969,105.188,30.151,-8.090,9
0.223,-0.272,-0.929,108.645,21.124,-13.824,9
0.202,-0.279,-0.960,110.984,21.699,-6.570,9
0.209,-0.183,-0.906,102.429,25.548,-5.189,9
0.213,-0.134,-0.908,105.397,27.634,-9.541,9
0.193,-0.107,-0.972,112.695,34.971,-8.297,9
0.172,-0.058,-1.015,106.480,29.468,-13.409,9
0.178,-0.094,-0.957,110.216,24.397,-14.549,9
0.156,-0.057,-0.981,113.499,29.720,-7.157,9
0.172,0.023,-0.905,98.623,24.001,-5.327,9
0.154,0.023,-0.951,99.880,38.891,-6.432,9
0.126,0.119,-1.041,91.673,30.080,-6.259,9
0.128,0.096,-1.053,85.528,27.562,-8.781,9
0.117,0.073,-1.016,83.747,17.527,-6.501,9
0.105,0.158,-0.999,79.626,17.060,-4.187,9
0.123,0.147,-0.871,73.794,22.239,-2.114,9
0.101,0.206,-1.045,73.724,27.814,-0.698,9
0.095,0.235,-0.973,69.988,23.138,-5.465,9
0.079,0.249,-1.012,69.080,20.764,-7.019,9
0.081,0.230,-0.980,71.280,18.858,-6.985,9
0.079,0.255,-0.938,63.423,17.671,-0.284,9
0.069,0.302,-1.023,47.639,14.434,4.586,9
0.073,0.361,-0.965,38.001,11.089,3.585,9
0.066,0.365,-0.959,35.627,9.579,1.512,9
0.066,0.377,-0.936,33.566,9.147,-4.187,9
0.060,0.324,-0.964,30.738,11.773,-3.047,9
0.061,0.328,-0.944,16.805,6.558,0.649,9
0.061,0.378,-0.909,8.109,2.565,1.029,9
0.068,0.356,-0.916,23.649,5.694,-1.907,9
0.061,0.351,-0.913,24.243,7.133,-3.151,9
0.056,0.344,-0.926,24.173,9.075,-1.596,9
0.057,0.327,-0.911,19.843,7.529,2.272,9
0.050,0.406,-0.960,13.976,7.780,5.968,9
0.054,0.405,-0.928,18.900,7.457,4.586,9
0.047,0.415,-0.922,22.776,4.292,-1.665,9
0.054,0.393,-0.927,21.693,4.292,-2.909,9
0.040,0.392,-0.969,7.621,3.644,0.269,9
0.040,0.396,-0.952,3.675,-0.744,2.099,9
0.045,0.402,-0.933,5.525,-0.276,-1.009,9
0.059,0.418,-0.894,8.494,-2.326,-3.392,9
0.057,0.380,-0.914,11.357,-0.456,-3.496,9
0.052,0.391,-0.917,2.557,0.120,-1.320,9
0.064,0.347,-0.900,5.665,-1.607,0.303,9
0.046,0.431,-0.917,7.132,0.623,4.034,9
0.051,0.427,-0.920,6.573,0.803,1.029,9
0.055,0.405,-0.875,10.030,-0.564,-1.355,9
0.044,0.430,-0.910,2.697,0.335,-0.698,9
0.054,0.400,-0.906,-0.516,-2.326,-0.871,9
0.043,0.433,-0.943,1.719,1.594,1.443,9
0.050,0.414,-0.889,-4.148,-1.715,0.303,9
0.050,0.400,-0.935,-5.021,-2.074,-0.491,9
0.048,0.401,-0.926,-6.383,-2.470,1.132,9
0.045,0.401,-0.907,-15.567,-2.938,2.376,9
0.045,0.411,-0.937,-33.166,-1.894,3.274,9
0.047,0.446,-0.975,-52.023,-8.440,3.032,9
0.052,0.461,-0.982,-78.702,-14.806,-4.394,9
0.064,0.394,-0.976,-96.337,-16.892,-6.225,9
0.076,0.363,-0.936,-114.356,-20.525,-9.506,9
0.066,0.234,-0.956,-115.683,-16.137,-10.577,9
0.073,0.320,-0.957,-124.657,-18.223,-11.371,9
0.071,0.207,-0.967,-137.892,-23.079,-18.763,9
0.103,0.150,-0.999,-154.200,-22.072,-17.139,9
0.105,0.053,-0.912,-143.863,-21.496,-17.243,9
0.123,0.076,-0.996,-149.486,-15.346,-8.781,9
0.121,0.050,-1.026,-180.704,-20.201,-18.348,9
0.125,-0.108,-1.009,-202.844,-22.323,-16.000,9
0.140,-0.182,-1.012,-240.558,-25.848,-6.397,9
0.118,-0.255,-0.947,-314.379,-20.993,-0.664,9
0.153,-0.378,-0.906,-288.887,-23.187,11.356,9
0.161,-0.374,-0.817,-266.538,-16.245,14.223,9
0.151,-0.439,-0.829,-265.560,-2.398,9.698,9
0.151,-0.521,-0.893,-265.421,0.587,12.738,9
0.155,-0.511,-0.838,-258.926,-11.390,6.728,9
0.170,-0.608,-0.778,-265.875,-17.899,-1.044,9
0.177,-0.701,-0.608,-279.668,-23.438,-6.536,9
0.165,-0.780,-0.497,-242.618,-8.764,-5.534,9
0.173,-0.831,-0.548,-221.247,5.011,2.203,9
0.187,-0.833,-0.593,-209.863,-3.657,0.891,9
0.169,-0.887,-0.461,-233.469,-17.648,-4.774,9
0.174,-0.905,-0.326,-245.691,-17.108,-1.458,9
0.179,-0.917,-0.227,-238.881,-8.584,-0.595,9
0.179,-0.940,-0.183,-226.729,-6.498,-5.050,9
0.171,-0.964,-0.127,-209.199,-6.894,-6.121,9
0.173,-0.992,-0.062,-170.962,-7.074,-5.879,9
0.174,-0.998,-0.031,-150.987,-5.311,-4.221,9
0.165,-0.983,-0.025,-158.600,-5.527,1.443,9
0.170,-0.938,0.089,-163.139,-10.886,-1.942,9
0.185,-0.969,0.163,-166.562,-4.448,-6.156,9
0.170,-0.982,0.178,-159.054,0.443,-4.981,9
0.155,-0.978,0.201,-148.054,-1.966,-3.565,9
0.166,-0.927,0.263,-126.543,-7.361,-2.909,9
0.171,-0.954,0.323,-138.800,-2.362,-2.702,9
0.159,-0.903,0.345,-130.279,-1.247,-1.942,9
0.155,-0.934,0.396,-117.149,1.594,-2.322,9
0.172,-0.875,0.391,-101.889,2.062,-1.389,9
0.160,-0.871,0.411,-112.854,-1.894,-4.809,9
0.161,-0.863,0.463,-115.788,-4.592,-3.980,9
0.160,-0.859,0.512,-112.854,-2.686,-5.154,9
0.157,-0.820,0.545,-107.337,1.019,-2.736,9
0.160,-0.805,0.525,-110.584,2.529,-6.501,9
0.153,-0.824,0.572,-118.651,-1.499,-5.638,9
0.152,-0.789,0.617,-108.559,-2.218,-1.942,9
0.143,-0.723,0.629,-113.972,-2.794,-1.113,9
0.146,-0.740,0.695,-119.978,-1.930,-4.187,9
0.149,-0.697,0.715,-126.299,5.658,-1.078,9
0.147,-0.660,0.735,-111.946,5.479,-4.601,9
0.140,-0.657,0.739,-96.372,3.033,-2.978,9
0.152,-0.634,0.759,-62.953,-2.182,-2.771,9
0.144,-0.613,0.760,-50.312,-0.744,-1.631,9
0.144,-0.593,0.765,-70.810,8.572,-1.873,9
0.131,-0.573,0.833,-95.848,1.450,-4.429,9
0.143,-0.570,0.791,-82.159,5.191,-3.634,9
0.150,-0.545,0.813,-61.207,-1.715,-1.907,9
0.148,-0.508,0.819,-63.687,-0.348,-0.249,9
0.145,-0.485,0.869,-57.191,-3.189,-1.838,9
0.145,-0.475,0.843,-57.855,0.623,-4.187,9
0.132,-0.499,0.882,-65.991,-0.744,-4.187,9
0.139,-0.456,0.967,-56.947,0.983,-2.322,9
0.139,-0.489,0.895,-45.563,5.371,-1.078,9
0.137,-0.436,0.849,-29.150,1.558,2.894,9
0.144,-0.387,0.877,-37.985,-2.326,-0.215,9
0.135,-0.416,0.922,-49.265,-1.463,-1.216,9
0.142,-0.388,0.929,-44.096,2.637,-0.698,9
0.151,-0.383,0.905,-38.858,1.450,-0.836,9
0.142,-0.381,0.908,-50.731,3.464,0.649,9
0.145,-0.331,0.909,-47.519,0.407,1.996,9
0.142,-0.345,0.936,-45.912,1.450,-1.527,9
0.146,-0.330,0.910,-48.915,0.983,-1.424,9
0.141,-0.337,0.951,-38.858,1.163,-0.836,9
0.140,-0.302,0.931,-33.271,0.515,0.891,9
0.139,-0.305,0.936,-32.119,-0.672,1.478,9
0.149,-0.276,0.958,-43.398,3.249,-0.940,9
0.139,-0.307,0.965,-49.579,5.263,-0.077,9
0.142,-0.258,0.947,-45.074,5.263,3.274,9
0.148,-0.243,0.969,-30.652,2.098,4.690,9
0.156,-0.188,0.949,-22.201,2.314,4.276,9
0.146,-0.216,0.990,-25.763,2.529,0.787,9
0.155,-0.208,0.963,-33.830,8.644,1.892,9
0.157,-0.205,0.961,-35.960,7.241,1.271,9
0.156,-0.217,0.980,-34.144,8.284,4.690,9
0.152,-0.170,0.963,-39.661,12.744,4.137,9
0.161,-0.163,0.983,-40.884,13.859,3.447,9
0.163,-0.154,0.969,-37.741,11.485,1.236,9
0.165,-0.160,0.978,-24.716,8.752,1.132,9
0.169,-0.143,0.927,-21.398,7.421,1.374,9
0.173,-0.112,0.944,-16.055,-0.096,1.858,9
0.170,-0.125,0.963,-18.989,-1.067,-1.285,9
0.167,-0.126,1.002,-18.081,-1.787,-1.942,9
0.166,-0.146,0.959,-18.430,2.278,-2.702,9
0.169,-0.146,0.998,-5.894,0.371,1.478,9
0.170,-0.132,0.954,-7.640,0.120,1.961,9
0.176,-0.091,0.994,-10.503,2.062,5.001,9
0.175,-0.071,0.961,-10.608,1.055,1.063,9
0.174,-0.090,0.943,-14.240,0.156,-0.146,9
0.174,-0.106,1.017,-13.960,0.156,-0.836,9
0.168,-0.091,0.968,-2.751,0.983,0.511,9
0.168,-0.099,0.989,-0.202,-0.024,1.858,9
0.174,-0.064,0.965,-2.017,1.055,1.581,9
0.174,-0.092,0.970,-5.544,-1.247,-0.698,9
0.174,-0.087,0.978,-2.506,1.414,0.822,9
0.172,-0.079,0.981,-0.970,-0.204,-0.387,9
0.169,-0.121,0.981,1.509,1.558,-0.007,9
0.169,-0.046,0.984,9.157,-1.355,1.823,9
0.176,-0.079,0.978,5.176,0.515,2.583,9
0.172,-0.097,0.990,-3.030,1.810,-0.664,9
0.172,-0.091,0.964,2.417,0.731,1.201,9
0.172,-0.101,0.965,2.662,-0.528,1.063,9
0.169,-0.092,0.994,-4.217,0.048,0.994,9
0.172,-0.088,0.969,0.148,1.810,0.683,9
0.175,-0.106,0.977,-3.903,-0.816,1.201,9
0.170,-0.079,0.967,-1.913,0.803,1.512,9
0.174,-0.097,0.986,-3.624,-0.816,1.443,9
0.167,-0.090,0.972,-1.948,1.019,1.616,9
0.180,-0.076,0.979,0.182,-0.636,1.616,9
0.170,-0.099,0.987,-2.297,2.170,0.960,9
0.174,-0.067,0.955,-4.008,2.386,1.063,9
0.174,-0.079,1.002,-2.681,0.012,0.545,9
0.173,-0.069,0.948,-1.354,-0.492,0.165,9
0.177,-0.067,1.014,-0.795,0.911,0.234,9
0.174,-0.082,0.935,1.055,0.695,-1.389,9
0.174,-0.091,1.011,-2.262,-0.420,-0.629,9
0.170,-0.090,0.968,2.557,0.335,-0.526,9
0.174,-0.103,0.966,1.824,0.263,0.131,9
0.172,-0.090,1.012,-3.798,0.659,1.754,9
0.172,-0.077,0.959,-1.738,3.429,0.960,9
0.305,-0.852,-0.511,399.600,39.970,-19.419,10
0.284,-0.805,-0.618,345.683,30.367,-1.182,10
0.286,-0.616,-0.617,296.166,33.784,2.894,10
0.260,-0.583,-0.829,298.296,41.373,-1.631,10
0.249,-0.469,-0.852,242.913,25.224,-17.139,10
0.266,-0.470,-0.862,163.679,36.374,-14.998,10
0.251,-0.441,-0.894,175.866,31.770,-17.658,10
0.227,-0.416,-0.932,126.768,28.065,-13.582,10
0.215,-0.412,-0.873,117.829,22.563,-9.541,10
0.213,-0.347,-0.843,155.298,29.612,-9.575,10
0.212,-0.298,-0.922,138.152,31.626,-9.955,10
0.196,-0.277,-0.976,113.778,28.605,-5.465,10
0.191,-0.208,-1.019,78.578,20.369,-3.116,10
0.170,-0.209,-0.983,83.362,17.635,-10.508,10
0.183,-0.207,-0.954,94.851,17.707,-8.884,10
0.174,-0.154,-0.914,102.638,23.102,-9.817,10
0.166,-0.163,-0.963,89.613,23.570,-10.784,10
0.167,-0.127,-0.934,94.851,27.922,-7.088,10
0.149,-0.081,-0.998,99.600,26.339,-6.397,10
0.142,-0.022,-0.992,107.702,23.498,-6.432,10
0.126,0.009,-1.014,102.673,22.383,-4.360,10
0.120,0.014,-0.962,91.569,20.297,-8.608,10
0.121,0.050,-0.973,96.562,27.850,-6.674,10
0.119,0.052,-0.980,102.813,24.289,-8.884,10
0.104,0.128,-0.996,96.702,24.361,-7.088,10
0.099,0.099,-0.944,97.610,22.850,-10.197,10
0.089,0.184,-0.951,83.816,28.353,-2.943,10
0.080,0.205,-0.992,69.115,24.793,-6.225,10
0.077,0.263,-0.986,62.690,19.434,-7.641,10
0.070,0.244,-0.987,68.836,19.398,-11.233,10
0.072,0.217,-0.928,70.128,17.419,-13.616,10
0.072,0.219,-0.911,71.245,23.785,-10.335,10
0.055,0.247,-0.956,68.906,27.202,-5.810,10
0.053,0.305,-0.976,71.804,26.411,-4.705,10
0.051,0.342,-0.948,73.550,21.987,-7.088,10
0.037,0.328,-0.940,79.836,22.347,-8.159,10
0.026,0.357,-0.954,74.248,24.577,-4.774,10
0.013,0.375,-0.974,61.782,18.426,-1.942,10
0.011,0.431,-0.946,56.509,14.830,-1.804,10
0.020,0.431,-0.896,58.639,14.362,-4.083,10
0.017,0.431,-0.919,59.896,14.434,-4.636,10
0.010,0.458,-0.889,52.004,15.657,-0.318,10
-0.001,0.499,-0.894,39.468,11.989,2.894,10
-0.003,0.528,-0.907,29.062,9.902,3.516,10
0.001,0.525,-0.864,28.503,8.284,0.511,10
-0.005,0.540,-0.881,27.944,8.140,0.027,10
-0.010,0.509,-0.864,24.696,7.673,-1.355,10
-0.004,0.502,-0.850,21.519,3.572,-2.840,10
0.000,0.516,-0.871,17.154,5.910,1.374,10
-0.004,0.537,-0.865,15.897,5.335,-0.284,10
-0.002,0.505,-0.835,13.557,4.328,-1.285,10
-0.014,0.549,-0.882,12.579,3.716,-0.007,10
-0.008,0.537,-0.870,7.690,1.522,-0.733,10
-0.010,0.529,-0.867,3.779,2.026,-0.042,10
-0.008,0.524,-0.834,5.490,1.163,1.271,10
-0.006,0.543,-0.839,5.874,0.767,-0.353,10
-0.007,0.539,-0.847,2.976,0.120,-1.873,10
-0.007,0.534,-0.868,0.706,0.407,-1.285,10
-0.005,0.504,-0.811,1.230,-0.096,-1.182,10
-0.007,0.538,-0.858,0.776,0.156,0.511,10
-0.008,0.556,-0.855,-0.411,1.918,-0.629,10
-0.003,0.524,-0.827,2.976,1.666,0.476,10
-0.009,0.538,-0.859,1.544,1.127,-1.493,10
-0.009,0.544,-0.839,-2.262,-0.096,0.062,10
-0.003,0.536,-0.840,-1.668,0.443,-0.802,10
-0.008,0.539,-0.863,-2.751,2.673,-0.733,10
-0.006,0.518,-0.842,-5.440,0.228,-0.733,10
-0.010,0.545,-0.884,-11.516,-0.564,-0.284,10
-0.006,0.547,-0.883,-22.830,-4.664,-1.182,10
-0.014,0.538,-0.899,-47.309,-9.016,0.372,10
-0.016,0.543,-0.933,-73.325,-10.419,1.789,10
-0.008,0.568,-0.939,-104.962,-19.770,-0.767,10
0.000,0.477,-0.913,-137.648,-26.100,-7.952,10
0.040,0.406,-0.932,-144.457,-24.373,-6.466,10
0.018,0.342,-0.925,-150.289,-27.323,-7.986,10
0.039,0.359,-0.949,-173.790,-27.467,-7.054,10
0.041,0.300,-1.023,-216.637,-33.473,-13.927,10
0.050,0.227,-0.996,-292.763,-42.608,-18.866,10
0.082,0.016,-0.864,-323.109,-38.904,-19.177,10
0.091,-0.115,-0.924,-283.125,-24.302,-8.159,10
0.110,-0.048,-0.855,-326.776,-12.612,9.422,10
0.090,-0.221,-0.988,-260.148,-10.383,-4.774,10
0.102,-0.287,-0.974,-259.310,-15.346,6.521,10
0.085,-0.295,-0.979,-311.411,-18.043,2.652,10
0.089,-0.393,-0.859,-365.886,-21.640,-5.638,10
0.072,-0.451,-0.683,-364.315,0.120,-18.521,10
0.115,-0.643,-0.723,-323.214,18.714,-31.059,10
0.086,-0.781,-0.665,-308.896,13.283,-24.013,10
0.073,-0.897,-0.575,-280.576,11.017,-14.376,10
0.084,-0.906,-0.516,-237.694,5.155,0.027,10
0.086,-0.867,-0.454,-224.878,5.407,2.721,10
0.078,-0.904,-0.431,-218.209,1.774,4.897,10
0.062,-0.913,-0.331,-230.466,-3.297,-0.111,10
0.080,-0.970,-0.243,-230.780,-4.160,-2.287,10
0.092,-0.954,-0.173,-221.142,-1.787,1.789,10
0.102,-1.023,-0.106,-211.469,2.098,-1.907,10
0.088,-0.968,-0.060,-227.637,5.371,2.376,10
0.083,-1.018,-0.000,-227.672,6.917,0.925,10
0.076,-1.029,0.083,-202.250,5.047,5.243,10
0.090,-0.943,0.110,-210.631,4.292,6.659,10
0.087,-0.970,0.222,-202.041,0.587,-0.007,10
0.094,-0.930,0.277,-185.838,4.579,1.892,10
0.091,-0.907,0.288,-207.523,6.018,-3.082,10
0.087,-0.907,0.351,-183.917,2.745,-4.809,10
0.089,-0.928,0.446,-170.717,3.141,-3.807,10
0.096,-0.864,0.427,-171.066,4.148,-0.802,10
0.083,-0.826,0.531,-192.961,2.709,-2.149,10
0.084,-0.821,0.621,-174.419,3.464,-4.152,10
0.081,-0.794,0.622,-172.219,11.233,-1.976,10
0.083,-0.755,0.634,-160.276,7.565,-1.458,10
0.079,-0.714,0.685,-154.305,6.234,-0.975,10
0.086,-0.691,0.750,-143.235,5.874,-0.664,10
0.089,-0.637,0.762,-151.616,8.608,-1.355,10
0.084,-0.599,0.790,-132.864,10.190,-1.458,10
0.094,-0.558,0.780,-122.038,6.270,-5.258,10
0.092,-0.570,0.819,-118.476,17.707,-2.460,10
0.097,-0.500,0.836,-107.861,3.249,-2.287,10
0.097,-0.491,0.886,-110.026,5.011,-2.114,10
0.099,-0.440,0.861,-112.156,6.917,0.131,10
0.096,-0.400,0.917,-99.934,4.076,-2.529,10
0.103,-0.394,0.923,-99.550,8.392,-3.254,10
0.090,-0.395,0.941,-75.455,5.155,-3.012,10
0.104,-0.326,0.909,-64.106,6.378,-1.942,10
0.101,-0.355,0.953,-64.979,4.651,-3.669,10
0.111,-0.328,0.946,-73.045,9.255,-1.009,10
0.101,-0.295,0.939,-63.826,6.234,-0.215,10
0.101,-0.266,0.924,-50.172,5.874,1.236,10
0.111,-0.237,0.942,-38.684,1.019,0.442,10
0.105,-0.276,0.982,-51.465,3.968,-1.355,10
0.105,-0.214,0.952,-65.153,7.421,-1.216,10
0.103,-0.230,1.007,-54.188,5.155,-2.840,10
0.108,-0.222,0.989,-46.366,8.356,-0.595,10
0.105,-0.199,0.966,-39.696,10.694,3.136,10
0.122,-0.157,0.961,-26.427,4.939,2.652,10
0.118,-0.167,1.003,-33.166,9.723,0.545,10
0.123,-0.142,0.934,-33.865,9.147,-0.595,10
0.133,-0.154,0.970,-43.328,6.234,-0.180,10
0.123,-0.141,0.963,-32.643,3.536,3.377,10
0.129,-0.084,1.003,-32.363,2.529,1.305,10
0.137,-0.101,1.009,-42.176,8.284,-2.529,10
0.124,-0.113,1.017,-57.925,16.412,-3.012,10
0.123,-0.101,0.992,-45.144,15.693,-1.285,10
0.121,-0.116,0.992,-19.932,12.348,3.170,10
0.164,-0.042,0.958,-8.338,3.788,4.448,10
0.148,-0.077,0.978,-52.372,16.556,1.996,10
0.144,-0.035,0.976,-57.471,14.902,2.963,10
0.142,-0.013,0.995,-41.687,12.888,0.787,10
0.154,-0.054,1.040,-22.027,15.909,5.933,10
0.170,0.004,0.953,-14.240,16.053,8.869,10
0.171,0.043,0.971,-8.443,12.672,7.799,10
0.177,0.052,0.963,-16.230,17.168,4.206,10
0.179,0.007,0.939,-24.611,13.787,0.580,10
0.172,0.001,0.973,-26.357,11.845,2.445,10
0.178,0.018,0.955,-20.176,8.823,2.514,10
0.168,0.016,0.984,-22.690,7.960,5.035,10
0.187,0.050,0.986,-12.179,2.637,3.930,10
0.182,0.047,0.974,-10.608,-0.060,1.271,10
0.181,0.051,1.001,-6.732,2.278,1.478,10
0.182,0.059,0.969,-3.798,1.522,1.720,10
0.180,0.056,0.991,-3.589,1.918,0.234,10
0.179,0.063,0.963,-1.948,2.997,0.822,10
0.188,0.036,0.974,0.951,-1.211,-0.042,10
0.188,0.054,0.976,-4.043,0.803,1.236,10
0.181,0.045,0.980,-0.062,-0.492,2.030,10
0.186,0.065,0.985,0.392,0.479,1.029,10
0.188,0.056,0.966,0.252,0.947,-0.318,10
0.199,0.057,0.972,4.582,-2.542,-0.733,10
0.182,0.038,0.961,-0.027,-0.348,-1.285,10
0.185,0.047,1.011,-1.983,-0.887,0.511,10
0.184,0.044,0.968,0.567,1.271,0.131,10
0.186,0.051,0.982,2.662,-0.564,0.372,10
0.186,0.043,0.964,-0.656,1.378,0.752,10
0.184,0.054,0.955,2.452,-1.859,1.754,10
0.187,0.063,0.993,0.986,-0.672,0.200,10
0.182,0.057,0.964,5.001,-0.923,0.269,10
0.186,0.052,0.992,0.287,-1.499,-0.906,10
0.184,0.042,0.969,0.951,0.551,-0.802,10
0.177,0.039,0.982,0.497,-1.966,0.407,10
0.182,0.041,0.983,0.043,0.299,0.269,10
0.181,0.035,0.967,-0.551,-0.204,2.065,10
0.187,0.080,0.973,-5.056,1.738,0.891,10
0.197,0.033,0.976,1.300,0.371,-1.389,10
0.189,0.018,0.948,-1.354,-0.528,-0.215,10
0.183,0.048,1.011,-5.789,1.990,2.756,10
0.179,0.040,0.966,1.090,0.731,1.789,10
0.200,0.051,0.969,-1.494,0.515,1.616,10
0.188,0.073,0.980,-4.602,0.443,0.545,10
0.181,0.041,0.963,0.217,1.738,-0.180,10
0.187,0.042,0.958,-1.843,-1.715,2.203,10
0.188,0.073,0.997,-4.951,0.443,1.996,10
0.182,0.071,0.972,-0.167,0.407,0.234,10
0.184,0.067,0.971,3.675,-0.564,-0.180,10
0.181,0.044,0.964,3.465,-3.081,0.062,10
0.179,0.070,0.981,-0.097,-0.780,0.269,10
0.186,0.063,0.970,0.671,-0.276,-0.456,10
0.181,0.037,0.991,-4.043,0.659,-0.422,10
0.178,0.057,0.978,1.125,0.156,1.029,10
0.183,0.053,1.007,1.509,-1.966,0.372,10
0.179,0.071,0.966,1.160,1.954,0.165,10
0.178,0.046,0.978,0.497,-1.715,-1.044,10
0.257,-0.938,-0.418,292.709,18.642,-10.404,11
0.248,-0.764,-0.557,281.605,15.154,-0.422,11
0.237,-0.682,-0.558,246.615,14.902,-11.164,11
0.231,-0.709,-0.659,222.031,21.376,-12.304,11
0.225,-0.670,-0.705,206.386,16.916,-12.649,11
0.207,-0.608,-0.658,206.771,18.930,-12.477,11
0.218,-0.629,-0.807,162.282,35.115,-9.506,11
0.197,-0.490,-0.772,193.710,20.656,-15.378,11
0.201,-0.476,-0.782,254.611,27.274,-27.605,11
0.164,-0.429,-0.894,214.278,33.388,-22.424,11
0.147,-0.432,-0.918,194.095,31.482,-19.592,11
0.155,-0.330,-0.922,150.619,31.087,-7.986,11
0.121,-0.278,-1.029,133.333,31.410,-4.912,11
0.137,-0.210,-0.962,159.244,26.627,-14.860,11
0.116,-0.181,-0.958,165.565,27.886,-17.174,11
0.112,-0.145,-0.989,168.288,29.612,-18.245,11
0.114,-0.117,-0.906,168.323,25.152,-17.174,11
0.099,-0.079,-0.945,154.460,35.546,-15.827,11
0.075,-0.009,-0.953,155.752,33.604,-12.269,11
0.074,0.105,-1.049,140.911,38.532,-9.264,11
0.072,0.181,-1.041,123.521,24.073,-14.065,11
0.070,0.138,-0.944,122.124,25.332,-19.695,11
0.042,0.167,-0.948,99.531,31.410,-13.893,11
0.024,0.204,-1.052,78.264,30.907,-8.850,11
0.020,0.298,-0.996,62.410,20.513,-5.499,11
0.020,0.241,-0.970,83.677,21.915,-11.613,11
0.012,0.322,-0.943,92.931,23.390,-12.546,11
0.010,0.257,-0.976,93.804,25.656,-15.309,11
0.014,0.286,-0.959,74.283,19.434,-8.953,11
0.008,0.333,-0.964,65.658,18.103,-4.290,11
0.012,0.389,-0.949,68.417,15.585,-7.468,11
-0.001,0.357,-0.948,82.524,22.383,-7.883,11
0.008,0.389,-0.844,84.829,18.319,-9.713,11
-0.007,0.371,-0.955,71.175,21.268,-5.119,11
-0.008,0.405,-0.901,68.906,16.520,-1.665,11
-0.014,0.465,-0.881,61.398,15.945,-0.802,11
-0.021,0.489,-0.899,60.594,15.513,0.960,11
-0.022,0.519,-0.831,57.452,11.953,-0.526,11
-0.032,0.512,-0.852,59.407,17.563,0.511,11
-0.114,0.564,-0.903,44.636,15.118,4.517,11
-0.059,0.578,-0.919,28.189,8.680,4.448,11
-0.053,0.575,-0.875,27.560,3.285,4.794,11
-0.054,0.630,-0.835,17.957,2.170,2.203,11
-0.054,0.604,-0.855,13.033,2.026,-0.836,11
-0.055,0.585,-0.872,5.386,1.091,0.096,11
-0.046,0.591,-0.848,-5.789,-3.801,-2.633,11
-0.048,0.539,-0.860,-10.852,-4.736,-3.358,11
-0.035,0.520,-0.831,-16.789,-5.060,1.340,11
-0.026,0.546,-0.842,-19.024,-7.433,0.476,11
-0.031,0.549,-0.860,-23.563,-6.750,2.859,11
-0.031,0.540,-0.849,-32.957,-8.296,0.787,11
-0.034,0.554,-0.856,-45.738,-10.994,2.099,11
-0.025,0.498,-0.852,-41.233,-10.239,-2.045,11
-0.015,0.519,-0.849,-42.455,-8.944,0.545,11
-0.004,0.533,-0.866,-53.385,-9.411,-3.461,11
-0.016,0.456,-0.902,-44.341,-3.513,0.131,11
-0.016,0.457,-0.885,-46.890,-9.519,-5.810,11
-0.007,0.410,-0.849,-42.176,-6.678,-4.290,11
-0.016,0.422,-0.931,-50.626,-2.578,-3.151,11
-0.001,0.372,-0.887,-55.341,-3.549,-1.355,11
0.001,0.399,-0.941,-66.655,-6.318,-0.456,11
0.006,0.376,-0.983,-67.318,-4.484,4.414,11
0.030,0.423,-0.941,-82.090,-10.706,0.062,11
-0.009,0.448,-0.931,-128.324,-6.678,-5.292,11
-0.019,0.275,-1.036,-167.470,-16.281,-7.814,11
-0.020,0.151,-1.059,-216.288,-20.165,-7.606,11
0.011,0.042,-0.893,-220.094,-23.007,-6.985,11
0.040,-0.009,-1.001,-174.838,-6.246,18.679,11
0.042,0.071,-1.006,-148.473,-13.584,18.921,11
0.031,0.009,-1.025,-153.536,-11.174,7.660,11
0.066,-0.059,-1.039,-199.317,-16.928,12.151,11
0.046,-0.153,-0.989,-228.789,-21.100,9.318,11
0.053,-0.175,-0.932,-217.301,-20.022,15.087,11
0.057,-0.212,-0.986,-235.005,-18.439,13.463,11
0.070,-0.271,-0.954,-282.078,-23.258,6.417,11
0.066,-0.441,-0.855,-307.674,-24.445,6.693,11
0.068,-0.485,-0.749,-298.351,-11.641,6.832,11
0.064,-0.624,-0.773,-258.262,-1.679,4.897,11
0.072,-0.648,-0.739,-205.672,-0.276,5.692,11
0.063,-0.718,-0.718,-198.898,-0.672,3.585,11
0.079,-0.806,-0.670,-186.676,-1.679,5.070,11
0.081,-0.810,-0.620,-213.634,-1.751,9.733,11
0.086,-0.792,-0.535,-231.164,-3.585,8.110,11
0.095,-0.859,-0.472,-247.507,-0.995,1.029,11
0.086,-0.917,-0.411,-257.738,-0.528,4.483,11
0.094,-0.901,-0.342,-240.627,-1.930,2.894,11
0.098,-0.982,-0.240,-223.901,-0.887,-1.009,11
0.112,-0.954,-0.184,-173.930,3.572,4.034,11
0.094,-0.983,-0.164,-169.565,7.780,4.586,11
0.086,-0.967,-0.111,-185.104,4.508,3.205,11
0.103,-1.001,-0.042,-194.183,8.644,3.136,11
0.092,-0.978,-0.045,-189.644,10.190,4.621,11
0.099,-0.982,-0.015,-193.520,-2.146,-0.629,11
0.102,-0.956,0.133,-184.511,-7.721,0.856,11
0.097,-0.966,0.241,-173.790,-3.549,-2.667,11
0.106,-0.964,0.254,-165.165,3.213,-1.804,11
0.091,-0.946,0.290,-168.168,3.644,-0.595,11
0.093,-0.978,0.330,-154.619,0.767,-3.116,11
0.088,-0.939,0.426,-169.111,-0.276,-2.736,11
0.096,-0.874,0.455,-168.203,6.665,-0.526,11
0.084,-0.894,0.532,-175.431,8.500,-3.220,11
0.091,-0.837,0.514,-153.432,12.672,-0.042,11
0.090,-0.821,0.532,-129.476,4.759,-2.045,11
0.102,-0.770,0.589,-146.308,0.767,-1.873,11
0.099,-0.765,0.694,-135.762,7.457,-2.322,11
0.109,-0.724,0.616,-148.822,12.708,-2.114,11
0.090,-0.710,0.689,-164.222,5.982,-6.294,11
0.096,-0.686,0.769,-153.990,10.262,-0.802,11
0.104,-0.629,0.785,-143.479,11.593,-2.045,11
0.099,-0.599,0.795,-139.638,14.254,-1.458,11
0.101,-0.553,0.805,-111.562,9.219,-1.182,11
0.105,-0.529,0.815,-72.417,3.464,-0.940,11
0.105,-0.533,0.793,-63.791,-0.708,-0.629,11
0.105,-0.476,0.808,-71.264,-7.074,1.547,11
0.100,-0.480,0.915,-92.007,-7.577,-2.322,11
0.103,-0.479,0.911,-85.791,-0.672,-1.389,11
0.105,-0.436,0.889,-105.835,2.745,-0.249,11
0.096,-0.408,0.922,-91.448,0.983,2.445,11
0.099,-0.360,0.956,-83.242,3.536,0.718,11
0.114,-0.299,0.968,-92.042,10.046,0.614,11
0.117,-0.306,0.918,-89.702,12.132,1.685,11
0.111,-0.332,0.909,-84.709,15.657,6.624,11
0.136,-0.247,0.910,-84.534,12.600,9.629,11
0.110,-0.223,0.964,-72.591,9.938,7.626,11
0.120,-0.156,0.967,-67.283,17.240,4.552,11
0.131,-0.221,0.977,-62.744,11.305,-1.285,11
0.132,-0.220,0.972,-60.229,15.873,7.799,11
0.128,-0.166,0.959,-55.620,14.146,9.042,11
0.148,-0.152,0.972,-60.544,12.276,10.216,11
0.165,-0.090,0.995,-69.344,16.556,7.488,11
0.155,-0.115,0.973,-67.912,23.174,4.137,11
0.138,-0.112,0.943,-49.544,15.477,6.003,11
0.157,-0.071,0.972,-38.509,12.168,11.115,11
0.174,-0.010,0.950,-27.474,7.744,7.073,11
0.156,-0.033,1.016,-35.785,7.673,4.379,11
0.172,-0.065,0.985,-42.106,10.226,1.789,11
0.170,-0.013,1.010,-37.252,12.492,7.660,11
0.168,-0.000,0.946,-19.233,9.291,6.417,11
0.174,0.010,0.968,-9.525,3.033,6.866,11
0.181,0.043,0.969,-9.386,1.738,2.583,11
0.187,0.004,1.007,-6.068,2.386,-1.458,11
0.175,-0.010,0.975,-5.963,5.587,-0.802,11
0.178,-0.004,0.955,-7.849,3.680,1.132,11
0.183,0.012,0.953,-1.564,0.587,2.549,11
0.186,0.010,0.956,-3.449,-2.254,2.583,11
0.184,0.011,0.992,-10.468,2.529,1.996,11
0.179,0.014,0.963,-8.408,0.371,2.445,11
0.173,0.021,0.995,-4.602,0.407,2.203,11
0.183,0.002,0.976,1.544,-0.708,1.063,11
0.177,0.017,0.949,-6.103,-1.427,3.585,11
0.180,0.028,0.986,1.509,-2.578,3.308,11
0.175,-0.000,1.004,2.732,-3.261,3.861,11
0.167,0.062,0.961,-5.160,1.594,3.619,11
0.201,0.021,1.023,3.430,-1.930,0.511,11
0.182,0.016,0.960,8.982,-5.095,0.303,11
0.176,0.035,0.977,2.068,-0.564,1.789,11
0.179,0.035,0.971,6.678,-1.427,1.029,11
0.180,0.026,1.010,0.846,-2.110,-1.078,11
0.172,0.007,0.985,1.963,1.810,-1.596,11
0.172,-0.011,0.943,2.033,0.012,0.891,11
0.174,0.018,1.011,-2.786,-0.744,2.134,11
0.179,0.014,0.966,3.221,1.199,0.511,11
0.175,0.015,0.975,9.401,-1.966,0.994,11
0.179,0.010,0.955,4.163,-2.398,0.303,11
0.177,0.021,1.007,-3.170,1.342,0.752,11
0.176,-0.003,0.961,-6.976,1.378,-0.802,11
0.171,0.002,0.992,-5.510,1.271,0.476,11
0.160,0.005,0.961,-3.100,1.199,0.718,11
0.169,0.017,0.979,-1.284,-1.679,2.514,11
0.172,0.033,1.024,-2.576,-0.096,2.238,11
0.177,0.018,0.977,1.824,3.464,-0.007,11
0.171,0.015,0.937,-0.376,1.882,1.167,11
0.175,0.032,1.015,-4.217,-1.571,0.649,11
0.173,0.015,0.970,0.811,2.529,-0.836,11
0.177,0.016,0.990,3.046,-0.923,0.960,11
0.178,0.029,0.981,1.195,2.637,-0.422,11
0.175,0.014,0.971,4.268,1.594,-1.216,11
0.174,-0.008,0.972,0.532,0.228,-0.007,11
0.172,0.024,0.973,3.884,0.371,1.443,11
0.189,0.028,0.970,4.757,-2.254,-1.044,11
0.174,-0.005,0.977,1.055,2.457,-0.146,11
0.174,0.030,0.969,3.709,-0.923,0.338,11
0.185,0.021,1.018,0.287,-0.204,-1.804,11
0.173,-0.008,0.970,1.509,3.249,0.338,11
0.173,0.015,0.974,0.113,1.990,1.409,11
0.177,0.027,0.974,3.011,0.479,-0.629,11
0.178,0.010,0.967,6.259,-0.600,-0.975,11
0.176,-0.010,0.991,-3.135,-3.261,0.096,11
0.177,0.024,0.981,-0.027,1.774,-0.215,11
0.174,0.001,0.989,2.417,-1.319,0.096,11
0.175,0.001,0.968,1.509,0.407,-0.042,11
0.175,-0.000,0.987,1.684,-0.420,0.200,11
0.174,0.000,0.971,2.452,0.515,1.892,11
0.177,0.024,0.983,1.579,-0.312,1.823,11
0.173,0.021,0.973,1.894,0.911,0.787,11
0.171,0.018,0.963,-5.475,0.156,-0.836,11
0.172,0.017,1.003,-11.621,1.630,-2.667,11
0.173,-0.021,0.976,-4.287,2.565,-1.044,11
0.173,-0.009,0.975,3.011,0.947,1.098,11
0.181,0.023,0.968,2.487,2.242,3.516,11
0.248,-0.596,0.795,241.202,18.355,-0.284,12
0.227,-0.651,0.781,294.316,29.792,2.030,12
0.250,-0.637,0.721,346.731,35.439,2.721,12
0.239,-0.798,0.576,423.835,48.458,-0.595,12
0.261,-0.841,0.279,433.054,47.631,-5.223,12
0.270,-0.969,0.125,360.908,27.274,5.692,12
0.257,-0.875,0.145,316.665,14.039,5.035,12
0.285,-0.822,0.176,297.877,17.060,-2.874,12
0.250,-0.941,0.076,353.959,29.756,-14.929,12
0.252,-0.887,-0.160,354.937,28.029,-11.095,12
0.236,-0.915,-0.288,378.683,21.592,-18.694,12
0.233,-0.911,-0.337,392.511,11.737,-13.858,12
0.221,-0.936,-0.580,318.690,15.621,2.134,12
0.235,-0.862,-0.630,304.023,3.752,3.723,12
0.230,-0.712,-0.663,230.027,-7.721,7.522,12
0.247,-0.557,-0.457,218.189,-1.355,-5.361,12
0.253,-0.672,-0.597,185.120,30.691,-17.485,12
0.227,-0.646,-0.779,206.561,20.081,-11.820,12
0.230,-0.606,-0.699,219.412,22.599,-15.102,12
0.213,-0.546,-0.812,223.812,24.864,-12.442,12
0.229,-0.440,-0.843,215.955,28.173,-12.649,12
0.194,-0.417,-0.951,165.984,25.476,-15.723,12
0.204,-0.366,-0.879,167.031,24.541,-9.921,12
0.215,-0.285,-0.883,132.076,35.331,-14.998,12
0.157,-0.204,-0.960,121.635,26.051,-13.098,12
0.151,-0.216,-0.959,129.597,27.310,-26.293,12
0.155,-0.214,-0.958,137.279,21.088,-23.011,12
0.144,-0.224,-0.957,143.425,24.289,-22.217,12
0.131,-0.108,-0.916,133.403,23.246,-16.863,12
0.126,-0.141,-0.898,123.765,34.216,-13.893,12
0.107,-0.072,-0.994,105.781,39.107,-6.570,12
0.097,-0.002,-1.043,102.813,34.683,-11.613,12
0.087,-0.003,-1.056,97.470,23.642,-12.684,12
0.079,0.053,-1.042,76.728,21.124,-12.684,12
0.077,0.001,-0.941,79.801,18.894,-16.552,12
0.074,0.021,-0.970,105.083,23.390,-7.779,12
0.060,0.092,-0.953,109.169,28.605,-6.501,12
0.049,0.151,-1.004,89.264,27.202,-2.563,12
0.041,0.189,-1.045,84.061,23.821,-2.391,12
0.034,0.283,-1.008,66.985,19.218,-5.638,12
0.034,0.241,-0.976,73.131,17.923,-7.848,12
0.024,0.271,-0.976,67.788,18.822,-8.643,12
0.018,0.233,-0.958,60.769,21.340,-7.572,12
0.012,0.300,-0.992,63.912,20.333,-3.911,12
0.012,0.282,-0.994,59.058,17.276,-3.876,12
0.009,0.288,-0.992,47.464,12.708,-1.527,12
0.015,0.339,-0.942,42.331,11.305,-0.491,12
0.008,0.349,-0.949,35.173,11.125,-9.022,12
0.007,0.355,-0.972,33.147,11.017,-1.424,12
-0.007,0.349,-0.981,22.077,6.989,-0.284,12
-0.012,0.386,-1.010,10.763,4.508,1.685,12
-0.009,0.377,-0.936,13.033,2.026,-0.560,12
-0.002,0.385,-0.958,10.100,2.457,-1.734,12
0.010,0.358,-0.907,14.814,1.954,-1.631,12
0.002,0.384,-0.943,14.430,1.738,-0.906,12
0.010,0.360,-0.926,9.262,0.443,-0.733,12
0.006,0.394,-0.926,7.481,-0.060,-0.940,12
0.002,0.382,-0.923,3.779,1.055,-1.389,12
0.005,0.360,-0.893,5.036,0.048,-2.598,12
0.004,0.382,-0.929,5.001,1.558,-1.700,12
0.012,0.375,-0.890,2.767,1.307,-1.665,12
-0.007,0.376,-0.974,7.341,4.759,-0.526,12
0.001,0.385,-0.932,10.659,2.637,-0.387,12
-0.002,0.391,-0.937,5.560,0.947,-0.249,12
-0.004,0.421,-0.914,4.652,0.048,-2.287,12
-0.004,0.385,-0.927,2.313,0.731,-1.907,12
-0.004,0.370,-0.925,-1.808,0.371,-0.940,12
0.002,0.373,-0.915,2.033,1.954,-0.802,12
0.004,0.395,-0.906,5.316,1.774,-0.526,12
-0.006,0.394,-0.938,6.189,1.378,-1.355,12
-0.003,0.404,-0.939,0.776,-1.823,-1.527,12
0.000,0.381,-0.937,2.278,0.335,-1.009,12
-0.001,0.380,-0.936,-2.367,-2.362,-0.560,12
-0.010,0.382,-0.965,-10.049,-3.225,0.994,12
-0.011,0.402,-0.975,-25.449,-7.325,2.376,12
-0.014,0.407,-1.003,-53.141,-10.490,3.792,12
-0.005,0.403,-1.016,-85.756,-19.230,3.654,12
0.013,0.376,-1.023,-112.261,-28.330,2.652,12
0.019,0.336,-0.961,-144.038,-31.495,1.581,12
0.035,0.239,-0.948,-152.419,-31.926,-1.424,12
0.039,0.246,-0.954,-164.711,-27.359,1.720,12
0.042,0.203,-1.036,-197.361,-29.984,-4.947,12
0.069,0.088,-0.993,-209.688,-36.278,-10.922,12
0.082,-0.047,-0.977,-209.094,-34.876,-7.088,12
0.089,-0.066,-0.839,-241.605,-29.804,1.996,12
0.099,-0.148,-0.894,-182.066,-17.360,6.970,12
0.105,-0.130,-0.920,-123.086,-9.951,0.787,12
0.095,-0.215,-0.930,-66.201,-5.383,-5.534,12
0.089,-0.246,-1.000,-54.188,-6.930,-4.014,12
0.097,-0.261,-0.997,-65.537,-9.519,-0.387,12
0.088,-0.268,-0.955,-80.553,-12.361,0.165,12
0.100,-0.266,-0.994,-111.248,-13.404,-2.978,12
0.096,-0.350,-0.968,-128.499,-16.101,-0.767,12
0.112,-0.355,-0.969,-146.552,-16.461,1.271,12
0.129,-0.385,-0.880,-130.733,-17.864,-0.975,12
0.129,-0.494,-0.869,-119.454,-15.813,-2.771,12
0.129,-0.482,-0.881,-135.133,-15.634,9.353,12
0.130,-0.493,-0.845,-188.107,-15.094,1.478,12
0.152,-0.539,-0.855,-254.840,-16.317,2.169,12
0.147,-0.600,-0.814,-328.452,-21.784,-0.456,12
0.146,-0.691,-0.642,-351.080,-33.617,-4.463,12
0.175,-0.756,-0.423,-249.392,-23.187,-5.603,12
0.162,-0.890,-0.476,-207.942,-5.419,-0.836,12
0.158,-0.844,-0.454,-218.278,-4.880,3.101,12
0.157,-0.880,-0.451,-250.335,-2.866,3.205,12
0.159,-0.855,-0.378,-300.585,-16.856,-1.078,12
0.163,-0.976,-0.192,-278.516,-20.669,-2.356,12
0.163,-0.928,-0.097,-265.072,-16.533,-0.526,12
0.158,-1.009,0.001,-252.361,-9.447,-4.912,12
0.171,-1.001,0.033,-209.444,-2.218,-0.595,12
0.154,-0.988,0.046,-217.266,-1.499,0.614,12
0.157,-0.977,0.153,-182.276,-3.369,2.514,12
0.159,-0.985,0.200,-180.600,-0.024,4.655,12
0.166,-0.935,0.210,-171.800,-0.995,5.968,12
0.165,-0.944,0.306,-182.765,-4.448,2.376,12
0.166,-0.913,0.385,-182.939,-1.787,4.828,12
0.174,-0.857,0.417,-165.339,0.479,3.274,12
0.178,-0.880,0.445,-182.799,4.867,-0.733,12
0.174,-0.850,0.511,-192.437,6.234,4.448,12
0.177,-0.785,0.555,-194.987,11.413,6.037,12
0.176,-0.762,0.596,-181.228,9.615,3.239,12
0.182,-0.703,0.630,-181.263,4.975,-1.700,12
0.178,-0.704,0.675,-165.758,5.263,-3.116,12
0.179,-0.653,0.702,-178.504,3.500,-3.116,12
0.175,-0.647,0.793,-187.199,4.472,-2.633,12
0.186,-0.534,0.765,-190.936,8.068,0.372,12
0.179,-0.530,0.860,-165.584,0.084,-1.458,12
0.183,-0.471,0.868,-151.651,9.795,1.236,12
0.188,-0.394,0.815,-150.987,5.587,-2.771,12
0.178,-0.402,0.901,-136.635,2.421,-5.638,12
0.187,-0.345,0.906,-113.623,-1.031,-3.427,12
0.187,-0.347,0.919,-111.388,-1.175,-1.320,12
0.188,-0.285,0.913,-116.486,-0.240,0.338,12
0.183,-0.241,1.032,-114.356,6.809,1.167,12
0.179,-0.200,1.022,-124.797,18.894,-0.387,12
0.194,-0.200,0.977,-114.321,27.526,0.960,12
0.191,-0.141,0.855,-96.686,15.801,1.996,12
0.181,-0.155,0.896,-89.423,8.752,1.685,12
0.203,-0.087,0.946,-87.363,-3.873,1.961,12
0.192,-0.084,1.032,-67.283,-1.966,-0.802,12
0.197,-0.079,1.007,-34.004,-3.009,1.201,12
0.209,-0.032,0.929,-32.084,-1.894,1.029,12
0.135,-0.031,0.980,-41.023,-0.959,0.165,12
0.200,-0.021,0.995,-44.795,-1.894,-3.323,12
0.189,-0.075,1.036,-45.598,5.838,-3.254,12
0.192,-0.071,1.017,-36.065,5.587,2.721,12
0.195,-0.012,0.921,-36.554,9.219,9.595,12
0.213,0.058,0.954,-45.773,1.486,8.904,12
0.213,0.075,0.977,-57.471,6.090,2.238,12
0.197,0.068,0.971,-57.052,7.169,-0.664,12
0.196,0.050,1.001,-37.182,1.163,0.476,12
0.192,0.044,0.982,-16.090,-0.887,5.070,12
0.206,0.071,0.947,-19.093,2.745,8.317,12
0.204,0.113,0.988,-20.455,-2.614,5.588,12
0.213,0.137,0.971,-31.176,4.256,2.894,12
0.216,0.095,1.003,-23.912,2.350,1.236,12
0.209,0.093,0.977,-13.855,1.486,3.239,12
0.204,0.147,0.968,1.055,-0.024,5.243,12
0.203,0.096,0.963,-3.100,0.731,3.343,12
0.212,0.128,0.950,-4.043,-1.499,3.792,12
0.201,0.125,0.969,-10.398,-1.607,1.029,12
0.206,0.136,0.970,-6.383,-0.276,0.476,12
0.209,0.139,0.967,3.116,-1.859,1.685,12
0.207,0.113,0.951,4.687,-0.636,1.789,12
0.203,0.120,0.965,1.963,0.156,4.068,12
0.204,0.147,0.958,-0.376,-3.477,0.787,12
0.207,0.102,0.984,1.929,-2.578,-0.042,12
0.198,0.100,0.989,3.919,-0.312,1.547,12
0.199,0.093,0.974,1.824,0.479,2.445,12
0.136,0.116,0.955,-1.773,-0.096,3.792,12
0.202,0.127,0.968,-1.354,-0.851,2.479,12
0.202,0.126,0.951,-10.154,1.307,2.583,12
0.202,0.113,0.980,-3.414,-0.780,1.927,12
0.200,0.114,0.954,4.268,-0.995,3.205,12
0.200,0.135,0.932,-7.570,-2.290,4.345,12
0.202,0.163,0.985,-5.510,-2.362,2.065,12
0.199,0.127,0.969,3.779,-2.973,1.029,12
0.198,0.140,0.975,-3.275,-0.959,1.892,12
0.200,0.123,0.973,-4.986,-0.564,0.822,12
0.200,0.120,0.981,-2.402,0.515,0.131,12
0.195,0.139,0.950,-1.319,0.551,3.827,12
0.200,0.147,1.001,-3.798,-0.816,2.410,12
0.197,0.139,0.970,-0.795,3.069,0.994,12
0.195,0.131,0.971,6.992,1.019,2.169,12
0.191,0.129,0.922,-2.122,0.767,1.685,12
0.198,0.155,0.992,-6.208,1.307,1.961,12
0.199,0.135,0.958,-3.449,2.170,0.649,12
0.199,0.127,0.969,0.986,0.587,-0.215,12
0.195,0.127,0.932,-7.360,1.055,0.891,12
0.201,0.120,1.002,-9.455,1.019,0.234,12
0.194,0.106,0.962,-12.563,2.853,-0.802,12
0.194,0.135,0.982,-12.633,2.673,0.511,12
0.191,0.129,0.967,-4.811,2.709,2.169,12
0.208,0.178,0.931,6.992,-1.067,2.928,12
0.204,0.176,0.956,3.151,-0.240,1.685,12
0.210,0.190,0.948,4.094,-1.319,0.338,12
0.208,0.166,0.968,-1.459,0.156,-1.631,12
0.200,0.146,0.968,-1.040,0.156,-0.733,12
0.196,0.153,0.964,1.544,-1.103,-0.802,12
0.195,0.152,0.980,4.443,-1.571,0.027,12
0.225,-0.480,0.897,430.155,49.825,0.683,13
0.235,-0.652,0.729,467.834,54.716,9.353,13
0.211,-0.656,0.560,537.989,49.429,8.559,13
0.276,-0.805,0.411,507.678,43.171,2.238,13
0.238,-0.958,0.301,566.344,29.360,16.537,13
0.256,-0.835,0.011,464.272,22.023,19.024,13
0.286,-0.846,-0.008,356.229,1.163,6.832,13
0.285,-0.964,-0.012,394.502,-4.916,-4.981,13
0.269,-0.972,-0.083,411.019,0.659,0.718,13
0.264,-0.905,-0.246,427.222,13.535,4.137,13
0.297,-0.678,-0.392,362.515,15.118,1.512,13
0.295,-0.771,-0.533,310.553,23.714,-8.781,13
0.263,-0.804,-0.652,205.374,12.924,-3.082,13
0.261,-0.780,-0.675,185.434,13.139,4.103,13
0.255,-0.670,-0.658,173.038,9.974,3.792,13
0.245,-0.645,-0.700,181.418,14.182,-0.560,13
0.237,-0.547,-0.755,206.456,12.492,-1.804,13
0.242,-0.545,-0.776,177.403,20.009,-8.263,13
0.294,-0.493,-0.834,139.130,22.023,-6.950,13
0.231,-0.407,-0.878,134.660,15.261,-9.955,13
0.233,-0.446,-0.812,153.238,17.671,-24.600,13
0.229,-0.435,-0.818,161.270,18.822,-19.350,13
0.216,-0.408,-0.774,146.359,30.295,-15.620,13
0.198,-0.361,-0.952,140.667,36.553,-7.399,13
0.216,-0.247,-0.927,148.733,30.151,-6.674,13
0.171,-0.231,-0.932,164.936,30.403,-14.583,13
0.170,-0.199,-0.973,162.876,30.511,-13.962,13
0.151,-0.173,-0.967,135.254,30.655,-12.822,13
0.142,-0.187,-1.014,113.778,27.490,-2.702,13
0.137,-0.083,-0.924,108.854,30.403,-0.595,13
0.131,-0.022,-0.968,121.321,32.777,-2.080,13
0.117,0.001,-0.997,133.124,35.151,-2.149,13
0.102,0.108,-1.055,115.349,33.424,0.718,13
0.104,0.115,-0.984,105.607,26.195,-3.461,13
0.088,0.115,-1.004,99.600,27.778,-3.496,13
0.083,0.149,-0.982,96.842,26.339,-4.809,13
0.076,0.169,-0.988,97.365,26.159,-1.182,13
0.072,0.235,-0.991,87.623,20.980,-1.251,13
0.072,0.249,-0.969,85.318,21.987,-7.399,13
0.067,0.235,-0.952,94.921,22.886,-8.228,13
0.058,0.253,-0.943,91.918,23.534,-6.846,13
0.050,0.281,-0.938,86.575,22.922,-4.670,13
0.037,0.358,-0.949,85.981,24.361,-3.531,13
0.033,0.380,-0.961,78.858,19.146,-5.845,13
0.023,0.378,-0.966,65.937,17.995,-4.947,13
0.029,0.376,-0.898,65.518,14.506,-4.360,13
0.016,0.426,-0.885,64.017,17.240,-1.493,13
0.011,0.440,-0.893,65.448,19.577,-2.253,13
0.007,0.458,-0.940,73.515,20.944,-3.358,13
0.010,0.485,-0.910,73.550,16.952,-5.776,13
0.010,0.478,-0.895,60.106,14.218,-7.537,13
0.012,0.456,-0.836,54.309,14.290,-5.914,13
0.010,0.424,-0.836,63.807,19.649,2.790,13
-0.001,0.539,-0.856,65.518,20.297,4.552,13
-0.014,0.587,-0.878,63.109,19.829,1.720,13
-0.034,0.630,-0.900,52.633,14.938,0.580,13
-0.036,0.629,-0.885,32.938,10.370,-0.456,13
-0.039,0.597,-0.887,12.719,3.860,-0.560,13
-0.035,0.594,-0.855,6.119,0.947,1.996,13
-0.031,0.616,-0.850,6.189,0.263,3.205,13
-0.035,0.628,-0.815,3.989,-2.002,0.476,13
-0.028,0.608,-0.828,-2.890,-1.535,-1.285,13
-0.019,0.586,-0.826,-7.675,-3.225,-2.909,13
-0.009,0.562,-0.793,-3.798,-3.693,-1.873,13
-0.002,0.566,-0.811,-7.325,-4.160,-1.320,13
-0.006,0.573,-0.795,-9.351,-3.693,-0.387,13
-0.006,0.570,-0.781,-8.408,-1.535,0.303,13
-0.009,0.561,-0.809,-10.014,-1.859,-0.560,13
-0.016,0.594,-0.846,-22.585,-3.801,0.718,13
-0.011,0.581,-0.825,-24.890,-3.405,-0.146,13
-0.005,0.563,-0.834,-25.170,-4.017,-1.942,13
-0.017,0.533,-0.898,-25.728,0.192,3.343,13
-0.026,0.550,-0.899,-51.011,-6.822,5.450,13
-0.022,0.587,-0.902,-73.220,-9.879,9.008,13
-0.023,0.553,-0.954,-76.642,-14.231,-0.871,13
-0.009,0.565,-0.948,-83.137,-19.266,-2.909,13
-0.003,0.469,-0.946,-98.432,-18.511,-7.986,13
0.019,0.383,-0.945,-136.914,-23.546,-7.537,13
0.028,0.271,-1.034,-168.447,-25.668,2.998,13
0.019,0.278,-0.998,-188.701,-32.214,13.221,13
0.025,0.257,-1.030,-209.688,-36.782,16.330,13
0.037,0.249,-0.969,-260.113,-42.752,13.774,13
0.047,0.175,-1.008,-308.931,-39.911,6.832,13
0.065,0.017,-0.979,-328.941,-43.543,4.034,13
0.160,-0.054,-1.007,-418.790,-31.854,12.738,13
0.091,-0.283,-0.917,-355.794,-32.718,9.767,13
0.102,-0.410,-0.855,-375.070,-19.842,16.157,13
0.128,-0.499,-0.699,-405.451,9.003,34.084,13
0.097,-0.572,-0.816,-395.149,29.216,39.541,13
0.113,-0.562,-0.849,-387.991,22.742,41.717,13
0.092,-0.639,-0.812,-360.055,4.004,27.728,13
0.117,-0.782,-0.665,-310.747,-16.101,18.748,13
0.127,-0.805,-0.476,-268.878,-25.848,17.125,13
0.154,-0.847,-0.317,-228.545,-18.223,12.116,13
0.160,-0.895,-0.323,-189.958,-2.578,11.529,13
0.162,-0.911,-0.327,-176.060,-1.643,8.075,13
0.154,-0.985,-0.292,-193.590,-7.649,5.968,13
0.150,-1.038,-0.200,-198.933,-11.857,14.050,13
0.169,-0.971,-0.130,-196.523,-12.792,23.929,13
0.192,-0.891,-0.042,-197.431,-13.260,19.853,13
0.188,-0.938,0.015,-205.253,-7.577,11.287,13
0.183,-0.923,0.042,-220.513,-4.628,10.355,13
0.182,-0.960,0.172,-224.320,-6.822,5.277,13
0.186,-0.992,0.233,-213.564,2.134,10.044,13
0.192,-0.858,0.229,-190.238,5.982,15.743,13
0.191,-0.891,0.260,-158.460,-3.261,7.868,13
0.188,-0.868,0.282,-170.542,-5.347,7.384,13
0.192,-0.906,0.386,-204.694,-13.584,-0.146,13
0.196,-0.947,0.529,-213.215,-6.894,7.971,13
0.179,-0.797,0.509,-218.244,-1.103,13.221,13
0.188,-0.747,0.591,-186.536,-9.268,6.901,13
0.214,-0.720,0.656,-155.422,-4.484,3.999,13
0.199,-0.696,0.631,-181.123,-4.232,-0.836,13
0.194,-0.664,0.773,-156.819,-8.764,2.894,13
0.197,-0.653,0.828,-156.505,2.673,3.343,13
0.196,-0.595,0.717,-162.127,11.125,7.557,13
0.199,-0.532,0.778,-169.390,-0.600,4.137,13
0.204,-0.507,0.852,-144.387,0.263,4.759,13
0.212,-0.437,0.846,-105.032,1.414,5.726,13
0.217,-0.407,0.821,-111.877,2.601,1.271,13
0.208,-0.411,0.824,-170.054,-1.930,-1.907,13
0.191,-0.368,0.905,-164.536,-3.117,-1.493,13
0.195,-0.341,0.921,-171.450,-2.074,-1.527,13
0.182,-0.347,0.970,-129.791,-3.513,8.144,13
0.192,-0.290,0.963,-116.800,3.644,7.591,13
0.200,-0.181,0.887,-107.162,-0.887,8.386,13
0.199,-0.201,0.982,-105.905,-0.816,6.037,13
0.196,-0.119,0.927,-84.883,-1.751,7.281,13
0.191,-0.114,1.019,-59.845,-4.160,3.827,13
0.198,-0.101,0.907,-41.023,1.055,7.246,13
0.208,-0.047,0.970,-28.487,-2.650,7.108,13
0.193,-0.099,0.968,-52.372,-2.146,3.447,13
0.198,-0.042,1.006,-63.687,0.659,5.174,13
0.186,-0.052,1.044,-58.937,1.810,3.343,13
0.190,-0.025,1.017,-43.084,7.744,5.243,13
0.217,-0.016,0.982,-28.277,6.665,6.313,13
0.202,-0.001,0.940,-28.697,9.831,5.830,13
0.207,0.030,0.949,-20.071,2.206,4.034,13
0.203,0.004,0.975,-14.798,-1.463,-0.560,13
0.198,-0.031,0.995,-6.592,1.558,0.891,13
0.200,-0.010,0.969,-1.040,0.587,2.445,13
0.199,0.012,0.949,-0.760,1.522,4.206,13
0.203,0.022,0.984,-5.405,0.407,1.547,13
0.206,-0.000,0.964,-8.268,2.529,1.478,13
0.205,0.017,0.967,-6.033,0.371,2.894,13
0.202,0.022,0.973,-1.424,-0.276,2.479,13
0.206,0.026,0.961,-0.691,-2.434,0.062,13
0.201,0.016,1.006,-2.611,-0.672,-0.111,13
0.196,0.021,0.962,6.643,-1.607,0.303,13
0.207,0.009,0.981,-2.122,-2.434,-1.458,13
0.202,-0.014,0.985,-4.567,-0.744,1.685,13
0.198,0.030,0.969,-1.284,-2.254,1.616,13
0.199,-0.003,1.011,-4.776,1.378,0.752,13
0.199,0.042,0.957,-0.551,2.134,1.858,13
0.198,0.002,0.968,-3.659,-0.600,0.407,13
0.200,0.033,0.983,2.767,0.551,2.410,13
0.204,0.017,0.938,0.497,-1.355,-0.560,13
0.195,0.029,0.980,2.487,-1.067,1.616,13
0.194,0.001,1.005,-1.564,-1.319,-0.007,13
0.199,0.021,0.969,1.160,2.386,1.098,13
0.195,0.030,0.976,3.500,-0.420,1.167,13
0.194,0.001,0.987,-5.300,-1.427,0.165,13
0.197,0.027,0.971,-2.087,1.990,1.927,13
0.198,0.005,0.969,-1.529,-1.499,1.374,13
0.202,0.032,0.965,-5.998,0.228,2.341,13
0.203,0.031,0.992,-5.544,0.479,0.372,13
0.201,0.052,0.949,0.811,-0.024,0.649,13
0.200,0.003,0.984,-2.716,0.048,-1.147,13
0.194,0.040,0.967,-2.821,-0.204,0.925,13
0.198,0.025,0.984,-4.846,-0.456,0.062,13
0.194,0.012,0.968,-8.513,1.127,1.616,13
0.195,0.043,0.984,-6.871,-1.894,1.789,13
0.200,0.032,0.986,-2.960,0.443,0.856,13
0.196,0.069,0.969,-3.938,0.407,0.407,13
0.197,0.039,1.001,1.405,0.911,-1.320,13
0.198,0.013,0.938,-3.414,3.968,-0.077,13
0.202,0.037,0.986,-4.462,-1.427,1.374,13
0.194,0.049,0.968,2.732,0.371,1.236,13
0.196,0.012,0.952,-4.881,-2.218,-0.249,13
0.202,0.054,0.993,-4.916,1.127,0.545,13
0.192,0.023,0.967,4.757,-1.175,0.891,13
0.200,0.025,0.974,-1.214,-0.456,0.234,13
0.196,0.023,1.006,-4.217,0.335,2.065,13
0.195,0.041,0.954,-0.306,2.314,2.134,13
0.205,0.054,0.960,-3.833,0.407,1.720,13
0.202,0.051,0.968,-2.122,0.120,0.545,13
0.194,0.060,0.955,2.522,-1.031,0.545,13
0.196,0.038,0.991,-5.475,0.156,1.132,13
0.197,0.054,0.963,-3.414,0.947,-0.318,13
0.190,0.033,0.987,-1.075,-0.060,-0.422,13
0.195,0.083,0.948,-4.741,3.716,-0.456,13
0.193,-0.005,1.023,-29.849,5.479,-3.911,13
0.196,0.024,1.002,-14.938,5.730,-3.496,13
0.202,0.033,0.946,7.341,2.565,4.068,13
0.206,0.084,0.939,5.351,0.551,5.139,13
0.211,0.117,0.955,-1.459,0.192,0.925,13
0.214,0.097,0.938,0.741,0.479,-0.215,13
0.204,0.055,0.968,3.290,-2.470,-1.113,13
0.197,0.073,0.959,3.989,-1.103,-0.284,13
0.135,0.051,0.993,3.570,-3.369,-1.804,13
0.210,-0.507,0.912,353.680,26.879,-3.185,14
0.218,-0.587,0.866,450.199,45.941,3.170,14
0.232,-0.671,0.656,462.701,59.752,14.050,14
0.263,-0.771,0.544,479.777,60.759,7.557,14
0.255,-0.913,0.338,427.711,51.947,23.549,14
0.259,-0.854,0.248,430.260,32.274,32.115,14
0.306,-0.721,0.152,369.010,22.239,24.274,14
0.284,-0.827,0.122,384.061,24.828,-2.356,14
0.290,-0.894,0.051,350.363,18.750,1.029,14
0.296,-0.865,-0.128,346.766,32.849,-4.394,14
0.272,-0.879,-0.355,333.496,18.606,-9.748,14
0.298,-0.869,-0.347,309.960,4.903,-11.060,14
0.262,-0.943,-0.525,284.992,7.025,-6.536,14
0.275,-0.799,-0.506,232.751,3.968,0.925,14
0.273,-0.751,-0.448,211.624,5.515,-5.638,14
0.251,-0.768,-0.554,220.913,18.822,-7.952,14
0.265,-0.653,-0.628,222.764,20.800,-10.266,14
0.261,-0.634,-0.753,178.206,20.728,-13.409,14
0.258,-0.604,-0.759,146.184,11.449,-12.235,14
0.239,-0.614,-0.819,127.956,11.449,-18.659,14
0.237,-0.594,-0.728,147.441,17.168,-16.587,14
0.244,-0.540,-0.712,151.666,15.010,-14.860,14
0.210,-0.490,-0.817,165.076,24.289,-10.646,14
0.231,-0.434,-0.793,174.749,24.469,-15.032,14
0.212,-0.408,-0.884,179.777,25.512,-14.618,14
0.204,-0.340,-0.968,160.117,27.526,-12.062,14
0.259,-0.351,-0.929,141.574,28.173,-17.761,14
0.169,-0.314,-0.948,131.517,22.347,-11.958,14
0.158,-0.268,-0.949,137.524,23.246,-12.407,14
0.177,-0.194,-0.939,159.698,23.282,-8.988,14
0.153,-0.089,-0.974,161.339,25.476,-10.197,14
0.156,-0.036,-0.938,144.263,24.037,-14.342,14
0.137,-0.044,-0.939,132.670,30.367,-15.689,14
0.117,-0.012,-0.984,126.349,33.676,-11.199,14
0.125,0.052,-0.998,137.733,30.583,-12.200,14
0.120,0.085,-0.948,125.232,31.590,-10.128,14
0.091,0.146,-0.992,101.765,31.734,-8.850,14
0.082,0.126,-0.988,80.464,31.482,-7.123,14
0.074,0.189,-1.026,54.483,28.065,-5.396,14
0.075,0.213,-1.013,40.061,26.015,-7.675,14
0.076,0.160,-0.996,49.769,24.253,-9.886,14
0.041,0.142,-1.017,49.839,24.181,-6.501,14
0.040,0.145,-1.049,56.474,22.670,0.787,14
0.041,0.235,-1.020,53.576,17.923,5.381,14
0.038,0.275,-0.978,55.356,18.175,1.996,14
0.033,0.269,-0.997,63.633,16.125,0.234,14
0.034,0.278,-0.966,65.902,14.722,1.132,14
0.026,0.329,-0.990,49.455,13.175,3.792,14
0.018,0.314,-0.954,40.690,8.931,4.241,14
0.021,0.413,-0.950,32.973,8.464,2.825,14
0.025,0.357,-0.948,34.684,11.629,-1.216,14
0.016,0.364,-0.951,30.877,8.140,-4.912,14
0.014,0.304,-0.964,26.582,8.104,-1.942,14
0.017,0.316,-0.960,25.779,6.486,2.583,14
0.013,0.338,-0.930,28.852,2.529,4.310,14
0.020,0.375,-0.919,28.712,5.011,2.756,14
0.020,0.356,-0.916,29.969,8.176,1.029,14
0.018,0.348,-0.927,32.169,10.586,3.585,14
0.002,0.387,-0.978,26.198,7.780,5.415,14
-0.000,0.413,-0.949,22.392,2.457,3.412,14
0.006,0.421,-0.921,31.122,2.386,3.377,14
-0.003,0.457,-0.914,31.192,5.191,2.721,14
-0.001,0.441,-0.931,22.601,2.781,0.234,14
0.007,0.432,-0.921,17.992,2.242,0.062,14
0.005,0.423,-0.918,16.735,1.342,2.790,14
0.001,0.450,-0.896,15.827,0.875,2.099,14
0.012,0.431,-0.887,17.747,0.263,0.096,14
0.010,0.456,-0.898,11.706,0.012,0.891,14
0.001,0.453,-0.905,6.782,1.091,-0.007,14
0.006,0.437,-0.881,9.192,1.055,-0.007,14
0.003,0.463,-0.904,3.814,-0.420,0.303,14
0.002,0.474,-0.912,-2.297,-1.499,-0.007,14
0.001,0.464,-0.910,-1.389,-0.636,-0.526,14
-0.003,0.466,-0.915,-2.995,-1.787,-1.285,14
0.002,0.450,-0.913,-4.951,-3.621,-1.804,14
0.002,0.439,-0.951,-9.805,-2.362,-0.836,14
0.005,0.422,-0.952,-21.049,-7.182,0.269,14
0.002,0.441,-0.965,-42.211,-12.433,1.271,14
0.001,0.381,-0.941,-63.547,-15.598,4.276,14
0.026,0.369,-0.941,-83.940,-18.978,7.453,14
0.015,0.375,-0.972,-103.566,-20.993,13.256,14
0.014,0.398,-0.980,-127.311,-24.122,12.116,14
0.021,0.392,-1.019,-181.892,-28.042,4.759,14
0.057,0.274,-0.931,-235.145,-35.667,-4.567,14
0.063,0.083,-0.985,-224.704,-21.928,-2.184,14
0.077,0.032,-1.032,-236.297,-29.085,8.973,14
0.133,-0.027,-1.047,-262.557,-24.050,18.506,14
0.039,-0.109,-0.982,-244.469,-22.683,22.098,14
0.058,-0.101,-0.931,-232.666,-20.273,20.475,14
0.085,-0.170,-0.977,-224.494,-16.029,14.258,14
0.098,-0.221,-0.983,-252.465,-18.871,11.322,14
0.116,-0.403,-0.942,-289.097,-23.510,7.039,14
0.127,-0.675,-0.679,-252.884,-24.553,26.589,14
0.137,-0.524,-0.653,-186.222,12.996,55.395,14
0.123,-0.501,-0.848,-165.654,25.836,45.897,14
0.134,-0.505,-0.867,-170.647,12.492,39.265,14
0.126,-0.571,-0.858,-159.612,-0.636,21.338,14
0.126,-0.663,-0.811,-169.809,-12.648,13.947,14
0.115,-0.736,-0.723,-177.701,-19.086,10.458,14
0.141,-0.747,-0.628,-161.009,-20.309,10.804,14
0.151,-0.776,-0.589,-157.378,-12.037,9.388,14
0.162,-0.831,-0.558,-157.901,-10.634,9.906,14
0.170,-0.786,-0.526,-152.000,-9.375,12.876,14
0.178,-0.834,-0.490,-147.216,-9.987,1.927,14
0.177,-0.857,-0.439,-165.479,-11.749,-0.422,14
0.179,-0.904,-0.438,-206.615,-9.591,-0.526,14
0.161,-0.884,-0.399,-255.259,-17.468,-3.980,14
0.160,-1.001,-0.224,-257.843,-24.841,-3.738,14
0.174,-0.960,-0.138,-225.961,-15.238,7.626,14
0.188,-0.941,-0.125,-211.853,-13.584,4.552,14
0.192,-0.910,-0.046,-200.155,-13.584,3.343,14
0.179,-0.939,0.013,-233.224,-18.583,-4.981,14
0.187,-0.985,0.129,-224.459,-16.928,-1.769,14
0.172,-0.963,0.190,-231.164,-13.368,-1.216,14
0.169,-0.937,0.207,-259.589,-11.857,-1.320,14
0.162,-0.982,0.354,-246.215,-17.000,0.338,14
0.181,-0.925,0.487,-222.713,-12.253,11.529,14
0.190,-0.780,0.487,-218.383,-2.254,9.767,14
0.175,-0.767,0.533,-224.739,-3.513,-1.493,14
0.177,-0.793,0.587,-228.755,-4.988,-1.044,14
0.166,-0.747,0.635,-216.253,-3.513,2.099,14
0.176,-0.688,0.741,-197.256,-1.103,2.376,14
0.197,-0.626,0.753,-189.749,7.313,2.963,14
0.189,-0.588,0.741,-201.831,9.183,-1.078,14
0.188,-0.535,0.795,-188.876,6.665,-0.698,14
0.178,-0.498,0.782,-182.206,5.047,-0.698,14
0.192,-0.440,0.792,-176.339,1.414,-1.044,14
0.182,-0.427,0.889,-173.476,-6.606,-3.911,14
0.181,-0.359,0.946,-141.873,-1.319,-1.285,14
0.174,-0.296,0.916,-133.911,1.450,-1.665,14
0.177,-0.332,0.918,-107.058,-0.348,3.170,14
0.183,-0.250,0.946,-86.036,-3.801,7.073,14
0.177,-0.228,0.905,-102.204,-4.700,5.070,14
0.183,-0.169,0.994,-101.121,-6.354,3.205,14
0.175,-0.162,0.978,-89.143,-1.031,1.098,14
0.178,-0.145,1.003,-84.394,0.911,4.310,14
0.178,-0.114,0.933,-64.979,-1.679,5.243,14
0.177,-0.076,0.952,-63.337,-6.534,6.970,14
0.181,-0.028,0.970,-53.455,-7.973,6.382,14
0.173,-0.034,1.015,-55.690,-6.139,-1.976,14
0.162,-0.075,1.014,-57.855,-0.024,-1.458,14
0.171,-0.031,1.031,-40.534,0.407,0.856,14
0.164,-0.048,0.968,-17.732,0.012,2.998,14
0.172,-0.009,0.959,-3.554,-3.693,7.522,14
0.166,0.003,0.967,-14.449,-2.938,3.896,14
0.165,0.007,1.023,-21.468,-2.614,0.856,14
0.158,-0.033,1.000,-31.176,5.479,0.822,14
0.169,-0.023,0.997,-21.643,1.127,2.065,14
0.163,0.013,0.969,-9.386,0.371,5.899,14
0.171,0.061,0.968,-12.633,-1.355,2.238,14
0.164,0.021,1.005,-23.703,1.127,-3.185,14
0.166,0.004,0.987,-24.052,5.227,-2.598,14
0.163,-0.015,0.982,-22.970,0.695,-0.664,14
0.166,0.022,0.984,-14.903,3.141,4.137,14
0.165,0.043,0.951,-9.735,-0.887,6.452,14
0.167,0.098,0.988,-6.452,-1.103,4.379,14
0.171,0.058,0.996,3.954,-1.247,0.200,14
0.163,0.036,0.938,-7.221,-1.463,-1.389,14
0.162,0.036,1.018,-12.913,1.810,1.271,14
0.163,0.038,0.970,-5.405,0.623,0.891,14
0.162,0.023,0.972,-9.002,-0.204,2.238,14
0.171,0.080,0.978,-1.983,0.911,4.034,14
0.174,0.090,0.967,-2.890,-0.132,-0.387,14
0.163,0.033,0.999,-4.602,-0.096,-1.355,14
0.163,0.054,0.998,-3.833,0.803,-1.251,14
0.167,0.067,0.979,-2.925,2.134,1.029,14
0.167,0.065,0.969,-5.160,0.659,2.134,14
0.174,0.083,0.991,-6.417,0.839,1.685,14
0.165,0.091,0.987,-3.694,2.853,-0.664,14
0.169,0.066,0.968,-4.671,1.594,-1.562,14
0.158,0.036,0.985,-6.697,1.163,-1.734,14
0.165,0.068,0.987,3.919,-0.959,0.994,14
0.171,0.078,0.969,6.154,-0.240,-0.318,14
0.176,0.059,0.988,0.217,-0.096,0.096,14
0.168,0.054,0.977,-4.148,2.709,-0.629,14
0.164,0.059,0.979,-5.265,0.407,-0.560,14
0.167,0.069,0.976,-2.995,1.702,0.545,14
0.171,0.058,0.968,-3.694,2.062,-0.871,14
0.174,0.072,0.958,-1.738,0.371,1.029,14
0.172,0.069,0.986,-1.598,0.012,0.614,14
0.169,0.079,0.975,-2.297,1.163,1.201,14
0.170,0.085,0.982,-2.576,1.271,-0.284,14
0.170,0.072,0.968,-4.392,1.378,-0.284,14
0.168,0.071,0.987,-4.846,1.127,-1.320,14
0.170,0.079,0.975,0.392,0.515,0.062,14
0.176,0.080,0.968,2.208,0.731,0.994,14
0.175,0.091,0.970,1.335,-1.319,0.580,14
0.174,0.078,0.982,-1.948,-0.384,-0.975,14
0.167,0.069,0.973,-2.786,1.450,-0.249,14
0.166,0.077,0.990,-0.760,1.450,-0.526,14
0.168,0.068,0.973,0.287,2.386,-0.249,14
0.172,0.070,0.968,1.335,0.048,-0.180,14
0.173,0.069,0.968,0.043,0.911,0.925,14
0.174,0.069,0.971,-2.402,-1.391,0.614,14
0.173,0.090,0.996,-3.310,-0.600,1.201,14
0.171,0.078,0.964,-4.706,3.393,0.787,14
0.175,0.088,0.981,-4.252,0.228,0.303,14
0.170,0.072,0.974,-4.357,1.702,-0.111,14
0.172,0.090,0.968,-1.633,0.479,0.925,14
0.172,0.080,0.983,0.567,0.443,1.236,14
0.310,-0.686,0.668,717.304,52.055,1.443,15
0.241,-0.725,0.321,872.420,60.111,13.636,15
0.352,-0.665,-0.004,934.787,29.792,-4.739,15
0.250,-0.844,-0.468,919.004,3.321,3.136,15
0.273,-0.696,-0.492,720.552,-1.319,-12.200,15
0.315,-0.607,-0.573,508.062,8.464,-11.889,15
0.340,-0.682,-0.471,434.520,32.669,-24.773,15
0.314,-0.641,-0.537,483.653,42.272,-19.626,15
0.277,-0.257,-0.600,464.412,78.850,-12.200,15
0.266,-0.145,-0.783,471.885,103.487,-35.584,15
0.191,-0.057,-1.088,368.731,88.669,-31.232,15
0.159,-0.027,-1.122,271.408,63.744,-21.181,15
0.184,0.010,-1.047,220.424,56.874,-17.278,15
0.137,0.070,-0.948,237.186,49.286,-23.426,15
0.113,0.127,-0.771,244.205,59.536,-21.146,15
0.074,0.223,-0.971,206.840,76.872,-7.123,15
