ACC-X,ACC-Y,ACC-Z,GYRO-X,GYRO-Y,GYRO-Z,TEST
0.114,0.316,1.193,47.918,50.580,-3.807,1
0.047,-0.010,0.812,7.411,54.860,-13.029,1
0.032,0.017,0.772,3.884,-1.031,2.065,1
0.026,0.110,1.089,-11.935,-15.454,1.374,1
0.020,0.027,1.042,25.325,9.507,8.317,1
0.019,-0.015,0.995,51.934,14.470,12.116,1
0.046,0.003,0.970,32.623,25.008,22.720,1
-0.094,0.151,0.923,-43.433,6.234,8.869,1
0.038,0.151,0.973,-49.230,-1.283,-17.692,1
0.053,0.079,0.696,-275.757,-31.423,-19.315,1
0.052,0.138,0.775,-563.884,-67.965,1.029,1
-0.057,0.458,0.585,-770.682,-68.900,39.403,1
0.032,0.874,1.102,-1061.323,-63.685,76.499,1
0.053,0.840,0.622,-1031.640,114.888,105.513,1
0.149,1.541,0.518,-1062.440,149.452,96.982,1
0.191,1.210,0.478,-1024.971,237.785,55.153,1
0.061,1.602,-0.620,-849.985,213.795,57.226,1
-0.134,0.747,-0.788,-652.546,194.841,-8.643,1
-0.106,0.068,-0.685,-521.072,109.781,69.902,1
-0.152,0.395,-0.315,-483.812,93.236,87.000,1
-0.215,-0.088,-0.059,-337.391,100.286,53.565,1
-0.376,0.031,-0.391,-230.047,138.014,59.920,1
-0.630,-0.125,-0.869,-195.231,139.453,53.634,1
-0.800,0.309,-1.199,-163.558,128.375,57.399,1
-0.688,0.248,-1.001,-165.758,82.447,13.740,1
-0.682,-0.076,-1.092,-156.120,78.706,5.243,1
-0.716,-0.156,-1.197,-109.118,47.955,11.045,1
-0.610,0.111,-0.942,-74.721,29.288,15.467,1
-0.628,0.022,-1.216,-49.125,24.469,2.445,1
-0.499,0.172,-0.892,-53.525,12.096,-10.749,1
-0.452,0.012,-0.906,-63.163,6.414,-8.573,1
-0.457,0.062,-0.947,-51.395,-6.642,-6.536,1
-0.404,-0.014,-0.815,-29.150,-11.210,-10.577,1
-0.422,-0.070,-0.947,0.357,-21.496,-6.536,1
-0.386,0.050,-0.923,-5.998,-3.513,-8.435,1
-0.436,0.017,-0.975,20.611,-9.160,-16.829,1
-0.459,-0.020,-0.935,34.579,-9.016,-20.144,1
-0.430,0.171,-0.911,57.626,-4.340,-24.600,1
-0.462,0.053,-0.996,91.045,-17.036,-36.102,1
-0.392,0.154,-0.862,101.521,-20.201,-25.982,1
-0.475,0.188,-1.004,187.285,-34.084,-42.596,1
-0.500,0.089,-1.034,274.097,-66.166,-16.483,1
-0.383,0.325,-0.815,299.623,-75.985,-18.176,1
-0.278,0.242,-0.428,181.698,-52.643,-34.237,1
-0.342,0.362,-0.961,105.432,-9.052,-29.263,1
-0.351,0.562,-0.846,130.051,-15.094,-39.694,1
-0.389,0.242,-0.924,183.723,-19.806,-42.734,1
-0.363,0.427,-0.826,242.773,-36.206,-31.474,1
-0.323,0.626,-0.747,251.119,-42.824,-26.949,1
-0.307,0.587,-0.679,201.079,-33.221,-32.026,1
-0.305,0.677,-0.571,148.768,-15.742,-21.975,1
-0.301,0.770,-0.584,146.813,-8.728,-20.421,1
-0.323,0.777,-0.617,186.342,1.954,-32.614,1
-0.298,0.813,-0.485,181.558,-4.808,-27.951,1
-0.290,0.718,-0.495,171.955,-1.463,-27.881,1
-0.275,0.702,-0.506,157.289,-7.289,-21.284,1
-0.273,0.612,-0.454,127.921,-8.117,-18.383,1
-0.257,0.872,-0.363,132.216,-5.923,-1.562,1
-0.245,0.963,-0.289,198.145,4.256,-27.847,1
-0.256,0.947,-0.326,131.867,3.357,-11.578,1
-0.250,0.979,-0.128,96.492,6.773,-10.680,1
-0.264,0.965,-0.235,97.505,6.378,-17.761,1
-0.261,0.956,-0.321,108.330,7.061,-14.860,1
-0.259,0.833,-0.212,121.006,2.314,-15.585,1
-0.228,0.991,-0.129,113.708,-3.621,-9.230,1
-0.230,0.900,-0.089,101.835,3.357,-11.751,1
-0.229,0.995,-0.025,118.841,6.953,-17.243,1
-0.218,0.919,-0.120,130.644,7.025,-16.000,1
-0.191,1.101,0.206,174.190,2.601,-9.782,1
-0.200,0.986,0.116,177.053,20.261,-16.138,1
-0.204,0.917,0.099,156.136,17.959,-17.658,1
-0.204,0.976,0.111,130.121,18.391,-16.725,1
-0.205,0.982,0.185,104.734,8.284,-14.894,1
-0.189,0.951,0.175,72.048,0.084,-12.787,1
-0.168,1.027,0.446,139.165,15.082,-17.519,1
-0.167,0.980,0.448,173.841,20.441,-19.903,1
-0.192,0.957,0.348,169.790,34.431,-21.353,1
-0.168,0.903,0.397,219.621,36.230,-33.442,1
-0.144,0.825,0.454,206.945,25.800,-24.497,1
-0.155,0.820,0.383,158.895,23.030,-17.554,1
-0.138,0.824,0.463,131.064,15.046,-19.765,1
-0.120,0.738,0.669,145.870,4.759,-12.615,1
-0.123,0.716,0.693,141.994,8.392,-5.465,1
-0.151,0.798,0.799,156.555,21.340,-15.378,1
-0.123,0.668,0.758,173.422,29.504,-11.889,1
-0.103,0.585,0.691,145.800,21.412,-10.335,1
-0.110,0.660,0.893,142.901,23.642,-6.950,1
-0.097,0.560,0.887,165.739,33.964,-8.953,1
-0.085,0.476,0.830,216.024,43.963,-2.080,1
-0.080,0.447,0.847,226.116,33.784,6.452,1
-0.071,0.469,0.861,193.396,53.673,-6.501,1
-0.079,0.387,0.925,191.685,41.517,-2.184,1
-0.047,0.300,0.716,149.536,25.620,-4.809,1
-0.036,0.072,1.010,171.082,0.911,5.001,1
-0.055,0.029,1.248,223.253,5.083,21.166,1
-0.047,0.182,0.943,226.920,65.470,4.759,1
-0.037,0.246,0.719,247.243,28.569,2.687,1
0.064,-0.270,0.780,291.906,-30.739,-19.799,1
0.020,-0.211,1.028,224.929,-11.354,-23.771,1
0.012,-0.301,1.015,231.739,-20.921,9.180,1
-0.006,-0.375,0.858,251.434,-29.948,10.355,1
-0.024,-0.262,0.779,288.414,-50.989,10.527,1
-0.075,-0.210,0.881,324.277,-73.216,-24.531,1
-0.069,-0.448,0.843,214.558,-64.260,-31.508,1
-0.069,-0.440,0.837,165.425,-57.247,-55.514,1
-0.065,-0.711,0.847,99.426,-46.565,-46.602,1
-0.111,-0.943,0.822,28.293,-43.076,-41.559,1
-0.260,-0.674,0.976,4.059,-34.408,-15.551,1
-0.250,-0.467,0.908,13.627,-8.872,-17.485,1
-0.223,-0.551,0.894,18.865,-7.973,-26.845,1
-0.184,-0.323,0.694,-28.452,-2.362,-30.092,1
-0.174,-0.281,0.622,-14.694,-35.595,-72.853,1
-0.256,-0.640,0.762,-21.503,-55.736,-116.823,1
-0.540,-1.185,0.985,-76.921,-30.056,-95.684,1
-0.310,-0.610,0.880,-22.166,46.768,3.274,1
-0.237,-0.452,0.800,-24.925,19.577,-11.060,1
-0.244,-0.478,0.825,-31.839,12.816,-24.255,1
-0.275,-0.416,0.924,-39.312,16.988,-27.329,1
-0.288,-0.368,0.863,-51.499,33.352,-46.361,1
-0.297,-0.559,0.940,-71.928,25.116,-38.140,1
-0.213,-0.455,0.779,-110.445,24.397,-15.205,1
-0.204,-0.453,0.790,-125.286,19.865,-1.078,1
-0.233,-0.461,0.987,-76.258,14.506,25.276,1
-0.261,-0.313,0.871,-68.366,20.117,13.256,1
-0.225,-0.322,0.820,-25.624,10.478,0.269,1
-0.298,-0.485,1.080,-36.763,3.716,-8.332,1
-0.254,-0.297,1.025,1.021,16.376,6.555,1
-0.212,-0.273,0.852,12.405,17.491,4.241,1
-0.184,-0.242,0.805,6.678,11.809,0.027,1
-0.194,-0.205,0.846,-23.878,3.464,-3.254,1
-0.187,-0.454,1.006,-69.937,-1.715,-1.596,1
-0.227,-0.322,1.027,-74.442,15.154,1.063,1
-0.189,-0.172,0.787,-23.389,14.686,-5.154,1
-0.176,-0.215,0.839,-22.341,-0.708,-15.551,1
-0.203,-0.223,0.965,1.859,-3.477,-3.945,1
-0.185,-0.255,0.905,-34.738,-4.844,-4.739,1
-0.191,-0.397,1.017,-57.226,-0.851,1.650,1
-0.219,-0.224,1.015,-94.312,11.017,6.003,1
-0.204,-0.158,0.945,-108.245,21.268,15.985,1
-0.187,-0.289,0.787,-35.960,-1.103,28.177,1
-0.202,-0.058,1.069,-14.868,-11.174,24.551,1
-0.283,-0.081,1.140,-2.332,-1.859,24.792,1
-0.213,-0.322,1.140,-42.385,25.979,12.289,1
-0.185,-0.247,0.968,-6.068,37.668,32.599,1
-0.125,-0.044,0.725,39.258,19.434,33.531,1
-0.170,-0.117,0.662,92.372,-12.037,27.348,1
-0.172,-0.181,1.039,48.233,-17.252,10.804,1
-0.203,-0.233,0.985,-14.274,18.678,3.654,1
-0.184,-0.178,0.990,-45.912,21.088,-7.088,1
-0.152,-0.173,0.926,-80.658,24.253,-9.126,1
-0.144,-0.209,0.972,-103.845,17.959,-27.951,1
-0.138,-0.086,1.122,-114.111,30.979,-31.785,1
-0.133,-0.001,1.021,-179.831,51.264,-52.992,1
-0.130,-0.114,1.005,-226.589,49.825,-70.366,1
-0.117,-0.260,1.192,-91.553,24.864,-30.265,1
-0.096,0.063,0.987,50.118,48.422,-1.976,1
-0.107,0.174,0.886,38.176,30.187,-5.430,1
-0.085,0.053,0.854,38.769,19.829,-13.858,1
-0.088,0.019,0.965,31.541,18.786,-12.235,1
-0.080,0.111,0.898,-1.459,15.837,-23.806,1
-0.050,0.014,0.895,-18.779,10.010,-29.056,1
-0.014,-0.212,1.155,23.335,19.757,-19.212,1
-0.038,-0.010,1.024,42.820,40.186,-6.121,1
-0.007,-0.101,1.111,65.902,50.580,-2.633,1
-0.029,-0.004,0.914,57.277,54.609,2.790,1
0.013,-0.073,0.897,41.528,46.696,-8.953,1
0.045,0.023,0.932,-15.252,60.723,-9.472,1
0.038,-0.062,0.876,18.306,57.774,-8.090,1
0.042,0.108,0.889,-17.347,38.388,-16.587,1
0.066,-0.097,0.882,-26.147,28.389,-30.265,1
0.059,-0.087,1.081,-7.709,22.850,-8.504,1
0.051,-0.357,1.277,147.266,24.649,-3.600,1
0.046,-0.031,1.029,279.335,68.168,41.924,1
0.038,0.049,0.631,208.551,59.248,24.862,1
0.089,-0.189,0.812,75.645,-2.038,-2.667,1
0.111,-0.409,1.040,26.198,-6.318,-0.629,1
0.088,-0.239,1.041,19.493,5.479,2.687,1
0.052,-0.158,0.963,-3.065,-1.211,-2.287,1
0.076,-0.251,0.966,-36.589,-4.232,-18.348,1
0.092,-0.261,1.022,-63.722,-2.146,-18.797,1
0.088,-0.279,0.955,-59.601,-0.420,-14.134,1
0.074,-0.187,0.951,-54.118,0.192,-16.276,1
0.069,-0.250,0.966,-15.601,-2.362,-16.725,1
0.068,-0.115,0.833,-33.830,-11.713,-6.881,1
0.078,-0.207,0.928,-70.321,-20.453,-19.695,1
0.067,-0.159,1.049,-74.058,-14.123,-16.863,1
0.067,-0.274,1.041,-35.785,-3.981,-20.386,1
0.065,-0.150,1.033,25.954,10.838,-4.636,1
0.041,-0.068,0.953,17.712,5.946,0.269,1
0.069,-0.125,0.926,-6.138,0.228,-7.434,1
0.134,-0.126,1.000,-25.589,-2.038,-1.734,1
0.080,-0.167,1.024,-41.477,1.630,-9.541,1
0.064,-0.092,1.028,-14.484,14.650,-16.034,1
0.072,-0.168,0.979,14.570,18.642,-22.355,1
0.068,-0.115,0.945,41.423,23.282,-11.958,1
0.075,-0.035,0.853,27.804,10.406,-11.440,1
0.082,-0.142,0.970,-2.960,0.371,-14.411,1
0.089,-0.186,0.982,2.313,3.716,-21.215,1
0.081,-0.135,1.047,25.046,10.298,-27.985,1
0.074,-0.216,1.004,51.131,19.398,-27.502,1
0.147,1.023,0.925,-980.482,136.648,61.440,2
0.099,0.945,0.040,-833.433,208.472,52.183,2
0.109,0.641,-0.292,-635.820,160.601,97.776,2
0.115,1.059,-0.343,-555.817,119.024,143.611,2
0.095,1.207,-0.645,-569.611,61.478,111.143,2
0.124,1.061,-0.469,-597.687,64.032,76.430,2
0.241,0.952,-0.166,-530.151,82.447,42.339,2
0.099,0.633,-0.389,-423.644,126.505,31.390,2
-0.117,0.191,-0.536,-302.646,132.440,34.084,2
-0.189,0.150,-0.719,-210.736,104.062,54.255,2
-0.169,0.490,-0.853,-137.298,91.726,52.805,2
-0.116,0.745,-0.824,-114.949,82.375,23.687,2
-0.142,0.587,-0.709,-127.137,101.077,-15.516,2
-0.339,0.198,-1.119,-154.444,145.495,-24.704,2
-0.546,-0.078,-1.584,-126.962,60.723,2.618,2
-0.356,0.297,-1.024,-62.779,4.831,3.827,2
-0.435,0.074,-1.051,-53.420,26.915,3.101,2
-0.395,0.250,-1.107,-71.788,25.260,9.215,2
-0.546,-0.225,-1.262,-79.575,23.354,3.343,2
-0.342,-0.095,-0.963,-60.823,-27.143,33.877,2
-0.277,0.036,-0.745,-45.598,-11.497,9.491,2
-0.342,-0.050,-0.872,-28.906,-6.282,13.671,2
-0.304,0.104,-0.913,-9.211,-4.484,14.672,2
-0.397,-0.109,-1.110,15.722,-1.715,7.419,2
-0.263,0.184,-0.912,0.078,-0.312,19.197,2
-0.309,0.187,-1.055,7.236,-5.419,12.254,2
-0.289,0.027,-0.977,55.007,-4.952,15.363,2
-0.316,0.189,-1.077,113.324,-30.452,21.235,2
-0.271,0.514,-1.187,170.069,-68.180,11.425,2
-0.288,0.348,-1.118,240.957,-97.601,-24.013,2
-0.259,0.196,-0.980,280.103,-97.529,-23.426,2
-0.089,0.268,-0.631,295.014,-66.310,-17.105,2
-0.107,0.347,-0.525,338.455,-2.578,-14.929,2
-0.186,0.616,-0.644,362.305,61.370,-12.373,2
-0.276,0.818,-0.954,294.735,63.061,-15.343,2
-0.237,0.830,-0.717,225.523,49.286,-25.982,2
-0.254,0.752,-0.702,188.298,30.835,-36.897,2
-0.219,0.773,-0.627,185.539,6.522,-28.780,2
-0.215,0.781,-0.581,162.841,1.055,-17.312,2
-0.166,0.894,-0.389,185.853,-4.988,-17.519,2
-0.189,0.959,-0.371,175.447,11.773,-13.893,2
-0.218,0.972,-0.431,147.895,1.307,-19.903,2
-0.159,0.926,-0.355,111.334,-7.937,-19.246,2
-0.139,0.840,-0.227,76.728,-9.987,-15.585,2
-0.159,0.881,-0.332,71.315,-7.649,-14.204,2
-0.131,0.973,-0.274,51.550,-14.555,-4.843,2
-0.139,0.988,-0.192,50.887,-14.806,-13.893,2
-0.151,0.952,-0.208,38.839,-4.052,-16.725,2
-0.133,0.943,-0.221,39.223,-11.497,-6.121,2
-0.124,1.041,-0.160,62.340,-8.548,-9.782,2
-0.157,0.960,-0.223,58.848,-4.592,-13.789,2
-0.145,0.976,-0.189,59.268,-8.404,-16.587,2
-0.125,0.960,-0.178,71.804,-12.612,-18.625,2
-0.101,1.114,-0.135,91.883,-18.223,-22.977,2
-0.131,0.990,-0.060,74.982,-13.404,-27.743,2
-0.097,1.016,-0.154,108.680,-23.223,-34.271,2
-0.088,0.904,0.027,137.349,-12.576,-30.852,2
-0.107,0.772,-0.087,95.724,-11.713,-15.689,2
-0.074,0.953,-0.014,41.912,-12.864,2.825,2
-0.067,1.037,0.152,59.128,-14.698,-7.503,2
-0.083,1.088,0.080,115.314,-3.333,-23.115,2
-0.075,0.952,0.132,159.489,-8.692,-24.635,2
-0.043,0.898,0.157,153.063,-4.124,-14.825,2
-0.042,0.983,0.212,143.495,0.192,-4.256,2
-0.071,0.976,0.249,163.958,10.945,-4.809,2
-0.085,0.902,0.033,75.261,-19.590,4.966,2
-0.070,0.988,0.359,31.296,-28.977,13.325,2
-0.066,1.048,0.421,59.756,-8.620,8.455,2
-0.082,0.944,0.465,106.654,7.205,10.700,2
-0.076,0.836,0.274,105.397,14.722,7.902,2
-0.092,0.980,0.292,85.458,10.262,4.103,2
-0.063,0.905,0.492,71.280,4.975,0.027,2
-0.072,0.868,0.336,79.975,10.370,-9.782,2
-0.069,0.798,0.408,47.395,-8.225,2.203,2
-0.061,0.875,0.496,45.963,-6.534,3.965,2
-0.071,1.003,0.627,152.225,13.391,-0.422,2
-0.087,0.832,0.531,177.019,12.852,-9.437,2
-0.062,0.782,0.461,105.851,4.579,-7.883,2
-0.061,0.770,0.719,59.617,0.371,-1.493,2
-0.062,0.759,0.594,128.479,11.305,-17.796,2
-0.046,0.776,0.590,85.143,1.199,-5.741,2
-0.041,0.707,0.656,28.154,-3.621,-1.320,2
-0.051,0.694,0.703,40.480,2.889,-0.387,2
-0.064,0.738,0.787,67.159,3.213,4.586,2
-0.063,0.720,0.670,84.096,5.227,2.756,2
-0.039,0.649,0.713,200.136,27.418,-1.044,2
-0.052,0.658,0.635,156.730,17.347,2.549,2
-0.041,0.583,0.735,99.810,3.069,-1.804,2
-0.035,0.558,0.790,63.912,-5.131,4.206,2
-0.062,0.575,1.023,105.851,-4.017,14.327,2
-0.053,0.551,0.897,119.435,4.472,10.424,2
-0.061,0.534,0.928,164.971,13.823,9.871,2
-0.040,0.462,0.788,173.492,16.053,8.559,2
-0.045,0.471,0.799,109.762,-0.024,1.374,2
-0.035,0.409,0.856,29.760,-13.152,-7.503,2
-0.043,0.311,1.030,43.134,-6.318,-6.777,2
-0.056,0.384,0.917,93.699,5.515,6.452,2
-0.101,0.366,1.078,121.356,2.853,3.999,2
-0.069,0.326,0.931,143.111,19.254,-3.047,2
-0.052,0.225,0.958,148.279,11.161,-2.391,2
-0.032,0.201,0.855,102.115,7.529,-2.253,2
-0.028,0.199,0.876,10.344,-8.620,-8.090,2
-0.055,0.073,1.205,83.153,1.199,5.243,2
-0.046,0.174,0.934,137.140,13.859,7.350,2
-0.025,0.214,0.869,177.472,-0.024,0.303,2
-0.005,0.030,0.972,138.082,-10.347,-6.881,2
-0.006,0.074,0.874,57.801,-7.289,-10.300,2
-0.035,-0.109,1.107,-18.186,-18.475,-18.279,2
-0.075,-0.038,1.087,36.919,-1.319,2.099,2
-0.065,-0.021,1.013,135.778,7.025,11.702,2
-0.061,-0.052,1.091,272.909,7.924,22.824,2
-0.003,-0.176,0.929,251.818,8.032,13.636,2
-0.012,-0.200,0.864,174.819,9.651,13.394,2
0.008,-0.139,0.824,36.290,-2.830,-6.881,2
-0.037,-0.391,0.981,-37.741,-13.476,-18.245,2
-0.042,-0.218,0.942,18.516,0.839,1.581,2
-0.048,-0.244,0.979,29.481,-3.153,-0.007,2
-0.026,-0.293,0.931,20.785,-3.261,-0.318,2
-0.032,-0.291,0.944,-2.367,-4.160,0.027,2
-0.049,-0.242,0.945,-17.697,-3.837,-3.082,2
-0.047,-0.250,0.917,-50.242,-13.152,-15.378,2
-0.083,-0.275,1.038,-40.709,-15.598,-15.102,2
-0.061,-0.252,1.030,10.624,-0.923,0.614,2
-0.050,-0.279,0.987,8.563,-1.607,2.756,2
-0.056,-0.218,0.916,-1.983,-4.556,2.272,2
-0.061,-0.192,0.899,-16.090,-9.124,-1.942,2
-0.066,-0.203,0.952,-51.430,-18.295,-11.337,2
-0.069,-0.162,0.955,-92.601,-16.353,-19.799,2
-0.093,-0.289,1.054,-59.706,-13.620,-4.843,2
-0.078,-0.179,0.990,21.135,-7.002,8.420,2
-0.077,-0.222,1.007,33.601,-5.671,6.417,2
-0.082,-0.210,0.986,32.030,0.228,8.869,2
-0.094,-0.239,0.959,28.154,5.946,11.287,2
-0.138,-0.013,0.963,-24.087,-0.708,-6.950,2
-0.064,-0.261,1.000,-49.963,-5.491,-13.167,2
-0.062,-0.215,1.013,-58.798,3.357,-8.194,2
-0.129,-0.113,0.945,-67.807,1.702,-6.501,2
-0.072,-0.185,1.026,-35.052,-1.247,-7.710,2
-0.059,-0.183,1.039,-8.582,7.133,1.720,2
-0.060,-0.148,0.963,0.392,11.413,2.203,2
-0.052,-0.149,0.898,-4.148,12.024,0.338,2
-0.113,0.032,0.981,-40.779,-5.671,-4.325,2
-0.066,-0.203,0.982,-20.141,0.731,-3.012,2
-0.079,-0.117,1.009,17.992,1.414,1.650,2
-0.067,-0.164,1.006,23.719,1.774,2.825,2
-0.061,-0.154,0.951,27.665,5.515,6.141,2
-0.074,-0.087,0.936,12.719,1.738,5.001,2
-0.081,-0.124,0.971,-6.976,-4.448,2.928,2
-0.071,-0.120,0.973,-8.757,-2.074,2.410,2
-0.082,-0.160,0.984,5.874,-0.564,0.649,2
-0.074,-0.114,0.931,17.154,-0.204,1.927,2
-0.063,-0.171,0.967,12.090,-0.492,-0.215,2
-0.106,-0.178,1.004,3.116,-2.470,3.032,2
-0.063,-0.232,1.023,2.278,3.393,4.241,2
-0.064,-0.128,0.980,-2.437,4.472,5.415,2
-0.071,-0.140,0.989,-5.195,4.328,4.966,2
-0.078,-0.094,0.988,-2.541,11.485,2.030,2
-0.084,-0.108,0.842,-17.452,14.866,-1.251,2
-0.104,-0.066,1.062,-56.144,-5.851,-10.370,2
-0.066,-0.179,1.000,-28.976,-1.607,-1.873,2
-0.074,-0.109,0.943,-0.097,3.788,1.305,2
-0.059,-0.114,0.946,24.696,-1.894,-2.529,2
-0.071,-0.152,1.052,27.106,-4.268,1.271,2
-0.102,-0.088,1.002,13.278,2.889,3.136,2
-0.076,-0.116,0.972,0.636,3.824,-1.596,2
-0.074,-0.168,1.012,10.659,3.321,2.998,2
-0.068,-0.143,0.995,12.859,0.371,2.134,2
-0.060,-0.151,1.016,6.503,1.199,0.407,2
-0.047,-0.241,1.072,22.287,7.421,5.346,2
-0.052,-0.127,0.964,23.404,12.996,8.179,2
-0.061,-0.085,0.869,12.195,8.284,4.552,2
-0.051,-0.166,0.994,-5.614,-1.499,-2.667,2
-0.054,-0.198,1.005,4.443,1.522,0.925,2
-0.049,-0.186,0.951,9.925,3.393,2.134,2
-0.046,-0.212,0.982,6.747,0.515,2.790,2
-0.056,-0.188,0.982,6.608,5.407,5.692,2
-0.095,-0.065,0.934,4.617,6.162,5.312,2
-0.045,-0.209,0.953,-0.167,1.954,-1.873,2
-0.050,-0.177,1.005,2.068,0.623,0.856,2
-0.060,-0.144,0.992,-1.913,1.127,0.372,2
-0.044,-0.199,1.034,6.294,4.436,-0.111,2
-0.031,-0.190,0.982,17.922,5.335,4.276,2
-0.048,-0.150,0.944,17.887,7.888,4.379,2
-0.071,-0.041,0.938,-4.881,-1.679,-1.631,2
-0.043,-0.221,0.974,-1.459,1.055,-0.629,2
-0.049,-0.208,0.994,2.452,2.278,0.476,2
-0.043,-0.227,1.020,22.462,8.140,4.966,2
-0.026,-0.192,0.952,36.255,12.816,8.800,2
-0.050,-0.188,0.964,30.458,8.716,5.899,2
-0.029,-0.183,0.961,8.633,4.543,1.098,2
-0.040,-0.170,0.960,5.874,5.587,2.894,2
-0.039,-0.208,0.960,-9.909,1.091,-1.700,2
-0.018,-0.304,1.015,5.036,4.867,1.581,2
-0.038,-0.226,1.001,26.652,11.917,6.797,2
-0.043,-0.223,0.967,18.131,5.874,3.757,2
-0.028,-0.268,1.006,18.131,4.903,3.792,2
-0.030,-0.243,0.969,20.087,9.831,5.105,2
-0.025,-0.210,0.886,12.719,7.313,3.585,2
-0.023,-0.243,0.945,6.468,2.529,1.098,2
-0.014,-0.234,0.963,7.551,1.199,2.238,2
0.095,1.368,-0.966,-330.303,46.049,94.978,3
0.238,1.009,-0.208,-150.009,-18.835,-16.863,3
0.157,0.805,-0.195,-168.168,26.339,-21.388,3
0.135,0.730,-0.276,-248.275,110.141,21.546,3
0.092,0.822,-0.763,-238.288,116.399,33.669,3
-0.023,0.568,-0.754,-152.314,44.502,10.562,3
-0.011,0.548,-0.607,-119.315,27.778,7.281,3
0.039,0.479,-0.571,-126.578,44.142,8.455,3
0.093,0.636,-0.490,-170.089,77.951,24.585,3
-0.044,0.792,-0.952,-215.520,89.388,1.547,3
0.060,-0.730,-0.739,-126.194,118.988,109.796,3
-0.119,0.723,-1.307,-201.866,3.896,308.368,3
-0.099,0.690,-0.859,-177.701,-84.833,146.513,3
0.045,0.486,-0.551,-79.296,-50.917,122.162,3
-0.174,0.613,-0.679,-96.931,-22.467,89.314,3
-0.218,0.436,-1.278,-103.635,58.133,77.639,3
-0.182,0.521,-1.138,-119.908,12.456,86.447,3
-0.194,0.364,-0.965,-79.052,-8.153,79.021,3
-0.203,0.212,-0.879,-84.010,17.779,77.501,3
-0.201,0.288,-0.753,-112.296,30.655,56.708,3
-0.279,0.234,-1.100,-139.114,44.034,44.308,3
-0.281,0.283,-1.178,-105.905,18.930,12.565,3
-0.256,0.111,-0.992,-123.680,7.565,-13.513,3
-0.229,0.066,-0.892,-127.905,11.161,-11.578,3
-0.259,0.006,-0.866,-118.232,22.635,0.234,3
-0.294,-0.010,-0.997,-99.270,21.304,12.323,3
-0.306,-0.107,-0.995,-113.797,27.526,20.095,3
-0.278,-0.061,-1.006,-61.836,15.585,23.065,3
-0.236,-0.071,-0.939,-19.827,19.469,14.396,3
-0.246,-0.058,-0.969,18.760,3.608,8.248,3
-0.282,-0.030,-1.073,8.598,-3.189,1.685,3
-0.317,-0.135,-1.025,-2.297,-9.124,-0.180,3
-0.257,0.009,-1.036,-22.341,17.312,12.772,3
-0.274,0.004,-1.038,13.173,1.630,2.376,3
-0.225,0.078,-1.020,43.239,-23.187,-8.988,3
-0.194,-0.012,-0.809,120.727,-34.624,-8.263,3
-0.242,-0.074,-0.866,185.958,-46.565,-15.482,3
-0.227,0.135,-0.990,233.554,-35.091,-14.065,3
-0.188,0.121,-0.925,256.951,-26.352,-16.345,3
-0.173,0.256,-0.780,308.947,16.664,-14.963,3
-0.273,0.300,-1.022,369.953,26.231,3.792,3
-0.269,0.380,-1.029,344.217,8.248,21.787,3
-0.300,0.604,-0.730,270.675,4.615,11.564,3
-0.203,0.655,-0.811,212.044,-1.175,-7.123,3
-0.193,0.625,-0.623,205.863,-10.526,-10.508,3
-0.306,0.531,-0.705,313.592,19.901,24.067,3
-0.309,0.875,-0.748,248.186,5.551,41.821,3
-0.265,0.789,-0.517,253.040,-22.899,15.847,3
-0.282,0.852,-0.541,175.307,-19.482,15.812,3
-0.239,0.911,-0.391,103.651,-31.351,0.856,3
-0.151,0.913,-0.239,83.328,-12.756,-4.152,3
-0.265,0.982,-0.497,113.324,-6.858,-0.767,3
-0.170,1.003,-0.465,90.032,-28.366,-23.875,3
-0.322,1.077,-0.317,83.223,-9.555,-9.402,3
-0.240,0.876,-0.365,68.486,-0.096,-20.524,3
-0.218,0.878,-0.361,42.576,-9.699,-11.820,3
-0.161,1.008,-0.211,56.858,-9.268,-26.707,3
-0.179,0.963,-0.323,126.489,-22.144,-31.094,3
-0.255,0.824,-0.328,219.621,-22.863,-20.870,3
-0.219,0.916,-0.193,232.612,-33.149,2.756,3
-0.206,1.006,-0.129,206.631,-22.647,0.096,3
-0.208,1.067,-0.049,150.898,-17.935,-8.366,3
-0.169,1.035,0.059,102.324,-8.476,-19.108,3
-0.162,0.992,0.069,153.552,-7.541,-33.684,3
-0.165,1.074,0.094,234.427,-4.196,-39.245,3
-0.167,0.942,0.163,245.776,-5.311,-38.140,3
-0.156,0.893,0.137,240.678,-11.497,-34.444,3
-0.123,0.949,0.290,156.066,-29.660,-23.115,3
-0.111,0.915,0.422,102.324,-13.620,-29.194,3
-0.120,0.917,0.353,67.159,3.608,-24.048,3
-0.096,0.862,0.442,92.407,3.572,-23.495,3
-0.101,0.940,0.405,117.689,17.240,-13.996,3
-0.122,0.862,0.400,101.102,17.815,-13.064,3
-0.099,0.844,0.391,77.601,11.305,-15.620,3
-0.076,0.856,0.532,42.715,-0.204,-5.499,3
-0.088,0.809,0.544,57.137,4.256,-15.274,3
-0.066,0.831,0.613,89.020,18.211,-7.572,3
-0.081,0.846,0.605,140.946,20.369,-2.287,3
-0.087,0.790,0.509,126.733,9.075,1.754,3
-0.058,0.742,0.628,186.936,19.146,-13.167,3
-0.062,0.747,0.590,152.644,15.657,-6.570,3
-0.062,0.658,0.693,82.175,-2.686,-5.983,3
-0.066,0.696,0.752,35.487,-0.240,2.341,3
-0.053,0.717,0.749,75.505,12.492,-6.846,3
-0.040,0.689,0.822,131.552,17.635,0.165,3
-0.050,0.649,0.733,122.822,15.621,1.443,3
-0.036,0.567,0.736,127.537,16.448,-4.601,3
-0.038,0.565,0.774,88.705,4.400,-4.739,3
-0.035,0.534,0.840,107.108,12.348,-5.741,3
-0.062,0.556,1.107,132.635,12.492,-0.629,3
-0.029,0.444,0.780,220.389,33.676,3.412,3
-0.018,0.407,0.888,230.900,31.770,7.419,3
-0.009,0.325,0.937,184.352,20.189,6.659,3
-0.007,0.326,0.831,141.819,18.462,5.830,3
-0.012,0.328,0.827,34.823,-3.585,-4.809,3
0.003,0.294,0.966,-50.487,-20.417,-11.682,3
-0.023,0.262,1.066,-2.017,-4.484,-2.460,3
-0.027,0.262,1.118,36.988,-6.642,-3.600,3
-0.006,0.230,0.823,101.242,10.010,-0.698,3
-0.016,0.225,0.981,75.750,4.220,-0.111,3
-0.014,0.223,0.907,30.074,4.543,0.338,3
-0.020,0.273,0.940,-29.709,-9.160,-10.093,3
0.004,0.136,1.052,5.281,1.163,-8.884,3
-0.028,0.265,1.054,42.820,5.658,-2.322,3
-0.030,0.068,1.144,123.276,11.917,0.476,3
-0.012,0.157,0.948,233.450,27.778,15.294,3
0.015,0.075,0.890,223.707,19.793,1.374,3
0.016,0.056,0.938,151.212,6.090,0.303,3
0.019,-0.003,0.904,59.512,-0.708,-9.817,3
0.002,-0.090,1.090,-4.148,-8.908,-6.570,3
0.006,0.008,0.913,30.004,1.702,2.134,3
-0.011,-0.032,1.067,47.744,-3.045,2.479,3
0.013,-0.024,0.949,79.382,0.803,8.938,3
0.013,-0.116,0.917,31.681,-5.347,4.137,3
0.006,-0.083,0.920,-26.846,-13.296,1.961,3
0.001,-0.240,1.133,-45.004,-23.115,2.514,3
-0.022,-0.059,0.941,67.439,-10.131,23.964,3
-0.026,-0.084,0.969,49.490,-18.547,18.817,3
-0.024,-0.088,0.940,12.405,-25.740,21.615,3
-0.026,-0.071,0.895,-32.817,-29.804,16.019,3
-0.017,-0.219,0.957,-66.480,-44.443,12.772,3
-0.094,0.024,1.002,-74.442,-46.241,15.398,3
-0.058,-0.098,1.019,-97.664,-38.256,-5.948,3
-0.077,0.014,1.069,-107.581,-20.885,-6.605,3
-0.087,0.055,1.096,-88.270,-5.095,-7.779,3
-0.110,0.163,0.933,-16.893,4.112,-9.230,3
-0.085,0.037,1.073,85.772,2.565,-10.991,3
-0.116,0.107,1.064,119.784,10.838,-11.233,3
-0.115,0.049,1.083,90.451,10.262,-11.095,3
-0.067,-0.058,0.854,54.553,12.744,-11.751,3
-0.056,-0.128,0.959,20.681,9.327,-11.371,3
-0.061,-0.092,0.979,-4.776,6.486,-7.744,3
-0.061,-0.060,0.984,14.011,22.635,-18.141,3
-0.066,-0.063,0.902,25.325,14.326,-20.041,3
-0.052,-0.098,0.979,36.500,6.486,-15.343,3
-0.046,-0.101,0.929,21.798,-9.196,-14.031,3
-0.045,-0.065,0.916,-20.036,-21.640,-18.245,3
-0.043,-0.065,0.934,-38.439,-26.316,-21.664,3
-0.077,-0.040,1.110,-43.573,-25.596,-29.539,3
-0.064,-0.105,1.000,-21.678,-7.649,-25.291,3
-0.065,-0.154,1.048,-20.560,-8.404,-20.317,3
-0.069,-0.257,1.049,25.081,-3.585,-4.912,3
-0.087,-0.091,1.017,45.509,-6.894,4.310,3
-0.122,-0.002,1.070,32.204,-2.686,-5.603,3
-0.093,-0.103,0.963,38.734,1.091,-18.763,3
-0.082,-0.065,0.889,14.884,-8.584,-1.562,3
-0.067,-0.052,0.914,-14.694,-8.189,-0.111,3
-0.051,-0.083,1.017,-44.550,-8.117,2.376,3
-0.086,-0.008,1.020,-49.020,-1.031,-3.392,3
-0.095,-0.056,0.983,-35.471,-0.636,-4.532,3
-0.091,-0.015,0.920,-41.931,-2.578,-4.567,3
-0.086,0.022,1.032,-84.220,-15.634,-7.503,3
-0.093,-0.072,1.053,-80.204,-12.001,-1.907,3
-0.128,-0.018,1.011,-12.319,3.393,-0.629,3
-0.137,0.067,1.071,-9.770,0.407,0.580,3
-0.085,-0.030,1.011,-5.370,6.881,4.414,3
-0.112,0.004,0.969,-1.284,10.874,3.550,3
-0.099,0.053,0.968,3.989,-1.535,6.141,3
-0.095,0.012,0.998,11.217,-5.060,6.659,3
-0.099,-0.031,1.012,6.573,2.206,-0.595,3
-0.098,-0.008,1.084,14.639,8.356,1.029,3
-0.110,-0.082,1.026,32.728,7.816,3.585,3
-0.084,-0.037,0.932,47.884,1.199,9.146,3
-0.066,-0.031,0.975,39.573,12.672,0.787,3
-0.089,0.033,0.977,20.262,10.694,6.521,3
-0.108,-0.060,0.926,35.103,12.924,3.585,3
-0.073,-0.046,0.866,17.852,-11.497,1.858,3
-0.061,-0.101,1.071,13.173,-22.323,8.559,3
-0.086,-0.090,1.073,10.205,-6.462,6.452,3
-0.099,0.004,0.968,28.817,-2.326,8.040,3
-0.090,-0.014,0.958,-0.271,-4.664,-4.670,3
-0.108,-0.079,0.993,9.995,-1.859,-6.432,3
-0.109,-0.120,1.076,17.468,0.659,-11.820,3
-0.335,-0.392,0.597,-25.589,73.707,-49.262,3
-0.111,-0.050,0.730,-6.417,-12.720,-0.249,3
-0.088,-0.035,0.936,28.468,11.953,-14.445,3
0.004,-0.031,0.845,14.954,-1.715,-21.526,3
-0.082,-0.152,1.157,-27.928,-25.560,-15.931,3
-0.108,-0.012,0.987,21.309,-0.923,1.098,3
-0.115,-0.022,0.960,19.284,-15.454,-10.819,3
-0.157,-0.108,1.090,55.531,-3.045,1.996,3
-0.098,-0.049,1.072,86.051,17.419,5.830,3
-0.040,-0.103,0.991,73.410,33.640,-0.007,3
-0.126,-0.092,1.232,66.252,17.527,28.972,3
-0.049,0.042,0.894,29.446,53.673,-12.511,3
0.006,-0.249,0.754,-10.817,22.203,-21.699,3
-0.063,-0.158,1.163,-5.440,1.091,-15.965,3
-0.088,-0.388,1.130,37.931,21.304,-21.871,3
-0.064,-0.214,1.011,107.842,51.947,9.042,3
-0.090,0.291,0.723,73.969,33.137,8.386,3
0.016,-0.302,1.058,-6.068,-3.621,-39.003,3
0.026,-0.564,1.139,20.925,20.117,-15.758,3
-0.012,-0.266,1.020,75.750,42.812,-11.302,3
-0.061,-0.125,0.746,54.169,25.260,1.167,3
-0.042,0.063,0.849,10.030,1.199,-14.065,3
0.005,-0.256,1.001,-12.668,-6.139,-22.044,3
0.059,-0.518,1.106,26.373,4.615,-12.235,3
0.017,-0.448,0.880,59.268,19.577,6.659,3
-0.060,0.061,0.890,67.509,30.943,20.164,3
-0.019,0.061,0.638,-16.684,-1.715,-30.990,3
-0.242,1.011,-0.411,-568.878,4.112,183.229,4
-0.230,0.808,-0.818,-519.116,-32.286,161.503,4
-0.171,0.594,-0.462,-436.320,-74.115,109.589,4
-0.176,0.778,-0.542,-373.778,-39.731,79.193,4
-0.183,0.241,-0.771,-351.744,-18.367,28.626,4
-0.201,0.216,-0.739,-346.226,-23.618,38.919,4
-0.129,0.121,-0.606,-241.570,22.455,41.717,4
-0.237,-0.048,-1.023,-170.263,56.479,29.041,4
-0.286,0.052,-0.975,-167.085,60.471,27.590,4
-0.431,0.011,-1.162,-130.978,57.450,3.723,4
-0.439,-0.080,-1.106,-139.673,30.511,1.374,4
-0.390,-0.108,-0.973,-173.755,47.595,-4.187,4
-0.383,-0.085,-0.955,-181.647,40.078,1.271,4
-0.384,-0.265,-0.897,-149.067,42.272,8.800,4
-0.410,-0.331,-1.036,-133.771,17.419,19.853,4
-0.365,-0.095,-0.821,-105.102,-1.463,0.511,4
-0.341,-0.235,-0.763,-74.093,3.788,-23.702,4
-0.379,-0.202,-0.766,-66.061,13.643,-29.298,4
-0.414,-0.372,-0.810,-82.823,19.254,-37.691,4
-0.404,-0.354,-0.786,-97.804,22.850,-29.401,4
-0.481,-0.375,-0.964,-77.899,17.959,-17.174,4
-0.476,-0.516,-0.931,-54.887,4.472,-22.770,4
-0.435,-0.377,-0.831,-40.534,-0.384,-12.027,4
-0.472,-0.427,-0.959,-38.649,9.219,-20.628,4
-0.454,-0.491,-1.003,-31.176,-6.714,-12.580,4
-0.442,-0.473,-0.929,-40.290,-5.167,-14.376,4
-0.385,-0.390,-0.779,-16.579,-5.635,-10.300,4
-0.454,-0.489,-0.944,22.182,0.551,-3.980,4
-0.420,-0.300,-0.886,16.351,-10.706,1.547,4
-0.417,-0.397,-0.806,-2.157,-5.203,-5.741,4
-0.380,-0.215,-0.784,-8.967,-7.253,-3.600,4
-0.367,-0.444,-0.748,24.976,-2.182,-12.062,4
-0.377,-0.360,-0.788,28.258,3.285,-6.259,4
-0.386,-0.390,-0.748,45.579,6.414,-2.080,4
-0.515,-0.388,-0.994,67.998,1.271,6.832,4
-0.521,-0.217,-0.961,24.976,-18.475,-1.942,4
-0.407,-0.320,-0.788,9.087,-18.691,-7.226,4
-0.421,-0.389,-0.863,41.598,-7.469,-5.948,4
-0.393,-0.392,-0.821,78.683,-5.635,-8.953,4
-0.378,-0.354,-0.799,78.893,0.335,4.586,4
-0.451,-0.276,-0.990,89.858,-3.729,14.465,4
-0.418,-0.175,-0.977,46.347,-0.636,-3.082,4
-0.377,-0.229,-0.793,53.645,2.673,-5.534,4
-0.433,-0.162,-0.930,74.528,3.464,-8.504,4
-0.416,-0.163,-0.886,110.495,-0.456,-13.547,4
-0.422,-0.240,-0.961,121.251,-0.420,-8.366,4
-0.394,-0.185,-0.905,92.197,-7.289,2.618,4
-0.369,-0.132,-0.861,77.461,-3.909,3.827,4
-0.388,-0.061,-0.900,96.562,-1.463,10.424,4
-0.420,0.003,-0.952,113.010,-2.578,4.414,4
-0.398,0.084,-0.874,107.213,-3.981,3.861,4
-0.412,-0.053,-0.942,111.194,5.299,-5.707,4
-0.420,0.137,-0.872,102.813,-0.600,5.277,4
-0.395,0.085,-0.992,92.721,13.067,-8.608,4
-0.377,0.087,-0.861,69.220,-0.276,0.580,4
-0.394,0.178,-0.891,89.404,5.802,2.963,4
-0.418,0.202,-0.902,104.350,4.508,-0.215,4
-0.447,0.171,-0.930,127.222,10.118,-2.702,4
-0.418,0.297,-0.816,112.730,7.205,-2.149,4
-0.434,0.249,-0.888,123.905,17.491,-6.985,4
-0.455,0.280,-0.955,114.965,4.436,-1.734,4
-0.446,0.530,-0.736,174.260,17.347,-16.621,4
-0.443,0.307,-0.916,218.015,23.246,-19.281,4
-0.419,0.367,-0.831,218.993,18.283,-8.953,4
-0.427,0.542,-0.721,205.059,15.297,-4.981,4
-0.435,0.510,-0.831,153.203,21.771,-8.643,4
-0.429,0.615,-0.587,150.374,13.427,-9.437,4
-0.415,0.593,-0.612,167.904,26.807,-12.027,4
-0.426,0.611,-0.634,195.037,35.798,-11.337,4
-0.439,0.652,-0.603,175.447,26.519,-2.322,4
-0.474,0.770,-0.511,164.517,25.943,-1.355,4
-0.426,0.937,-0.421,202.336,13.751,-21.941,4
-0.450,0.845,-0.542,146.673,25.512,-10.059,4
-0.431,0.774,-0.446,110.042,9.759,-13.547,4
-0.425,0.787,-0.419,118.737,5.155,-10.197,4
-0.440,0.850,-0.367,119.365,8.536,-11.199,4
-0.422,0.876,-0.185,145.381,12.456,-12.649,4
-0.424,0.852,-0.281,168.044,21.052,-16.276,4
-0.434,0.891,-0.243,179.323,23.462,-14.998,4
-0.428,0.876,-0.158,150.619,12.060,-16.587,4
-0.425,0.906,-0.352,90.451,4.256,-9.506,4
-0.430,0.951,-0.080,99.321,-2.254,-7.641,4
-0.422,0.907,-0.030,107.667,-1.571,-12.891,4
-0.439,0.867,0.199,177.019,23.534,-7.503,4
-0.428,0.962,-0.053,177.298,25.152,-8.643,4
-0.394,0.877,0.170,175.133,20.009,-7.261,4
-0.433,0.948,-0.078,165.984,29.432,-5.154,4
-0.382,0.847,0.191,100.299,-2.794,-16.103,4
-0.375,0.850,0.170,86.750,15.225,-5.154,4
-0.382,0.881,0.215,68.172,2.098,-6.121,4
-0.413,0.915,0.284,95.480,10.622,-3.772,4
-0.411,0.835,0.310,73.585,1.414,-11.095,4
-0.407,0.894,0.346,98.797,23.929,-1.458,4
-0.391,0.883,0.320,101.521,14.398,-5.396,4
-0.408,0.836,0.470,141.994,30.223,-0.664,4
-0.369,0.967,0.030,105.676,15.513,-9.990,4
-0.364,0.731,0.573,77.251,1.558,-8.850,4
-0.374,0.855,0.397,67.718,13.751,-1.700,4
-0.373,0.853,0.440,63.702,13.283,-2.494,4
-0.379,0.727,0.577,85.842,18.139,0.062,4
-0.361,0.869,0.294,73.026,12.204,-7.261,4
-0.355,0.733,0.620,76.623,6.162,-6.363,4
-0.369,0.768,0.522,98.204,16.844,-2.149,4
-0.350,0.782,0.536,64.331,10.766,-4.809,4
-0.344,0.729,0.591,66.740,13.463,-2.667,4
-0.346,0.724,0.518,86.156,21.556,1.789,4
-0.352,0.628,0.671,37.128,-11.569,-11.440,4
-0.380,0.745,0.723,53.750,14.362,2.030,4
-0.358,0.680,0.733,67.893,17.491,0.649,4
-0.359,0.736,0.686,101.311,31.123,6.279,4
-0.360,0.549,0.883,183.060,42.704,1.132,4
-0.297,0.860,0.377,106.445,43.351,5.381,4
-0.289,0.541,0.649,66.147,8.752,-10.922,4
-0.299,0.529,0.732,81.267,10.190,-2.943,4
-0.309,0.519,0.808,95.969,13.823,1.616,4
-0.317,0.523,0.824,101.591,21.484,7.833,4
-0.310,0.586,0.748,92.477,25.548,6.866,4
-0.302,0.537,0.754,67.963,18.642,3.481,4
-0.303,0.509,0.778,50.293,10.046,1.858,4
-0.300,0.488,0.802,34.893,6.737,0.062,4
-0.299,0.395,0.894,19.982,0.695,-6.294,4
-0.293,0.458,0.841,39.084,12.744,5.692,4
-0.284,0.447,0.805,39.049,9.507,2.790,4
-0.301,0.512,0.799,34.160,5.766,3.067,4
-0.306,0.367,0.902,22.147,0.156,-0.318,4
-0.295,0.403,0.887,20.995,6.162,5.070,4
-0.277,0.349,0.891,48.233,10.226,10.700,4
-0.281,0.230,0.934,107.807,7.852,31.010,4
-0.269,0.428,0.787,146.254,14.003,32.391,4
-0.256,0.439,0.803,144.857,0.767,26.070,4
-0.297,0.238,0.938,137.035,-8.512,20.475,4
-0.316,0.248,0.918,113.953,5.479,24.136,4
-0.299,0.184,0.896,53.401,-1.499,9.146,4
-0.299,-0.074,0.935,44.636,-8.512,17.712,4
-0.320,0.245,0.947,81.512,-4.484,37.607,4
-0.300,-0.060,0.963,102.499,-12.864,29.455,4
-0.306,0.179,0.956,147.266,-4.844,59.506,4
-0.304,0.297,0.851,81.512,-12.972,23.273,4
-0.312,0.085,0.922,37.128,-14.591,11.080,4
-0.361,-0.217,1.101,72.782,-18.223,25.138,4
-0.356,0.074,0.976,69.534,4.759,25.207,4
-0.321,-0.011,0.911,61.014,4.184,14.569,4
-0.314,-0.094,0.878,39.747,-3.081,2.652,4
-0.316,-0.036,0.973,59.337,0.731,14.499,4
-0.310,0.019,0.949,47.814,5.191,6.279,4
-0.316,0.038,0.908,10.205,5.551,-1.596,4
-0.333,-0.152,0.968,-3.065,-2.182,-5.707,4
-0.343,-0.106,0.975,1.754,-0.564,0.752,4
-0.331,-0.133,1.004,12.963,-0.959,2.687,4
-0.320,-0.032,0.966,5.595,5.083,1.720,4
-0.325,-0.017,0.960,-7.081,7.349,-5.845,4
-0.314,-0.027,0.920,-40.325,6.809,-20.421,4
-0.337,-0.120,1.025,-36.519,11.701,-10.300,4
-0.297,0.030,0.874,-41.407,18.355,-11.026,4
-0.313,-0.254,0.958,-41.058,9.866,-14.134,4
-0.342,-0.106,1.090,-4.671,21.016,9.318,4
-0.303,-0.063,0.940,14.849,28.965,11.943,4
-0.274,0.012,0.914,36.639,29.360,18.230,4
-0.250,0.070,0.823,15.827,17.132,4.241,4
-0.254,0.037,0.859,8.179,10.046,-5.914,4
-0.266,0.119,0.922,-11.655,8.212,-14.238,4
-0.312,-0.329,1.225,-5.614,19.110,-3.151,4
-0.361,-0.023,1.174,8.459,56.119,14.776,4
-0.273,-0.290,0.541,-32.852,111.543,5.968,4
-0.181,0.199,0.995,-22.306,64.212,0.891,4
-0.263,0.222,0.942,-36.623,45.581,-16.725,4
-0.263,0.077,0.980,-79.540,58.673,-40.385,4
-0.155,-0.137,1.063,-106.254,65.111,-49.020,4
-0.138,-0.238,1.026,-81.636,68.276,-6.674,4
-0.105,-0.076,0.953,-12.005,36.158,16.537,4
-0.054,0.237,0.705,10.728,16.448,21.373,4
-0.064,0.111,0.886,11.846,-14.159,3.861,4
-0.103,0.099,0.930,32.938,-13.044,7.350,4
-0.116,0.149,0.924,17.957,-12.864,-3.358,4
-0.120,0.006,0.955,-10.817,-15.813,-6.397,4
-0.169,-0.005,1.131,-17.173,-5.383,9.042,4
-0.148,0.113,0.937,-12.144,2.529,4.725,4
-0.134,0.113,0.936,-3.729,-0.636,-3.807,4
-0.148,0.148,0.941,-21.189,-6.390,-6.846,4
-0.147,0.021,0.990,-19.373,-5.563,-15.689,4
-0.144,0.043,1.042,3.535,-0.096,-4.360,4
-0.131,0.137,0.904,6.573,-1.067,-3.841,4
-0.115,0.111,0.997,-2.367,-6.210,-11.026,4
-0.127,-0.099,1.058,38.001,2.170,-5.776,4
-0.143,0.060,0.992,40.899,11.269,1.754,4
-0.134,0.089,1.003,28.712,14.578,-1.424,4
-0.129,0.152,0.927,8.563,10.550,-3.496,4
-0.127,0.135,0.994,2.103,7.637,-12.442,4
-0.132,0.041,1.020,6.782,4.400,-12.269,4
-0.121,0.006,1.011,10.100,11.773,-21.112,4
-0.123,-0.069,1.100,31.785,13.499,-11.406,4
-0.146,0.067,0.960,30.598,17.204,-2.702,4
-0.139,0.121,1.007,22.252,13.751,-9.333,4
-0.136,-0.010,1.061,14.360,17.851,-15.136,4
-0.118,0.064,1.041,4.478,24.325,-19.005,4
-0.117,0.005,0.948,22.043,34.863,-16.449,4
-0.042,-0.064,0.934,35.487,8.248,-9.161,4
-0.059,0.005,0.882,12.265,10.262,-8.712,4
-0.062,-0.021,1.040,22.357,2.026,-5.534,4
-0.065,-0.034,1.020,36.325,16.053,-2.943,4
-0.105,0.519,1.104,-854.874,-15.166,32.322,5
-0.119,0.958,0.753,-897.617,-30.847,20.199,5
-0.036,0.895,0.630,-964.279,-14.159,32.080,5
0.005,1.065,0.270,-915.531,-6.498,13.601,5
-0.026,1.097,0.051,-891.261,10.694,31.113,5
-0.142,1.191,-0.196,-934.772,13.211,6.693,5
0.065,-0.011,-0.014,-734.120,16.664,-15.447,5
0.010,-0.115,-0.336,-512.831,72.520,22.789,5
-0.154,0.060,-0.793,-362.604,113.126,42.063,5
-0.246,0.137,-0.933,-301.703,117.801,55.361,5
-0.368,0.225,-1.056,-247.262,113.018,40.405,5
-0.412,0.156,-1.106,-196.558,79.857,16.641,5
-0.351,0.087,-0.932,-185.384,65.938,4.725,5
-0.309,-0.159,-0.640,-177.946,66.334,-2.736,5
-0.402,-0.220,-0.980,-146.552,68.276,7.004,5
-0.354,0.022,-0.918,-146.832,68.456,17.539,5
-0.400,-0.076,-1.009,-140.127,59.536,16.054,5
-0.358,-0.038,-0.826,-140.721,53.494,6.037,5
-0.356,-0.254,-0.861,-139.429,60.651,-1.078,5
-0.354,-0.247,-0.730,-165.514,64.212,17.815,5
-0.371,-0.291,-0.863,-125.810,60.327,21.235,5
-0.399,-0.301,-0.906,-82.334,49.429,13.981,5
-0.426,-0.259,-0.908,-56.877,36.805,7.488,5
-0.471,-0.324,-0.958,-33.411,28.317,5.554,5
-0.443,-0.300,-0.847,-65.328,31.015,3.101,5
-0.472,-0.477,-0.879,-79.017,32.597,1.996,5
-0.455,-0.373,-0.851,-64.839,34.144,4.034,5
-0.498,-0.430,-0.853,-23.528,28.677,-1.355,5
-0.482,-0.367,-0.839,-32.712,29.144,9.560,5
-0.551,-0.305,-0.928,-52.826,38.855,-5.016,5
-0.566,-0.379,-0.931,-63.372,31.123,-7.054,5
-0.543,-0.397,-0.900,-58.972,23.857,-9.092,5
-0.523,-0.453,-0.829,-8.129,9.435,-15.723,5
-0.506,-0.565,-0.783,5.036,6.953,-0.767,5
-0.492,-0.427,-0.829,50.712,2.421,-8.884,5
-0.552,-0.466,-0.961,105.711,-3.585,-15.620,5
-0.542,-0.320,-0.947,165.879,-28.761,-17.588,5
-0.542,-0.264,-0.970,239.875,-45.773,-30.679,5
-0.503,-0.391,-0.884,310.414,-55.916,-42.078,5
-0.409,-0.176,-0.654,328.502,-47.823,-29.747,5
-0.431,-0.189,-0.803,264.354,-20.957,-30.714,5
-0.417,-0.007,-0.769,218.643,-18.187,-17.070,5
-0.440,0.251,-0.804,194.688,-15.454,-20.352,5
-0.428,0.193,-0.812,198.075,-15.058,-34.271,5
-0.474,0.087,-0.876,183.618,-18.115,-28.952,5
-0.421,0.208,-0.769,162.247,-23.115,-17.347,5
-0.425,0.246,-0.818,126.454,-13.188,-9.161,5
-0.446,0.387,-0.821,121.670,-10.886,-11.095,5
-0.438,0.394,-0.785,131.517,-10.239,-18.383,5
-0.448,0.406,-0.893,129.667,-7.685,-18.210,5
-0.447,0.515,-0.832,150.165,-9.160,-18.970,5
-0.456,0.471,-0.900,156.276,-11.677,-23.737,5
-0.407,0.402,-0.783,109.413,-11.713,-14.722,5
-0.402,0.493,-0.806,114.127,-7.613,-12.856,5
-0.409,0.584,-0.733,119.260,-11.030,-12.131,5
-0.414,0.708,-0.750,141.574,-9.016,-21.630,5
-0.407,0.676,-0.724,151.632,-10.095,-28.434,5
-0.404,0.661,-0.703,148.209,-12.972,-30.058,5
-0.374,0.666,-0.558,149.886,-10.742,-28.503,5
-0.358,0.678,-0.629,115.978,-8.584,-22.113,5
-0.348,0.755,-0.492,110.111,-8.548,-21.664,5
-0.337,0.791,-0.473,151.038,-3.333,-29.436,5
-0.328,0.808,-0.433,192.593,1.235,-34.237,5
-0.345,0.844,-0.511,235.510,11.305,-38.451,5
-0.328,0.755,-0.470,184.422,-9.196,-26.431,5
-0.290,0.872,-0.217,140.282,-3.693,-14.134,5
-0.310,0.945,-0.255,137.768,1.594,-13.962,5
-0.297,0.929,-0.105,157.847,5.479,-19.108,5
-0.299,0.977,-0.170,202.510,15.837,-26.189,5
-0.290,0.889,-0.147,195.596,13.571,-22.286,5
-0.289,0.942,-0.056,152.120,16.700,-10.024,5
-0.284,0.971,0.097,131.448,16.484,-4.532,5
-0.332,1.046,-0.216,130.959,18.858,-8.470,5
-0.264,0.932,0.330,131.203,-3.657,-19.143,5
-0.283,1.002,0.113,218.993,29.216,-28.641,5
-0.251,0.966,0.246,201.463,19.937,-29.954,5
-0.250,1.032,0.316,227.024,34.899,-27.191,5
-0.266,0.854,0.128,245.078,44.898,-35.964,5
-0.222,0.954,0.227,120.867,8.967,-21.837,5
-0.213,0.865,0.399,108.959,9.795,-14.480,5
-0.221,0.898,0.362,74.213,-1.139,-18.141,5
-0.206,0.856,0.579,74.877,6.090,-16.794,5
-0.213,0.894,0.598,101.870,16.268,-19.281,5
-0.203,0.826,0.571,138.955,28.965,-18.625,5
-0.182,0.795,0.421,138.746,29.037,-17.830,5
-0.168,0.796,0.414,105.851,15.945,-14.411,5
-0.165,0.776,0.617,60.874,-2.398,-18.314,5
-0.173,0.794,0.655,75.715,8.644,-13.513,5
-0.162,0.741,0.671,81.372,8.788,-15.551,5
-0.149,0.666,0.680,88.740,16.520,-13.236,5
-0.142,0.695,0.650,101.067,22.059,-7.744,5
-0.149,0.698,0.683,80.464,9.435,-6.432,5
-0.141,0.655,0.785,83.572,14.974,-5.879,5
-0.158,0.701,0.742,107.248,20.189,-8.815,5
-0.137,0.660,0.684,122.159,14.326,-7.399,5
-0.118,0.542,0.733,125.441,14.794,2.479,5
-0.125,0.524,0.843,106.480,8.284,1.167,5
-0.138,0.519,0.885,88.077,10.262,2.030,5
-0.163,0.665,0.859,74.248,11.521,-1.631,5
-0.151,0.538,0.942,112.416,18.067,-8.504,5
-0.128,0.521,0.784,127.327,21.052,-4.290,5
-0.081,0.390,0.668,69.569,4.328,-1.424,5
-0.102,0.381,0.998,53.750,-4.304,2.928,5
-0.104,0.334,1.052,73.480,14.039,0.200,5
-0.123,0.407,0.956,124.987,30.080,1.098,5
-0.101,0.467,0.720,105.886,29.252,3.343,5
-0.085,0.350,0.790,74.144,14.974,-1.182,5
-0.074,0.273,0.858,46.941,-0.276,-3.496,5
-0.084,0.184,1.084,48.128,3.321,1.823,5
-0.112,0.285,1.001,83.502,18.678,15.052,5
-0.104,0.348,0.883,73.969,14.003,7.315,5
-0.090,0.300,0.869,49.071,-2.038,0.649,5
-0.076,0.209,0.946,27.455,-9.915,0.131,5
-0.086,0.043,1.206,100.194,-6.210,17.643,5
-0.099,0.174,1.035,141.889,12.888,22.616,5
-0.116,0.217,0.997,146.079,22.203,25.863,5
-0.089,0.180,0.995,108.365,9.579,10.009,5
-0.046,0.070,0.927,87.169,7.313,7.281,5
-0.026,-0.070,0.953,77.007,-1.139,9.837,5
-0.023,0.008,0.910,37.547,-0.672,8.179,5
-0.040,-0.083,1.014,51.969,0.839,8.662,5
-0.062,0.091,0.886,79.696,8.392,19.646,5
-0.074,0.021,0.964,75.017,-0.024,11.564,5
-0.082,-0.000,0.950,44.706,-10.167,7.902,5
-0.103,-0.118,1.096,15.163,-9.879,0.580,5
-0.111,-0.110,1.134,21.484,0.443,6.141,5
-0.105,-0.131,1.071,24.243,5.694,3.654,5
-0.098,-0.109,1.037,11.182,5.191,3.792,5
-0.073,-0.161,0.997,25.325,8.104,11.805,5
-0.079,-0.084,0.994,38.211,5.622,13.325,5
-0.064,-0.117,0.952,66.915,11.917,10.113,5
-0.062,-0.085,0.930,45.858,7.097,4.932,5
-0.052,-0.214,1.006,18.062,1.486,0.303,5
-0.056,-0.141,1.001,2.452,3.213,2.963,5
-0.042,-0.150,0.969,-7.290,3.321,1.374,5
-0.050,-0.123,1.018,-0.656,0.407,5.174,5
-0.067,-0.065,0.968,-0.516,0.839,1.720,5
-0.053,-0.108,0.961,13.138,0.443,-1.458,5
-0.061,-0.133,0.998,18.690,-0.204,0.649,5
-0.075,-0.126,0.989,7.551,4.004,-1.389,5
-0.058,-0.160,0.960,-20.316,-1.175,-5.189,5
-0.061,-0.161,1.017,-23.214,0.695,-3.876,5
-0.059,-0.186,1.031,-13.157,4.148,-1.631,5
-0.074,-0.087,0.974,32.484,8.823,1.132,5
-0.033,-0.203,0.938,55.007,6.378,2.307,5
-0.029,-0.210,0.965,51.934,9.183,4.310,5
-0.030,-0.149,0.946,35.487,7.709,1.927,5
-0.042,-0.169,0.977,12.125,4.436,-0.940,5
-0.046,-0.192,1.055,-20.909,-1.211,-5.430,5
-0.045,-0.233,0.998,6.049,5.982,-0.353,5
-0.038,-0.175,0.948,28.119,10.226,5.726,5
-0.031,-0.207,0.895,25.674,6.486,4.414,5
-0.036,-0.157,0.886,-2.192,-2.362,-1.942,5
-0.041,-0.250,0.992,-8.687,-2.038,-4.843,5
-0.053,-0.189,0.988,-11.690,-0.528,-5.672,5
-0.114,-0.231,0.966,-8.862,0.192,-5.396,5
-0.060,-0.153,0.957,-36.589,-8.656,-15.447,5
-0.048,-0.274,1.035,-40.290,-5.815,-11.129,5
-0.044,-0.248,1.013,-28.452,-1.823,-5.741,5
-0.044,-0.185,0.996,-10.992,2.637,-1.113,5
-0.042,-0.167,0.991,0.706,3.069,-2.425,5
-0.035,-0.099,0.923,-14.833,-2.002,-5.568,5
-0.033,-0.236,1.026,-27.509,-3.657,-7.295,5
-0.054,-0.137,1.038,-9.071,3.393,0.096,5
-0.023,-0.167,0.922,-13.646,4.867,-1.389,5
-0.038,-0.125,0.978,-11.516,3.249,0.338,5
-0.056,0.091,0.869,-27.230,-4.088,-4.774,5
-0.032,-0.261,1.029,-43.538,-10.670,-13.236,5
-0.048,-0.118,1.010,-18.325,-0.564,-4.325,5
-0.045,-0.120,0.956,-3.065,3.572,0.580,5
-0.059,-0.041,0.923,-12.668,-0.744,-3.772,5
-0.048,-0.182,1.028,-5.859,-2.218,-2.045,5
-0.050,-0.111,1.025,3.605,2.529,1.478,5
-0.032,-0.120,0.917,-5.544,0.587,0.303,5
-0.056,-0.076,1.046,-1.319,-4.160,3.343,5
-0.050,-0.121,0.978,-11.516,-2.002,1.581,5
-0.050,-0.106,0.987,-16.195,-1.643,1.409,5
-0.061,-0.076,1.036,-5.719,-0.096,2.030,5
-0.056,-0.087,1.002,-6.767,-0.492,-0.802,5
-0.055,-0.077,0.989,-0.970,1.918,3.136,5
-0.054,-0.066,1.005,-10.852,0.623,-1.458,5
-0.063,-0.032,0.968,-14.449,0.443,0.752,5
-0.056,-0.109,0.996,-11.516,-2.650,-2.045,5
-0.059,-0.096,1.021,5.525,1.055,4.103,5
-0.063,-0.029,0.988,13.103,5.407,1.547,5
-0.052,-0.054,0.963,8.249,4.184,0.338,5
-0.089,0.006,0.979,3.500,1.990,1.236,5
-0.055,-0.073,0.940,-21.957,-5.455,-12.097,5
-0.053,-0.134,1.087,-27.509,-5.455,-7.503,5
-0.056,-0.086,1.074,-0.830,2.314,1.063,5
-0.045,-0.064,0.988,5.386,9.938,-1.009,5
-0.047,-0.028,0.955,-6.452,6.414,-3.565,5
-0.049,-0.047,0.989,-13.367,2.242,-4.774,5
-0.055,-0.048,1.009,-19.547,0.120,-3.738,5
-0.043,-0.060,0.986,-4.392,1.630,-2.356,5
-0.039,-0.089,1.002,1.230,5.479,-2.045,5
-0.044,-0.038,0.961,15.059,9.003,2.756,5
-0.047,-0.007,0.913,-1.179,0.299,-3.323,5
-0.038,-0.123,0.982,-1.738,-5.275,-7.537,5
-0.039,-0.123,1.039,3.954,0.299,-1.631,5
0.092,0.421,1.110,-581.065,-61.599,43.548,6
0.056,0.678,0.754,-737.437,-61.167,68.970,6
0.041,0.859,0.723,-868.004,-56.743,84.893,6
0.014,1.037,0.559,-992.425,-30.164,104.477,6
-0.078,1.092,0.025,-1146.668,8.859,119.847,6
-0.105,0.962,-0.239,-1146.668,36.338,109.831,6
-0.122,0.878,-0.617,-1078.364,61.011,87.759,6
-0.147,0.380,-0.757,-684.149,9.831,54.877,6
0.098,0.155,-0.340,-386.524,22.023,54.428,6
0.008,0.302,-0.558,-164.362,51.659,33.289,6
-0.144,0.396,-0.850,-86.001,76.296,19.370,6
-0.361,0.031,-1.172,-95.988,76.009,10.355,6
-0.282,0.332,-1.032,-117.289,57.486,28.281,6
-0.250,0.241,-0.892,-110.235,52.271,8.697,6
-0.267,0.085,-1.003,-115.578,50.185,9.629,6
-0.254,0.107,-0.887,-120.886,59.428,9.733,6
-0.356,0.106,-1.037,-99.131,68.276,1.892,6
-0.326,0.147,-0.831,-89.632,42.308,-2.114,6
-0.290,0.009,-0.670,-107.546,56.838,-13.236,6
-0.288,-0.111,-0.673,-143.165,70.542,7.177,6
-0.334,-0.067,-0.942,-122.772,78.922,17.712,6
-0.406,-0.213,-1.057,-66.166,64.571,16.399,6
-0.375,-0.082,-0.973,-35.925,37.273,33.013,6
-0.361,-0.119,-0.991,-23.598,44.322,25.345,6
-0.429,0.016,-1.034,12.090,33.856,8.869,6
-0.451,0.082,-0.923,1.195,28.749,-1.804,6
-0.478,-0.007,-1.000,-12.633,23.929,-7.054,6
-0.483,-0.202,-0.990,-6.941,0.443,-2.218,6
-0.440,-0.152,-0.906,-4.183,1.666,-0.975,6
-0.423,-0.099,-0.881,-15.252,9.651,5.864,6
-0.410,-0.003,-0.904,-14.973,9.291,-2.184,6
-0.462,-0.184,-1.001,-8.513,6.054,3.861,6
-0.450,-0.074,-0.977,-8.303,5.335,2.825,6
-0.446,-0.254,-0.933,-0.411,-2.650,3.308,6
-0.418,-0.048,-0.892,-5.998,5.407,15.398,6
-0.505,-0.047,-1.028,6.922,7.061,7.177,6
-0.469,-0.097,-0.960,9.890,3.860,10.562,6
-0.465,0.024,-0.957,19.947,1.486,3.619,6
-0.448,-0.072,-0.806,14.639,-3.909,7.488,6
-0.437,0.012,-0.872,9.052,2.709,3.757,6
-0.472,0.005,-1.014,44.496,-5.995,-5.016,6
-0.397,0.088,-0.850,32.204,-13.440,1.098,6
-0.400,0.011,-0.928,52.737,-7.685,-7.226,6
-0.512,0.016,-1.094,96.318,-23.834,-13.409,6
-0.463,-0.086,-1.006,104.943,-32.358,-12.511,6
-0.349,-0.052,-0.571,87.274,-17.072,-0.595,6
-0.371,0.114,-0.815,73.864,-6.750,2.376,6
-0.436,0.037,-0.994,120.483,-13.368,-2.529,6
-0.474,0.283,-1.084,170.034,-35.307,-6.674,6
-0.263,0.116,-0.559,157.149,-47.644,-6.363,6
-0.353,0.140,-0.918,91.220,1.558,-7.226,6
-0.388,0.242,-0.996,91.115,1.163,3.654,6
-0.368,0.307,-0.854,90.451,-6.534,-0.249,6
-0.367,0.273,-0.849,93.629,-10.922,-7.157,6
-0.400,0.438,-0.924,146.568,-23.294,-6.985,6
-0.407,0.374,-0.953,193.431,-28.438,-15.723,6
-0.291,0.338,-0.662,167.346,-35.559,-10.853,6
-0.349,0.514,-0.908,129.911,2.961,-12.131,6
-0.367,0.546,-0.838,115.768,-2.722,-11.129,6
-0.347,0.548,-0.759,150.409,-4.700,-26.707,6
-0.339,0.503,-0.832,165.565,-14.483,-24.600,6
-0.326,0.496,-0.747,165.600,-15.346,-20.559,6
-0.303,0.656,-0.608,146.393,-6.894,-14.376,6
-0.331,0.634,-0.682,122.229,7.349,-15.931,6
-0.324,0.748,-0.616,108.261,8.104,-11.199,6
-0.334,0.767,-0.645,116.222,6.414,-18.383,6
-0.306,0.786,-0.578,129.876,0.371,-24.358,6
-0.304,0.758,-0.570,161.165,5.299,-30.230,6
-0.292,0.772,-0.514,153.517,3.536,-20.939,6
-0.291,0.845,-0.416,137.803,5.838,-11.544,6
-0.314,0.863,-0.483,111.753,19.577,-10.542,6
-0.293,0.927,-0.391,119.889,2.853,-13.685,6
-0.284,0.914,-0.358,154.320,13.175,-20.075,6
-0.282,0.839,-0.361,161.863,14.039,-19.419,6
-0.266,0.843,-0.256,128.444,3.177,-6.674,6
-0.296,0.928,-0.244,76.763,7.888,1.271,6
-0.277,0.929,-0.204,67.194,9.363,-5.568,6
-0.280,0.931,-0.209,83.083,10.622,-4.325,6
-0.285,0.975,-0.188,103.232,15.118,-5.879,6
-0.284,0.932,-0.199,122.927,9.974,-7.330,6
-0.280,0.921,-0.150,86.750,3.608,0.787,6
-0.280,0.989,-0.049,102.010,4.615,-4.429,6
-0.278,0.964,0.043,100.404,8.967,-4.567,6
-0.280,0.959,-0.100,82.734,10.730,0.476,6
-0.272,0.980,-0.023,76.553,5.083,1.443,6
-0.279,0.975,0.089,103.581,12.384,-1.251,6
-0.273,0.928,0.044,114.407,15.261,-4.670,6
-0.274,0.930,0.080,98.134,9.831,-1.734,6
-0.275,0.947,0.154,103.267,5.515,-0.733,6
-0.275,0.960,0.126,89.613,7.637,-3.185,6
-0.263,0.971,0.196,73.969,5.191,-3.289,6
-0.269,0.943,0.175,82.210,4.364,-0.733,6
-0.270,0.946,0.211,61.048,-2.326,-1.285,6
-0.259,0.912,0.327,67.020,15.981,2.376,6
-0.269,0.955,0.295,63.248,2.817,0.027,6
-0.275,0.937,0.250,91.185,17.276,0.200,6
-0.281,0.926,0.265,76.274,9.399,-0.836,6
-0.276,0.902,0.229,68.836,5.191,1.029,6
-0.266,0.876,0.391,86.540,4.220,8.455,6
-0.267,0.874,0.370,90.277,3.572,-0.318,6
-0.278,0.870,0.486,101.067,6.594,1.996,6
-0.278,0.891,0.441,95.270,8.356,-1.838,6
-0.246,0.784,0.445,133.194,21.016,2.203,6
-0.246,0.800,0.438,151.666,14.614,8.455,6
-0.257,0.774,0.478,145.171,9.219,12.876,6
-0.264,0.797,0.639,134.241,8.895,9.664,6
-0.277,0.786,0.675,116.676,13.499,6.762,6
-0.274,0.684,0.730,167.660,28.137,17.401,6
-0.266,0.654,0.748,187.285,23.102,15.467,6
-0.255,0.672,0.629,181.907,23.138,16.365,6
-0.262,0.605,0.756,168.428,17.383,12.358,6
-0.268,0.576,0.851,182.082,19.254,10.355,6
-0.260,0.530,0.813,250.840,38.028,26.243,6
-0.255,0.450,0.848,226.954,30.044,21.615,6
-0.229,0.433,0.826,158.266,18.966,16.537,6
-0.237,0.363,0.910,141.889,23.354,17.815,6
-0.221,0.279,0.891,146.987,18.570,15.467,6
-0.226,0.351,0.847,109.518,16.700,11.045,6
-0.228,0.232,0.960,75.785,9.543,0.891,6
-0.239,0.254,0.968,61.118,12.564,1.340,6
-0.230,0.155,0.978,40.899,7.816,-2.253,6
-0.231,0.254,0.987,68.207,16.844,8.006,6
-0.216,0.096,0.994,33.741,13.607,-0.249,6
-0.186,0.171,0.877,27.141,15.010,0.234,6
-0.189,0.266,0.816,4.059,6.126,-4.636,6
-0.187,0.122,0.919,19.982,-0.348,-2.322,6
-0.221,0.151,0.985,21.030,-4.772,-2.667,6
-0.207,0.094,0.984,16.211,-3.513,0.165,6
-0.217,0.099,1.030,2.173,1.918,0.787,6
-0.204,0.086,0.980,-1.389,8.895,-0.595,6
-0.197,0.220,0.858,8.947,9.759,2.203,6
-0.186,0.270,0.813,-31.071,-6.570,-12.891,6
-0.228,0.161,1.047,-21.049,-10.095,-7.054,6
-0.230,0.108,1.049,3.500,-0.024,-3.634,6
-0.207,0.059,0.998,27.211,11.377,6.832,6
-0.216,0.247,0.860,53.331,18.858,17.055,6
-0.202,0.082,0.909,49.560,2.853,7.730,6
-0.205,0.120,0.967,29.236,-6.103,4.759,6
-0.219,0.119,1.013,21.554,-0.492,6.141,6
-0.186,-0.001,1.022,33.776,10.874,11.011,6
-0.200,0.056,0.971,46.382,17.815,18.748,6
-0.211,0.186,0.797,51.236,17.743,11.633,6
-0.191,0.023,0.916,34.230,-0.995,0.614,6
-0.209,-0.015,1.109,38.106,-5.347,3.412,6
-0.182,-0.067,1.098,64.820,8.500,12.842,6
-0.185,-0.101,1.112,90.556,29.684,26.830,6
-0.191,0.119,0.869,99.950,45.006,35.396,6
-0.172,0.214,0.670,70.931,27.670,11.978,6
-0.155,-0.074,0.830,11.147,-6.642,-13.755,6
-0.168,-0.217,1.074,20.017,-16.749,-7.468,6
-0.170,-0.314,1.218,34.823,-3.189,1.685,6
-0.175,-0.296,1.219,77.810,30.439,31.010,6
-0.192,0.187,0.806,85.458,47.559,35.880,6
-0.140,0.118,0.631,23.544,4.687,-4.947,6
-0.154,-0.341,1.055,-30.862,-32.034,-24.117,6
-0.184,-0.381,1.334,1.370,-7.002,1.754,6
-0.154,-0.155,1.027,27.106,20.261,14.258,6
-0.154,-0.087,0.935,28.642,18.031,11.356,6
-0.148,-0.007,0.815,11.147,7.996,1.029,6
-0.142,-0.120,0.913,-14.414,-4.124,-9.817,6
-0.137,-0.273,1.035,-16.125,-3.981,-5.638,6
-0.180,-0.112,1.031,-3.729,2.745,1.720,6
-0.152,-0.128,0.999,1.929,4.615,-2.218,6
-0.141,-0.155,0.965,11.462,8.859,3.481,6
-0.152,-0.080,0.895,7.446,5.479,2.549,6
-0.152,-0.124,1.010,-16.440,-5.131,-8.573,6
-0.140,-0.238,1.049,-9.071,1.522,-1.147,6
-0.162,-0.087,1.019,-3.170,5.910,1.271,6
-0.131,-0.169,1.003,1.719,8.392,3.239,6
-0.141,-0.139,0.947,7.795,12.060,7.730,6
-0.143,-0.081,0.908,14.605,8.752,3.688,6
-0.130,-0.187,0.981,2.208,-1.211,-2.184,6
-0.138,-0.232,1.064,9.751,2.817,1.961,6
-0.133,-0.243,1.039,21.868,14.506,8.213,6
-0.136,-0.161,0.967,26.128,19.074,12.634,6
-0.115,-0.167,0.934,7.097,14.902,8.075,6
-0.132,-0.048,0.912,-3.240,11.773,8.144,6
-0.103,-0.198,0.900,4.582,3.536,4.241,6
-0.102,-0.217,0.976,8.040,1.055,5.139,6
-0.123,-0.191,1.040,12.160,8.752,8.386,6
-0.119,-0.154,0.987,7.900,13.535,7.591,6
-0.107,-0.156,0.941,-1.668,10.370,5.554,6
-0.104,-0.161,0.909,-2.716,5.802,0.407,6
-0.079,-0.178,0.934,-15.601,0.156,-3.116,6
-0.121,-0.187,1.020,3.989,5.479,0.787,6
-0.095,-0.182,1.005,45.055,11.233,12.876,6
-0.104,-0.126,0.956,47.395,9.759,10.389,6
-0.099,-0.172,0.934,32.903,7.061,3.757,6
-0.098,-0.171,0.924,10.973,0.299,-2.563,6
-0.086,-0.244,0.987,-10.713,-4.412,-8.850,6
-0.091,-0.234,0.994,-8.862,2.565,-7.572,6
-0.116,-0.151,0.971,11.951,5.982,-6.674,6
-0.084,-0.183,0.935,23.474,3.285,-9.126,6
-0.069,-0.291,0.898,12.963,-9.052,-10.784,6
-0.087,-0.215,0.968,-1.529,-2.290,-10.888,6
-0.082,-0.264,0.970,-8.094,-3.585,-10.024,6
-0.090,-0.237,0.985,-9.421,-2.038,-6.225,6
-0.087,-0.264,0.968,-8.722,0.479,-6.156,6
-0.080,-0.279,0.961,-8.163,1.163,-2.771,6
-0.103,-0.051,0.865,-19.652,-6.858,-1.631,6
-0.190,0.514,1.436,-703.530,241.490,-14.342,7
0.055,0.263,1.583,-993.508,448.907,-77.481,7
0.130,0.458,1.124,-1146.668,604.929,-131.468,7
0.302,-0.546,-0.475,-1010.549,559.827,-122.246,7
0.339,-0.222,-0.997,-472.009,253.179,219.393,7
0.596,1.237,-0.164,-430.419,65.506,174.974,7
0.254,0.597,-0.484,-446.133,114.996,126.272,7
0.190,0.418,-0.627,-394.102,-46.025,201.086,7
0.262,0.677,-0.439,-402.657,91.510,263.293,7
0.192,1.143,-0.994,-489.364,97.984,290.995,7
0.106,0.887,-0.467,-603.344,122.837,173.074,7
0.011,-0.155,-0.529,-472.812,168.082,182.504,7
0.029,0.049,-0.678,-294.963,187.468,200.741,7
0.018,0.445,-0.787,-125.810,135.245,119.675,7
-0.169,0.016,-0.915,-55.480,117.945,46.726,7
-0.250,0.336,-1.202,-26.112,114.960,49.247,7
-0.338,0.485,-1.388,-40.115,94.855,35.914,7
-0.371,0.217,-1.246,-55.969,76.836,19.646,7
-0.457,-0.026,-1.319,-56.563,58.817,24.758,7
-0.372,0.079,-1.132,-29.884,27.562,29.628,7
-0.370,0.088,-1.130,-5.125,0.299,12.565,7
-0.290,0.019,-0.891,-26.881,5.371,23.653,7
-0.221,0.077,-0.784,-27.579,19.398,14.465,7
-0.265,0.062,-0.920,-30.582,14.111,13.049,7
-0.250,0.105,-0.949,-24.401,15.801,8.731,7
-0.266,0.052,-1.008,-31.350,17.491,6.901,7
-0.217,0.160,-0.969,-10.363,7.960,0.476,7
-0.251,0.073,-0.940,25.849,-2.146,-14.998,7
-0.220,0.025,-0.794,3.500,15.441,3.170,7
-0.247,0.234,-1.053,-8.024,26.087,1.892,7
-0.314,0.054,-1.076,4.408,23.929,2.169,7
-0.275,0.159,-0.976,20.751,-3.153,-1.631,7
-0.237,-0.037,-0.846,34.474,-4.808,-2.218,7
-0.304,0.061,-0.981,21.449,8.788,4.621,7
-0.289,0.259,-1.032,21.658,-7.397,-3.634,7
-0.291,0.061,-0.946,45.509,-25.273,-17.381,7
-0.280,0.087,-0.928,47.360,-6.894,-12.684,7
-0.310,0.083,-0.985,37.512,1.882,-0.767,7
-0.313,0.158,-0.981,41.493,-1.031,0.234,7
-0.296,0.198,-0.971,47.045,-7.038,0.269,7
-0.263,0.147,-0.866,79.137,-7.469,-4.567,7
-0.271,0.249,-0.954,107.423,-10.850,-2.494,7
-0.273,0.288,-0.946,124.289,-21.820,-14.583,7
-0.242,0.267,-0.946,120.797,-17.540,-13.064,7
-0.256,0.244,-0.834,90.835,-3.153,10.251,7
-0.252,0.364,-0.916,83.397,3.249,12.842,7
-0.261,0.366,-0.957,89.718,-6.282,5.795,7
-0.242,0.388,-0.784,97.470,-13.440,4.310,7
-0.227,0.374,-0.848,90.940,1.450,7.211,7
-0.251,0.462,-0.810,85.737,6.809,17.194,7
-0.250,0.563,-0.838,75.645,3.896,7.004,7
-0.259,0.415,-0.853,90.312,-1.067,5.035,7
-0.259,0.414,-0.861,86.994,-6.678,23.376,7
-0.264,0.584,-0.835,59.861,-13.260,14.430,7
-0.256,0.523,-0.822,58.569,-17.612,5.692,7
-0.232,0.559,-0.698,62.725,-11.677,2.756,7
-0.282,0.548,-0.783,56.020,8.608,10.769,7
-0.291,0.607,-0.882,44.252,-2.038,14.085,7
-0.261,0.653,-0.727,36.325,-12.612,3.550,7
-0.223,0.593,-0.734,56.823,-10.023,0.476,7
-0.242,0.533,-0.727,75.261,-8.476,0.752,7
-0.258,0.619,-0.691,69.883,-6.570,12.945,7
-0.248,0.752,-0.737,61.502,1.810,13.325,7
-0.241,0.760,-0.705,73.480,-3.189,-3.151,7
-0.266,0.660,-0.735,63.772,2.817,-1.493,7
-0.238,0.583,-0.687,39.992,-3.189,6.348,7
-0.228,0.722,-0.649,32.868,-6.498,7.315,7
-0.247,0.688,-0.677,59.931,-10.886,1.236,7
-0.247,0.739,-0.651,62.969,-9.088,2.894,7
-0.248,0.714,-0.630,69.080,-4.052,-0.802,7
-0.251,0.712,-0.591,51.830,-2.002,8.628,7
-0.238,0.690,-0.543,39.642,-2.398,15.259,7
-0.284,0.730,-0.662,24.522,-2.074,18.921,7
-0.309,0.880,-0.619,26.896,-6.750,13.878,7
-0.291,0.855,-0.498,38.909,-0.204,0.165,7
-0.287,0.764,-0.580,86.680,-3.261,-12.856,7
-0.278,0.719,-0.620,97.365,1.558,12.911,7
-0.251,0.736,-0.540,94.956,-2.542,20.682,7
-0.266,0.811,-0.538,84.410,2.206,17.746,7
-0.265,0.800,-0.543,55.915,-1.031,15.605,7
-0.261,0.815,-0.437,46.452,7.816,10.700,7
-0.295,0.877,-0.496,70.407,10.190,4.863,7
-0.341,1.001,-0.400,101.416,16.592,-5.119,7
-0.311,0.992,-0.409,135.009,21.124,-25.947,7
-0.292,0.850,-0.356,149.152,24.793,-37.829,7
-0.277,0.842,-0.358,135.638,7.565,-35.757,7
-0.250,1.002,-0.265,107.807,17.060,-28.883,7
-0.262,0.947,-0.288,125.022,16.304,-42.078,7
-0.225,0.941,-0.293,170.733,29.037,-55.997,7
-0.203,0.876,-0.231,203.313,30.151,-65.565,7
-0.196,0.802,-0.195,222.834,31.590,-64.391,7
-0.164,0.586,-0.213,196.818,9.327,-37.276,7
-0.123,0.857,0.158,156.346,-7.577,-3.116,7
-0.169,1.195,0.286,144.019,8.284,-0.836,7
-0.179,1.106,0.243,134.102,13.427,-11.095,7
-0.159,1.016,0.120,124.533,17.923,-17.243,7
-0.154,0.875,0.102,117.899,6.018,-12.097,7
-0.157,0.863,0.296,116.118,5.730,-0.180,7
-0.173,1.000,0.382,81.512,11.197,7.971,7
-0.152,0.957,0.387,52.598,21.304,2.687,7
-0.134,0.986,0.462,60.734,26.483,-2.184,7
-0.138,0.936,0.483,57.626,33.496,-9.782,7
-0.119,0.838,0.316,56.160,29.108,-20.179,7
-0.109,1.016,0.357,40.480,24.505,-28.503,7
-0.112,1.025,0.391,25.709,22.599,-31.370,7
-0.093,0.977,0.474,21.519,17.923,-45.463,7
-0.043,0.990,0.424,24.277,21.196,-47.190,7
-0.077,0.914,0.365,15.722,26.303,-53.510,7
-0.054,0.931,0.407,29.027,5.515,-53.925,7
-0.107,1.036,0.480,47.011,7.780,-60.522,7
-0.068,1.010,0.435,70.931,6.773,-68.501,7
-0.043,0.928,0.469,82.175,6.737,-84.113,7
-0.010,0.843,0.447,77.531,9.435,-80.555,7
0.042,0.737,0.507,82.699,8.212,-61.489,7
0.080,0.864,0.598,89.927,18.391,-64.045,7
0.084,0.841,0.583,104.594,23.462,-72.957,7
0.107,0.844,0.560,116.886,25.332,-67.983,7
0.132,0.836,0.574,123.695,23.570,-75.927,7
0.143,0.822,0.473,122.997,15.118,-90.158,7
0.200,0.568,0.590,104.699,2.242,-86.289,7
0.227,0.553,0.668,111.054,6.270,-45.083,7
0.237,0.793,0.714,119.680,12.600,-34.582,7
0.223,0.718,0.648,114.441,8.500,-41.525,7
0.187,0.799,0.627,109.657,-5.347,-47.086,7
0.192,0.677,0.684,97.575,-34.804,-66.083,7
0.190,0.563,0.723,86.994,-53.542,-66.014,7
0.207,0.474,0.835,70.302,-49.586,-45.946,7
0.211,0.549,0.872,72.188,-41.062,-35.169,7
0.214,0.575,0.887,60.944,-34.516,-39.522,7
0.193,0.465,0.785,53.017,-34.264,-44.357,7
0.203,0.377,0.716,19.144,-36.062,-44.564,7
0.228,0.279,0.961,-8.478,-40.594,-21.941,7
0.231,0.359,0.790,-5.859,-38.328,-1.700,7
0.215,0.493,0.722,6.294,-55.484,4.068,7
0.129,0.617,0.521,16.385,-131.445,-18.141,7
0.002,0.503,0.917,94.537,-205.752,-65.565,7
0.064,0.358,1.307,200.345,-156.622,-68.121,7
0.010,0.340,1.051,105.223,-92.314,-47.673,7
0.038,0.459,0.986,1.021,-59.980,-43.010,7
-0.002,0.354,0.988,-11.900,-32.466,-48.951,7
0.004,0.171,0.833,83.083,-49.334,-33.097,7
0.011,0.196,0.948,60.909,-34.228,-16.449,7
0.023,0.364,0.909,-0.760,-35.235,-21.181,7
0.010,0.444,0.929,16.525,-43.831,-42.837,7
0.071,0.398,1.205,45.055,-37.321,-46.741,7
0.024,0.103,1.235,-16.754,18.570,-8.124,7
0.040,0.278,1.034,-81.740,55.400,13.187,7
0.040,0.302,0.405,11.008,14.003,-45.117,7
-0.014,0.133,1.079,47.220,-15.274,-18.141,7
0.019,0.373,0.866,29.376,-16.856,-9.506,7
-0.015,0.157,1.111,-29.325,-4.520,-8.677,7
-0.020,0.124,0.896,-30.198,12.708,28.074,7
-0.019,0.421,0.947,-30.093,5.874,64.341,7
0.056,0.506,0.991,4.932,18.355,21.269,7
0.061,0.084,1.099,28.014,19.793,-27.640,7
0.011,0.098,0.719,35.347,55.652,-11.924,7
0.029,0.338,0.743,16.665,-7.577,9.837,7
0.049,0.357,1.024,18.097,-0.168,-3.945,7
0.057,0.291,0.937,22.636,0.947,-13.478,7
0.080,0.217,1.183,10.414,6.018,-11.786,7
0.040,0.232,1.032,5.525,31.914,-9.575,7
0.043,0.298,0.898,16.839,12.168,10.700,7
0.054,0.310,1.115,17.782,13.967,13.083,7
0.034,0.274,0.934,10.030,29.432,21.373,7
0.034,0.345,0.930,0.846,17.419,23.376,7
0.005,0.259,0.987,77.426,15.118,6.210,7
0.078,0.096,1.011,78.474,19.398,17.263,7
0.054,0.260,0.917,92.546,18.930,24.516,7
-0.002,0.140,0.965,102.918,30.403,27.279,7
0.037,-0.065,0.707,62.445,-0.456,45.931,7
0.061,0.218,0.969,45.369,-33.617,50.283,7
0.011,0.145,1.036,59.617,-17.935,35.155,7
0.078,0.038,1.165,108.784,-26.855,54.463,7
0.219,-0.047,0.967,127.921,6.522,87.241,7
0.146,0.179,0.879,55.426,-24.949,64.997,7
0.023,-0.152,1.107,-11.132,-22.827,20.924,7
0.045,0.125,1.022,-31.944,-4.484,12.772,7
0.065,-0.041,0.951,-30.931,-18.115,-1.251,7
0.069,0.201,1.145,-15.427,-17.971,4.655,7
0.097,0.310,1.102,25.325,-0.780,-19.937,7
-0.007,0.158,1.005,30.703,27.202,-46.602,7
-0.176,-0.580,0.597,-28.312,2.961,-33.788,7
-0.005,0.056,1.065,-39.452,-44.515,9.767,7
0.002,0.059,1.128,-24.227,-25.380,-9.230,7
-0.009,0.022,1.051,0.741,-22.575,-8.194,7
-0.007,0.019,0.936,18.760,-13.008,-3.669,7
-0.016,0.037,0.880,24.871,-46.709,-1.285,7
0.044,0.041,1.030,27.036,-44.694,2.030,7
-0.043,0.042,0.950,16.735,-47.464,0.511,7
-0.061,0.091,0.993,27.525,-42.716,-12.097,7
-0.111,0.100,1.085,27.246,-29.553,-20.144,7
-0.022,-0.075,0.900,20.017,-27.970,-28.676,7
-0.099,-0.007,0.983,3.081,-33.401,-15.965,7
-0.108,-0.029,1.040,-0.132,-39.911,-13.582,7
-0.091,-0.006,1.092,-2.611,-26.028,-3.807,7
-0.190,0.069,0.995,45.195,-27.898,-9.161,7
-0.105,-0.068,1.069,76.797,3.464,-13.305,7
-0.080,-0.166,0.872,55.496,-12.900,-1.424,7
-0.107,0.015,1.074,24.557,-5.491,1.720,7
-0.102,0.019,0.867,8.598,-7.146,-4.256,7
-0.126,0.407,-1.210,-37.531,149.524,25.414,8
-0.160,0.444,-1.240,-76.502,104.889,34.153,8
-0.183,0.542,-1.381,-129.721,75.361,34.533,8
-0.178,0.548,-1.623,-196.104,32.274,16.468,8
-0.162,0.319,-1.017,-284.662,-24.230,-23.840,8
-0.178,-0.076,-1.132,-329.290,1.810,-57.793,8
-0.163,-0.316,-1.190,-305.789,-10.958,-44.564,8
-0.173,-0.419,-1.043,-218.663,-14.303,-30.507,8
-0.078,-0.117,-0.923,-124.657,14.794,-21.733,8
-0.127,-0.145,-0.960,-83.975,2.242,-17.934,8
-0.136,-0.270,-0.854,-86.943,32.525,-19.799,8
-0.095,-0.246,-0.811,-87.851,20.513,-14.238,8
-0.139,-0.459,-0.862,-74.233,35.475,-13.789,8
-0.132,-0.333,-1.014,-67.074,41.409,-1.113,8
-0.126,-0.166,-0.958,-76.817,35.259,-8.677,8
-0.174,-0.249,-1.053,-73.779,27.382,-18.176,8
-0.167,-0.342,-0.970,-127.416,13.679,-24.117,8
-0.236,-0.599,-1.010,-132.305,12.708,-27.329,8
-0.196,-0.499,-0.652,-156.190,-5.167,-1.355,8
-0.186,-0.517,-0.937,-117.289,26.843,-3.323,8
-0.176,-0.422,-0.987,-82.020,9.543,-9.955,8
-0.187,-0.446,-0.938,-62.255,5.479,-15.620,8
-0.215,-0.644,-0.994,-24.960,-6.210,-20.524,8
-0.218,-0.619,-0.833,-2.471,-11.318,-10.231,8
-0.225,-0.744,-0.650,-26.881,-9.088,-2.184,8
-0.166,-0.424,-0.744,-18.465,12.384,1.927,8
-0.193,-0.571,-0.797,0.392,-1.067,-9.057,8
-0.199,-0.528,-0.706,13.836,5.083,-4.774,8
-0.236,-0.663,-0.785,15.059,4.436,-9.264,8
-0.226,-0.596,-0.766,3.290,13.427,7.764,8
-0.214,-0.567,-0.870,15.722,-2.110,5.795,8
-0.190,-0.537,-0.765,30.074,3.500,12.462,8
-0.187,-0.435,-0.892,55.007,-2.470,-0.387,8
-0.223,-0.597,-0.789,50.083,-0.312,-3.047,8
-0.200,-0.422,-0.774,49.804,-1.571,6.521,8
-0.201,-0.503,-0.812,82.070,-2.578,5.588,8
-0.209,-0.564,-0.805,76.134,8.320,2.583,8
-0.183,-0.270,-0.929,110.810,10.658,4.241,8
-0.230,-0.536,-0.901,123.870,1.666,-0.491,8
-0.241,-0.424,-0.942,102.988,8.176,25.380,8
-0.213,-0.283,-1.002,77.042,-18.151,16.745,8
-0.206,-0.413,-0.868,48.128,-28.438,26.761,8
-0.173,-0.245,-0.967,39.014,-9.052,11.149,8
-0.204,-0.421,-0.857,15.268,-10.670,1.685,8
-0.180,-0.200,-0.918,28.154,-0.384,4.690,8
-0.202,-0.386,-0.900,26.722,-6.534,-1.147,8
-0.204,-0.359,-1.006,36.849,-2.938,7.108,8
-0.181,-0.275,-0.925,48.198,-14.267,15.847,8
-0.169,-0.229,-0.919,66.356,-3.909,7.039,8
-0.170,-0.201,-0.903,79.032,0.479,5.070,8
-0.178,-0.174,-0.929,77.950,6.018,0.752,8
-0.173,-0.101,-0.937,114.930,10.802,-4.187,8
-0.191,-0.230,-0.958,154.984,10.334,-6.432,8
-0.210,-0.251,-0.888,157.079,39.754,5.899,8
-0.200,0.144,-1.023,161.095,39.071,13.256,8
-0.196,0.097,-0.872,182.920,48.638,-10.266,8
-0.224,0.227,-0.929,231.075,63.816,-16.932,8
-0.265,0.149,-0.954,243.262,63.528,-29.056,8
-0.298,0.128,-1.124,216.863,58.961,-31.543,8
-0.296,0.277,-1.050,155.019,31.015,-15.482,8
-0.269,0.411,-0.902,126.070,1.127,-19.972,8
-0.226,0.414,-0.896,157.463,-3.549,-24.600,8
-0.263,0.500,-0.893,173.073,8.248,-34.306,8
-0.283,0.290,-0.894,146.952,2.997,-35.860,8
-0.259,0.516,-0.839,129.702,5.227,-17.001,8
-0.262,0.498,-0.838,113.568,2.098,-25.015,8
-0.239,0.604,-0.825,136.930,-7.110,-31.785,8
-0.239,0.743,-0.810,178.345,-8.872,-44.357,8
-0.280,0.572,-0.916,172.863,-3.477,-52.163,8
-0.228,0.622,-0.775,128.689,-16.137,-24.048,8
-0.206,0.706,-0.534,96.737,-0.240,-22.942,8
-0.222,0.764,-0.656,107.108,-3.369,-31.336,8
-0.228,0.678,-0.623,116.222,-12.541,-28.710,8
-0.228,0.825,-0.641,156.555,-12.505,-45.912,8
-0.193,0.848,-0.670,152.993,-13.404,-38.313,8
-0.156,0.834,-0.385,129.632,-9.807,-34.755,8
-0.145,0.864,-0.432,113.115,-3.333,-31.025,8
-0.152,0.801,-0.386,108.435,-8.908,-28.607,8
-0.161,0.820,-0.396,120.343,-5.024,-26.845,8
-0.174,0.817,-0.537,112.172,-13.548,-22.424,8
-0.132,0.924,-0.373,96.283,-13.224,-19.523,8
-0.095,0.975,-0.267,101.067,-13.943,-23.771,8
-0.093,0.933,-0.223,114.197,-8.081,-24.876,8
-0.107,0.933,-0.271,129.632,-3.981,-25.982,8
-0.118,0.872,-0.344,130.016,-11.713,-22.908,8
-0.115,0.850,-0.264,137.384,-17.396,-15.136,8
-0.084,0.889,-0.140,143.216,-28.114,-8.366,8
-0.072,1.017,-0.068,148.209,-17.144,-7.330,8
-0.055,1.221,-0.004,160.536,-9.663,-20.766,8
-0.040,1.021,0.042,159.384,-6.354,-27.812,8
-0.060,0.988,0.028,140.457,-4.412,-24.807,8
-0.071,0.909,0.050,127.921,-8.764,-14.238,8
-0.055,1.041,0.132,127.187,-13.476,-10.680,8
-0.028,1.074,0.165,122.613,-20.633,-14.514,8
-0.014,1.022,0.241,122.892,-10.275,-23.978,8
-0.022,1.040,0.269,131.238,-9.375,-25.326,8
-0.015,0.895,0.287,123.975,-3.441,-24.289,8
-0.023,0.969,0.306,105.502,1.990,-14.583,8
-0.029,0.923,0.246,106.235,-11.390,-16.518,8
0.003,0.922,0.405,105.781,-13.943,-20.524,8
0.005,1.017,0.417,112.416,-8.440,-20.214,8
0.000,0.869,0.445,112.242,-9.160,-30.956,8
0.002,0.841,0.479,104.419,-1.751,-26.327,8
0.011,0.798,0.503,96.178,-6.570,-20.006,8
0.011,0.901,0.522,89.962,-2.830,-21.664,8
0.031,0.827,0.617,88.391,-7.721,-23.184,8
0.019,0.836,0.555,87.169,6.126,-29.712,8
0.027,0.831,0.584,84.480,4.256,-27.985,8
0.044,0.754,0.642,77.426,5.658,-30.023,8
0.028,0.795,0.644,92.791,9.327,-27.329,8
0.013,0.768,0.598,101.765,-0.204,-35.757,8
0.172,1.010,0.570,81.058,-12.792,-22.079,8
0.149,0.744,0.734,70.791,11.989,-27.674,8
0.114,0.700,0.679,77.880,-2.866,-31.577,8
0.073,0.690,0.734,90.696,10.226,-33.304,8
0.066,0.652,0.719,107.108,-0.132,-42.008,8
0.064,0.545,0.707,100.892,-0.636,-28.020,8
0.085,0.597,0.728,85.039,-4.448,-22.079,8
0.130,0.731,0.816,89.613,-5.383,-28.123,8
0.161,0.842,0.873,114.965,-1.966,-43.114,8
0.103,0.455,0.770,114.930,8.644,-55.963,8
0.099,0.415,0.726,97.715,-0.600,-48.364,8
0.100,0.382,0.751,90.277,-5.527,-39.902,8
0.114,0.389,0.854,92.686,-7.865,-36.171,8
0.140,0.440,0.847,87.029,-14.698,-36.137,8
0.214,0.706,1.215,66.286,-21.316,-31.854,8
0.154,0.487,1.013,72.537,0.299,-50.505,8
0.108,0.231,0.778,112.870,-23.510,-55.652,8
0.126,0.277,0.854,142.378,-53.326,-47.362,8
0.108,0.215,0.822,137.698,-61.347,-40.281,8
0.061,0.025,0.812,90.905,-75.733,-18.970,8
0.100,0.141,0.967,52.249,-69.943,8.386,8
0.070,0.105,0.949,47.011,-25.057,-4.878,8
0.049,0.116,0.873,47.115,-30.883,9.906,8
0.065,0.301,1.164,46.487,-36.206,3.308,8
0.066,0.189,1.176,56.963,-14.878,-12.062,8
0.125,-0.003,1.026,62.829,-4.196,-1.907,8
0.087,0.103,0.913,34.230,12.636,0.200,8
0.055,-0.145,0.809,19.633,-4.268,7.039,8
0.058,0.145,0.980,11.357,-11.462,17.643,8
0.048,0.103,1.074,10.659,-14.123,9.491,8
0.044,0.216,1.123,30.773,-4.017,4.863,8
0.041,0.160,1.009,38.734,5.766,-8.159,8
0.052,-0.032,0.818,30.912,0.228,-4.809,8
0.038,-0.107,1.045,3.221,-6.139,13.118,8
0.038,-0.019,0.918,1.300,0.084,13.532,8
0.055,0.110,1.006,0.846,-12.684,15.052,8
0.049,0.110,1.066,4.792,-12.217,6.141,8
0.036,0.095,1.017,6.573,-1.715,1.201,8
0.034,0.094,1.019,8.843,-3.225,0.787,8
0.024,-0.036,0.957,3.360,9.938,1.167,8
-0.009,-0.071,0.845,-5.265,2.386,18.368,8
0.052,0.118,1.132,-8.408,-7.613,29.145,8
0.053,0.146,1.093,-11.167,16.089,19.715,8
0.068,0.144,1.030,-9.525,20.548,13.532,8
0.050,0.087,1.002,-17.313,31.698,6.210,8
0.061,0.065,0.964,-24.366,30.547,5.864,8
0.029,-0.025,0.895,-23.668,24.972,0.718,8
0.048,-0.014,0.882,-23.389,-1.103,12.669,8
0.085,0.142,0.992,-29.709,-7.361,18.368,8
0.073,0.168,1.015,-17.697,1.774,3.965,8
0.081,0.082,1.045,-16.090,7.061,-5.810,8
0.059,0.018,1.070,-13.471,13.247,-4.878,8
0.064,0.107,0.936,-22.446,19.290,-2.771,8
0.046,0.013,0.896,-23.563,1.882,2.307,8
0.063,0.186,0.969,-21.957,-4.916,7.971,8
0.072,0.230,1.053,-20.909,-16.173,-1.527,8
0.077,0.256,0.988,8.528,-16.029,-6.777,8
0.044,0.132,1.018,-4.741,-9.915,-20.939,8
0.081,0.124,0.849,-20.141,0.479,-14.445,8
0.061,0.183,0.931,-25.205,4.076,-23.840,8
0.077,0.167,1.019,-26.462,-1.715,-18.832,8
0.081,0.257,1.067,-40.954,6.773,-19.350,8
0.116,0.156,1.022,-67.633,19.829,-30.265,8
0.100,0.109,0.863,-93.648,23.606,-10.957,8
0.113,0.290,1.006,-76.363,13.895,-14.929,8
0.069,0.217,0.897,11.008,6.270,-2.840,8
0.095,0.369,0.994,26.338,18.894,-10.231,8
0.091,0.144,0.804,3.884,12.456,-15.827,8
0.134,0.285,0.950,-27.020,14.974,-4.774,8
0.125,0.357,0.988,-31.595,20.477,0.856,8
0.081,0.165,0.859,-1.913,2.170,14.741,8
0.085,0.424,0.960,48.198,-19.806,40.336,8
0.105,0.389,1.119,64.366,-18.259,-5.741,8
0.095,-0.028,0.949,30.039,-5.167,-26.224,8
0.096,-0.056,0.816,-28.522,-32.214,9.457,8
0.071,0.312,0.912,-39.173,-59.584,18.610,8
0.050,0.217,1.240,-11.271,-36.098,-15.758,8
0.053,0.043,0.968,-2.856,-8.692,2.618,8
0.029,0.192,0.774,17.398,-25.093,16.848,8
0.045,0.151,0.972,-15.322,-45.054,12.323,8
0.011,0.131,0.969,-31.141,-27.790,27.556,8
0.001,0.424,0.927,-9.630,-23.258,27.901,8
-0.017,0.373,0.927,11.741,-26.675,10.147,8
-0.029,0.344,1.127,24.417,-25.956,3.170,8
-0.024,0.269,1.057,35.592,-6.426,-3.531,8
0.014,0.140,0.953,27.420,-4.052,3.585,8
-0.003,0.295,0.986,19.214,-1.571,10.286,8
-0.012,0.307,1.038,42.017,6.809,-0.180,8
-0.020,0.231,0.875,63.633,9.039,-15.965,8
0.012,0.815,0.806,-461.323,116.650,-12.442,9
0.064,0.143,0.664,-309.141,89.640,-47.777,9
0.093,0.537,0.597,-162.651,62.881,32.702,9
0.098,0.703,0.582,-29.674,-12.289,6.313,9
0.112,0.727,0.939,-36.623,-31.423,10.873,9
0.081,0.689,0.843,-29.360,-5.743,-5.672,9
0.112,0.572,0.622,-10.189,7.133,1.409,9
0.131,0.638,0.743,-41.477,-10.742,11.184,9
0.111,0.547,0.708,-57.715,-17.899,18.817,9
0.086,0.601,0.678,-36.833,-27.071,37.538,9
0.104,0.677,0.754,-26.985,-35.199,47.727,9
0.057,0.677,0.647,-63.547,-45.522,37.918,9
0.023,0.559,0.694,-91.797,-53.686,76.707,9
-0.034,0.713,0.637,-115.543,-46.852,88.761,9
-0.035,1.000,0.865,-134.156,-25.596,77.328,9
-0.074,0.895,0.774,-131.118,23.174,52.114,9
-0.131,0.822,0.601,-118.022,40.762,24.171,9
0.305,1.063,0.711,0.916,58.241,10.976,9
-0.017,0.731,0.111,-113.238,39.970,26.347,9
-0.038,1.019,0.780,-139.324,19.901,1.478,9
-0.001,0.688,0.602,-286.338,82.806,-14.411,9
0.007,0.833,0.425,-462.685,137.763,3.550,9
-0.061,0.910,0.027,-535.005,115.751,34.636,9
-0.255,0.805,-0.103,-736.495,37.093,32.668,9
-0.029,0.983,-0.251,-345.737,-22.036,7.833,9
0.040,1.075,-0.131,-197.920,-6.642,41.337,9
-0.012,0.479,-0.459,-406.568,-33.077,82.717,9
-0.117,0.720,-0.387,-524.773,-5.959,143.093,9
-0.130,0.866,-0.486,-593.601,46.552,154.457,9
-0.156,0.803,-0.844,-614.379,107.875,97.431,9
-0.206,0.255,-1.100,-496.628,62.845,104.097,9
-0.186,0.534,-0.756,-379.086,64.499,81.646,9
-0.250,0.354,-0.975,-320.595,64.535,49.420,9
-0.221,0.401,-1.028,-312.388,34.971,59.506,9
-0.344,0.182,-0.910,-295.627,58.853,28.350,9
-0.264,0.175,-1.013,-314.309,56.838,10.838,9
-0.355,-0.201,-1.033,-316.509,-0.132,-2.874,9
-0.324,-0.493,-0.723,-294.335,-5.455,27.418,9
-0.303,-0.426,-1.051,-333.166,-23.906,80.748,9
-0.229,-0.198,-0.855,-356.248,-107.635,101.679,9
-0.266,-0.208,-1.055,-284.801,-48.831,53.426,9
-0.311,-0.526,-0.607,-177.701,1.990,3.377,9
-0.226,-0.474,-0.611,-79.436,42.668,-9.333,9
-0.290,-0.496,-0.614,-46.750,53.098,-42.527,9
-0.274,-0.569,-0.835,-75.734,48.494,-48.571,9
-0.289,-0.604,-0.911,-91.378,31.159,-28.883,9
-0.304,-0.583,-0.818,-73.709,24.541,-23.046,9
-0.275,-0.824,-0.623,-70.356,15.945,-3.082,9
-0.319,-0.607,-0.409,-84.604,50.940,19.646,9
-0.482,-1.235,0.809,-410.933,136.468,85.998,9
-0.338,-0.345,-1.251,-184.755,113.090,31.010,9
-0.305,-0.336,-0.508,-99.270,60.183,6.659,9
-0.369,-1.131,-0.817,-24.262,28.857,-20.041,9
-0.391,-0.797,-0.441,-9.560,-42.752,21.580,9
-0.348,-0.790,-0.512,52.144,-18.727,-0.180,9
-0.428,-1.101,-0.883,99.111,-41.673,2.479,9
-0.420,-0.753,-0.326,76.763,-55.053,37.123,9
-0.362,-0.638,-0.769,115.699,-30.164,7.695,9
-0.280,-0.618,-0.624,63.877,-37.753,4.103,9
-0.320,-0.744,-0.547,54.099,-22.395,-2.702,9
-0.312,-0.662,-0.729,92.651,-10.634,-1.078,9
-0.301,-0.673,-0.750,137.244,-24.337,-8.297,9
-0.313,-0.658,-0.681,218.364,-30.416,-11.786,9
-0.274,-0.586,-0.569,170.733,-26.531,-2.978,9
-0.290,-0.469,-0.743,104.489,6.737,-10.473,9
-0.339,-0.670,-0.865,72.432,5.119,-7.986,9
-0.321,-0.489,-0.818,75.191,8.212,2.549,9
-0.284,-0.468,-0.842,135.044,-3.405,-0.249,9
-0.306,-0.416,-0.772,243.088,-11.462,-15.032,9
-0.297,-0.301,-0.937,370.407,5.730,-30.748,9
-0.287,-0.211,-0.929,361.502,3.896,-27.571,9
-0.337,-0.071,-0.911,340.620,19.757,-40.938,9
-0.356,-0.056,-1.016,268.789,34.180,-30.783,9
-0.359,0.004,-0.942,274.306,20.369,-18.901,9
-0.376,0.094,-0.813,292.919,35.475,-20.663,9
-0.354,0.300,-0.954,339.886,45.329,-35.722,9
-0.376,0.357,-0.880,345.858,36.374,-43.494,9
-0.382,0.596,-0.827,327.036,42.488,-45.842,9
-0.366,0.459,-0.815,330.004,41.589,-60.418,9
-0.334,0.369,-0.754,289.392,28.749,-39.003,9
-0.324,0.489,-0.689,183.234,23.785,13.636,9
-0.435,0.876,-0.680,164.936,26.591,3.792,9
-0.462,0.926,-0.684,229.329,26.555,-49.366,9
-0.412,0.922,-0.446,374.946,29.432,-72.473,9
-0.329,0.653,-0.460,398.657,54.824,-76.307,9
-0.277,0.662,-0.432,327.839,39.826,-40.420,9
-0.287,0.752,-0.304,238.757,9.075,-10.991,9
-0.375,1.072,-0.077,182.885,1.666,8.075,9
-0.383,1.109,-0.065,206.107,14.794,-10.646,9
-0.393,1.196,0.007,294.979,30.547,-42.388,9
-0.380,0.996,0.093,368.207,47.775,-73.924,9
-0.294,0.965,0.200,513.789,51.911,-80.279,9
-0.201,1.030,0.264,550.036,65.039,-98.516,9
-0.294,0.961,0.119,392.372,41.589,-116.477,9
-0.257,0.818,0.221,202.999,-8.261,-113.403,9
-0.167,0.690,0.507,171.222,-40.127,-117.272,9
-0.132,0.543,0.735,184.422,-23.366,-89.881,9
-0.067,0.539,0.511,147.476,7.097,-68.190,9
-0.082,0.569,0.441,90.486,-26.639,-52.889,9
-0.127,0.581,0.839,144.298,-49.802,-32.959,9
-0.136,0.730,1.098,218.958,-15.885,-23.909,9
-0.083,0.585,0.923,212.428,27.670,-35.688,9
-0.011,0.346,0.744,127.711,26.339,-32.924,9
-0.044,0.336,0.774,70.966,8.500,-2.978,9
-0.044,0.461,0.593,65.763,-10.994,-6.777,9
-0.088,0.445,0.806,55.461,-46.852,-6.639,9
-0.129,0.445,1.201,100.927,-25.201,-9.817,9
-0.124,0.443,0.901,108.680,10.910,-12.822,9
-0.135,0.357,0.941,74.109,-17.504,-21.630,9
-0.086,0.354,1.104,65.309,-9.879,-24.013,9
-0.087,0.156,0.983,60.036,-6.714,-17.519,9
0.004,0.008,0.845,60.979,-14.806,-2.287,9
-0.098,0.195,1.098,15.408,-23.546,42.132,9
-0.085,0.523,1.043,-13.751,31.734,22.616,9
-0.171,0.504,0.906,-51.185,13.715,18.264,9
-0.199,0.398,1.066,-47.623,45.797,23.342,9
-0.091,0.283,0.933,-58.798,38.280,34.567,9
-0.010,0.264,1.050,-78.458,45.149,32.080,9
0.009,0.291,1.039,-186.745,83.705,57.260,9
-0.115,0.650,1.042,-313.890,110.608,56.708,9
-0.198,0.962,1.341,-109.537,167.867,-9.713,9
-0.073,0.428,0.533,31.192,225.017,-47.155,9
0.046,0.545,0.329,20.227,113.881,-62.249,9
0.074,0.923,0.773,66.147,42.416,-95.442,9
0.028,0.698,0.883,2.103,42.128,-155.612,9
0.118,0.497,0.833,9.925,47.559,-152.572,9
0.185,0.509,0.965,13.732,61.946,-158.893,9
0.176,0.243,0.751,60.420,81.943,-162.451,9
0.268,0.241,0.441,80.255,27.310,-115.648,9
0.346,0.333,0.808,86.854,-30.632,-109.949,9
0.354,0.005,1.161,54.379,-8.836,-87.636,9
0.300,0.034,0.882,86.016,26.699,-14.342,9
0.340,0.211,0.926,128.375,20.872,16.192,9
0.296,0.117,0.838,201.218,18.355,36.709,9
0.356,0.279,0.800,205.583,-15.885,47.002,9
0.339,0.309,0.948,149.920,-42.644,32.668,9
0.266,0.177,0.999,130.749,-21.928,12.496,9
0.309,0.162,0.850,86.715,-23.690,15.398,9
0.262,0.026,0.832,76.413,-37.537,8.524,9
0.321,0.253,0.939,93.245,-70.518,10.735,9
0.305,0.298,1.052,90.242,-73.935,-28.572,9
0.219,0.035,1.062,61.223,-52.283,-70.193,9
0.202,-0.083,0.939,54.623,-45.090,-59.659,9
0.189,-0.063,0.814,39.433,-62.390,-54.927,9
0.153,-0.115,0.857,-20.630,-90.444,-55.548,9
0.099,-0.037,1.032,-44.550,-106.700,-44.495,9
0.116,0.013,1.108,-75.559,-67.281,-35.239,9
0.068,0.421,0.454,-213.215,-114.721,-67.016,9
-0.044,0.225,1.286,-321.782,-208.521,-113.231,9
0.003,-0.001,1.451,-81.251,-113.318,-115.338,9
0.034,0.399,1.166,-24.646,-62.821,-92.092,9
-0.010,0.490,1.257,-87.083,11.917,-177.959,9
-0.063,-0.128,1.005,-157.587,136.072,-158.962,9
0.052,-0.084,0.406,-1.598,-7.649,-43.045,9
0.099,0.252,1.163,75.540,-92.422,33.220,9
0.091,0.372,0.992,64.191,-36.530,4.310,9
0.050,0.098,0.998,81.302,-60.663,16.157,9
-0.009,0.311,1.152,48.931,-14.411,5.174,9
-0.026,0.140,0.905,54.623,-26.639,-6.639,9
-0.061,0.180,1.065,58.988,-38.976,-13.582,9
-0.078,0.195,1.066,14.919,-4.880,-32.544,9
0.095,0.049,0.902,-38.439,10.514,-20.352,9
-0.013,-0.027,0.563,-47.344,25.836,-29.505,9
0.057,0.426,1.028,-47.728,28.497,25.138,9
0.079,0.351,1.022,-53.699,43.423,-29.988,9
-0.010,0.305,0.678,-16.684,27.346,-32.372,9
0.088,0.087,1.202,-20.735,30.223,-39.522,9
0.153,0.287,0.937,-53.385,69.319,-23.460,9
0.033,0.330,0.970,-60.404,81.260,-27.571,9
0.043,0.403,0.830,-40.569,47.667,-67.430,9
0.100,0.204,1.208,-50.277,63.025,-74.753,9
0.102,0.126,0.700,-58.798,58.637,-43.528,9
0.115,0.256,0.932,-46.890,35.043,-27.743,9
0.136,0.107,0.807,-25.065,14.003,7.453,9
0.143,0.123,0.948,13.766,14.146,53.806,9
0.084,0.366,0.688,52.772,-19.086,75.532,9
0.094,0.336,0.867,69.394,-56.096,69.868,9
0.238,0.381,0.891,84.410,-77.496,102.957,9
0.160,0.437,1.217,14.046,-45.162,49.592,9
0.087,0.340,1.089,-3.484,-37.285,41.026,9
0.047,0.301,1.036,12.405,-27.790,5.795,9
0.053,0.254,0.916,16.700,-44.227,6.659,9
0.054,0.415,0.981,17.258,-60.196,-0.733,9
0.029,0.228,1.148,8.179,-32.610,-3.220,9
0.003,0.174,0.948,-2.017,-26.424,6.866,9
-0.018,0.219,1.010,-3.624,-27.574,19.957,9
-0.004,0.288,0.993,1.265,-36.458,11.115,9
0.002,0.347,0.967,15.338,-32.826,6.970,9
-0.048,0.357,0.813,56.195,-46.421,-4.567,9
-0.013,0.153,1.185,19.528,-44.910,-1.527,9
-0.057,0.146,0.954,1.335,1.235,2.756,9
-0.051,0.221,0.957,-2.297,-15.526,6.072,9
-0.037,0.274,0.999,11.741,-9.088,-1.389,9
-0.051,0.286,0.945,16.560,-13.116,-7.503,9
-0.068,0.147,0.923,4.338,-19.806,-2.391,9
-0.057,0.180,0.961,5.246,-20.309,-1.976,9
-0.088,0.231,0.928,5.525,-13.655,3.965,9
-0.065,0.297,1.021,28.398,-19.338,1.858,9
-0.094,0.228,0.985,60.280,-13.871,-14.134,9
-0.095,0.183,0.993,56.893,-10.886,-7.744,9
-0.019,0.615,1.035,-224.110,-30.560,3.205,10
-0.024,0.416,1.041,-166.282,-26.603,-2.667,10
-0.050,0.427,0.659,-154.165,-23.043,14.292,10
-0.023,0.651,0.745,-171.939,-25.488,24.171,10
-0.025,0.693,0.642,-212.202,-28.474,24.862,10
0.009,0.845,0.664,-235.808,-43.759,14.534,10
-0.069,0.805,0.784,-231.443,-44.982,7.488,10
-0.096,0.749,0.713,-217.196,-31.243,6.452,10
-0.135,0.681,0.442,-214.437,-21.568,13.740,10
-0.110,0.926,0.435,-236.367,-24.517,19.439,10
-0.118,1.057,0.369,-283.544,-23.834,14.603,10
-0.117,1.091,0.411,-290.633,-13.116,6.175,10
-0.155,0.944,0.336,-276.875,-17.432,7.660,10
-0.146,0.925,0.170,-263.570,-4.592,12.393,10
-0.150,0.880,-0.063,-266.294,-6.390,21.097,10
-0.149,1.052,-0.076,-305.509,0.263,31.666,10
-0.147,1.156,-0.210,-322.306,1.271,25.380,10
-0.164,1.076,-0.143,-341.896,-12.936,15.536,10
-0.172,0.917,-0.175,-338.753,-7.649,11.045,10
-0.136,0.948,-0.188,-298.909,14.039,7.868,10
-0.180,0.710,-0.542,-253.234,34.108,11.356,10
-0.170,0.708,-0.694,-259.170,24.397,25.311,10
-0.187,0.790,-0.753,-294.265,15.981,23.687,10
-0.206,0.661,-0.574,-291.262,13.787,25.000,10
-0.200,0.560,-0.700,-277.398,16.268,31.770,10
-0.198,0.603,-0.722,-273.243,10.730,28.488,10
-0.190,0.563,-0.840,-253.164,21.915,16.952,10
-0.216,0.340,-0.944,-267.551,14.326,21.857,10
-0.171,0.510,-0.845,-278.341,17.132,25.829,10
-0.225,0.359,-0.824,-226.624,23.282,5.174,10
-0.283,0.046,-0.956,-183.638,24.109,5.346,10
-0.260,0.027,-1.002,-167.889,21.556,16.123,10
-0.217,0.259,-0.892,-143.898,21.592,17.055,10
-0.248,0.098,-1.055,-122.108,18.498,2.583,10
-0.281,0.016,-0.915,-114.740,8.644,1.789,10
-0.265,0.084,-0.881,-100.737,10.981,-2.529,10
-0.321,-0.242,-0.999,-92.321,10.262,8.455,10
-0.236,-0.011,-0.828,-96.861,20.656,8.697,10
-0.263,-0.041,-0.844,-86.036,20.584,1.271,10
-0.297,-0.196,-0.891,-93.823,21.915,7.695,10
-0.292,-0.082,-0.930,-79.505,21.304,1.650,10
-0.326,-0.188,-0.984,-65.887,20.441,-1.631,10
-0.329,-0.099,-0.894,-64.280,15.225,-5.258,10
-0.363,-0.321,-0.970,-59.322,15.945,-3.531,10
-0.329,-0.191,-0.877,-56.947,12.060,2.998,10
-0.317,-0.233,-0.942,-35.820,16.664,-10.128,10
-0.313,-0.281,-0.944,-23.878,12.852,-7.744,10
-0.310,-0.157,-1.006,4.163,12.276,-13.029,10
-0.382,-0.333,-1.192,-1.703,-0.995,-15.067,10
-0.325,-0.053,-0.792,26.722,-8.692,-19.074,10
-0.350,-0.270,-1.014,67.264,-10.742,-23.771,10
-0.284,0.050,-0.887,92.686,-5.563,-30.403,10
-0.387,-0.346,-1.278,121.356,-15.274,-34.617,10
-0.322,-0.089,-1.052,147.755,-22.863,-31.094,10
-0.360,-0.306,-1.022,162.876,-37.753,-16.690,10
-0.299,0.077,-0.606,195.596,-34.804,-9.575,10
-0.319,0.020,-0.829,242.913,-15.058,-22.182,10
-0.327,-0.098,-1.281,209.739,-22.179,-14.065,10
-0.321,0.105,-0.939,143.146,-39.084,-4.670,10
-0.291,0.300,-0.680,154.774,-28.438,-10.819,10
-0.276,0.234,-0.579,188.926,-16.964,-12.753,10
-0.269,0.340,-0.571,258.383,1.271,-13.478,10
-0.273,0.330,-1.273,289.881,14.758,-15.412,10
-0.281,0.533,-1.411,153.378,-21.676,-5.638,10
-0.211,0.827,-0.598,99.531,-37.070,-22.839,10
-0.242,0.481,-0.699,164.762,-26.172,-40.074,10
-0.237,0.348,-0.690,218.713,-31.099,-29.125,10
-0.158,0.481,-0.529,260.024,-20.417,-14.238,10
-0.176,0.536,-0.846,262.014,-8.656,-9.506,10
-0.145,0.984,-0.723,198.879,-18.187,-2.598,10
-0.142,1.022,-0.427,182.641,-14.734,-22.735,10
-0.200,0.902,-0.467,223.462,-12.001,-29.021,10
-0.172,0.847,-0.402,279.649,-7.577,-29.712,10
-0.206,0.817,-0.470,292.220,-5.455,-29.712,10
-0.165,0.920,-0.459,241.446,-4.017,-14.998,10
-0.144,1.056,-0.169,201.428,-9.663,-15.723,10
-0.159,1.074,0.052,196.225,-11.246,-21.112,10
-0.166,0.976,-0.031,218.294,-13.835,-22.631,10
-0.129,0.977,-0.027,218.364,-17.899,-18.832,10
-0.113,0.985,0.073,232.402,-6.930,-18.901,10
-0.087,0.997,0.106,223.916,1.810,-18.936,10
-0.113,0.992,0.284,198.460,2.709,-18.210,10
-0.117,0.906,0.245,209.913,2.529,-21.353,10
-0.093,0.968,0.271,203.104,1.450,-14.687,10
-0.099,1.054,0.327,195.212,-7.002,-14.929,10
-0.087,1.030,0.421,195.142,-8.584,-17.347,10
-0.076,0.943,0.508,201.567,2.709,-21.699,10
-0.081,0.900,0.503,184.177,13.895,-22.355,10
-0.081,0.777,0.597,169.546,7.097,-19.005,10
-0.076,0.679,0.528,141.225,-1.751,-10.646,10
-0.071,0.769,0.619,118.772,-5.455,-5.050,10
-0.060,0.841,0.613,90.451,0.084,-11.371,10
-0.074,0.703,0.790,94.327,-1.139,-12.718,10
-0.070,0.666,0.727,99.426,1.055,-9.092,10
-0.099,0.629,0.842,81.267,-0.096,-6.225,10
-0.097,0.555,0.946,125.197,0.228,-8.712,10
-0.068,0.655,0.786,127.851,3.860,-1.355,10
-0.038,0.688,0.765,89.264,4.472,-5.119,10
-0.062,0.655,0.819,60.350,5.335,-8.297,10
-0.084,0.387,0.983,81.791,0.156,-11.129,10
-0.076,0.415,0.796,122.019,8.500,-1.009,10
-0.053,0.457,0.756,127.397,-1.535,3.239,10
-0.039,0.441,0.856,112.556,-1.966,0.994,10
-0.032,0.469,0.909,95.724,0.335,-2.114,10
-0.082,0.302,0.838,82.874,4.975,-6.950,10
-0.051,0.316,0.883,86.401,-0.816,0.614,10
-0.060,0.239,0.817,86.505,-1.643,2.963,10
-0.033,0.344,0.946,84.480,-1.751,2.928,10
-0.037,0.337,0.956,83.991,1.163,-2.391,10
-0.045,0.304,0.947,75.436,7.673,-5.154,10
-0.039,0.327,0.948,62.306,4.364,-4.739,10
-0.061,0.239,0.874,60.141,2.278,-5.568,10
-0.039,0.258,0.951,52.877,-3.261,-4.325,10
-0.014,0.333,0.979,56.439,-6.031,-9.817,10
-0.028,0.191,0.971,64.191,-1.535,-13.098,10
-0.038,0.208,0.968,69.848,10.838,-10.991,10
-0.017,0.289,1.000,89.054,9.075,-6.501,10
-0.033,0.189,0.920,75.890,11.305,-22.424,10
-0.034,0.191,0.933,69.429,-9.340,-32.579,10
-0.027,0.234,1.078,76.448,2.026,-46.499,10
-0.021,0.185,0.988,82.315,3.357,-66.118,10
-0.018,0.085,1.007,69.290,13.427,-76.065,10
-0.041,0.009,1.019,58.499,39.143,-69.226,10
-0.062,-0.209,0.889,18.341,37.956,-49.055,10
-0.062,-0.230,0.983,-11.167,27.706,-20.904,10
-0.009,-0.054,0.967,-16.719,15.549,-0.975,10
0.035,0.188,1.006,18.027,21.951,-12.822,10
0.020,0.029,1.020,-22.516,44.898,-39.383,10
0.017,0.186,1.079,-93.508,43.927,-14.998,10
0.043,-0.071,0.962,-133.143,49.897,-29.332,10
0.035,-0.008,0.994,-65.642,-23.402,-35.929,10
0.058,0.102,1.003,-43.154,-14.842,-52.267,10
0.103,0.457,1.142,-27.963,-8.548,-61.351,10
0.087,0.464,0.992,-52.896,18.139,-109.604,10
0.085,0.243,1.136,-83.242,33.065,-134.611,10
-0.047,-0.690,0.956,-63.302,49.286,-91.712,10
0.060,-0.146,1.030,-20.176,26.519,76.223,10
-0.010,0.145,0.687,26.966,39.719,77.121,10
-0.047,-0.170,0.446,50.887,-21.712,85.825,10
-0.063,-0.199,0.828,61.398,-79.941,133.974,10
-0.001,0.041,1.233,50.258,-96.270,174.732,10
0.039,0.346,1.194,56.334,-49.442,156.357,10
-0.002,0.250,1.111,67.998,-39.587,117.879,10
0.006,0.139,0.745,46.103,-65.950,97.534,10
-0.039,0.010,0.874,-47.169,-35.055,98.640,10
-0.092,0.251,1.184,-138.870,-34.372,94.668,10
-0.006,0.442,1.355,-133.806,0.335,71.387,10
-0.112,0.246,0.979,-103.531,55.544,31.804,10
-0.167,0.055,0.493,-62.290,-27.503,61.198,10
-0.107,0.173,0.960,-51.534,-61.347,68.141,10
-0.055,0.386,1.200,-55.585,-34.876,82.060,10
-0.071,0.303,1.234,-56.877,-3.585,58.366,10
-0.087,0.649,1.145,-51.080,49.825,42.857,10
-0.205,0.287,0.784,-55.061,53.458,14.465,10
-0.128,0.423,0.736,-48.636,-6.462,13.636,10
-0.111,0.410,0.894,-18.360,-17.288,14.810,10
-0.095,0.325,0.927,7.655,-17.036,7.730,10
-0.106,0.326,0.915,17.503,-14.447,5.139,10
-0.065,0.425,1.087,37.547,3.644,-34.651,10
-0.079,0.688,0.844,36.814,10.190,-89.640,10
-0.191,0.213,1.057,51.306,-23.043,-85.357,10
-0.098,0.288,0.979,80.289,-9.915,-38.520,10
-0.047,0.137,1.052,73.515,-0.060,-37.760,10
-0.056,0.024,1.084,95.829,24.145,-12.891,10
-0.096,0.337,0.781,122.473,40.294,-35.169,10
-0.177,-0.015,0.626,138.816,19.110,-46.153,10
-0.120,0.275,1.002,105.537,-19.194,-9.437,10
0.009,0.553,1.465,76.239,-12.037,-32.648,10
-0.038,0.000,1.218,83.258,68.132,-29.539,10
-0.013,-0.018,0.780,51.864,35.295,-30.817,10
-0.069,-0.304,0.610,96.946,25.008,11.149,10
-0.003,0.020,0.808,71.559,-17.756,34.775,10
-0.026,0.136,0.997,10.693,-13.080,0.511,10
0.037,0.181,0.915,57.137,-30.955,-50.471,10
-0.033,0.022,1.163,44.601,5.587,-72.646,10
-0.084,-0.334,0.763,18.097,24.181,-32.752,10
-0.028,-0.123,0.925,22.182,-21.029,-1.424,10
-0.049,-0.023,1.031,17.328,-3.585,8.075,10
-0.023,-0.017,1.298,-17.033,11.233,2.376,10
-0.043,-0.004,0.930,-10.154,39.179,-10.197,10
-0.014,0.019,0.998,-12.040,23.354,-15.792,10
-0.048,0.046,0.948,-14.135,34.288,-28.192,10
0.000,0.026,1.101,-20.351,17.347,-21.941,10
0.012,0.070,1.015,-25.973,44.286,-28.054,10
-0.022,-0.025,1.005,-24.646,49.789,-52.094,10
-0.012,-0.053,0.865,-21.119,35.007,-18.314,10
0.022,-0.177,0.983,-35.192,40.582,-15.412,10
0.034,0.020,0.737,-64.210,0.228,-9.195,10
0.060,0.015,1.091,-48.636,-11.677,-20.766,10
0.010,-0.014,0.958,-47.030,-10.490,-19.557,10
0.019,-0.011,1.009,-23.633,-11.210,4.759,10
0.034,0.031,0.932,-19.897,-12.145,7.764,10
0.069,0.220,0.950,-12.598,-30.344,-2.356,10
0.003,0.127,1.161,-30.897,-20.129,-0.526,10
0.048,0.145,1.077,-37.252,20.117,5.001,10
-0.102,-0.020,0.738,-16.509,21.520,-0.526,10
0.041,0.036,1.023,-8.617,-33.833,6.935,10
0.107,0.068,1.258,-34.458,26.159,42.581,10
-0.034,-0.095,1.014,-50.068,71.765,67.070,10
-0.035,0.043,0.778,-25.170,40.654,76.050,10
-0.081,1.179,0.649,113.778,-88.178,139.052,11
-0.146,0.964,0.906,20.716,-73.072,12.634,11
-0.142,0.567,0.820,-2.052,-53.003,-24.358,11
-0.103,0.539,0.858,-17.382,-72.532,-25.464,11
-0.122,0.514,1.214,-34.947,-49.190,-45.186,11
-0.170,0.247,0.915,-26.636,-1.211,-44.530,11
-0.107,0.426,0.997,-70.287,7.421,0.269,11
-0.211,0.418,0.657,-1.354,11.845,19.888,11
-0.124,0.809,0.643,-18.570,-45.737,13.636,11
-0.126,0.597,1.123,-29.709,-23.366,-31.681,11
-0.139,0.164,0.977,-34.528,27.778,4.759,11
-0.142,0.535,0.651,-42.804,33.029,33.048,11
-0.124,0.565,0.596,-29.116,-2.290,17.470,11
-0.155,0.604,0.838,-9.875,-14.555,7.902,11
-0.112,0.666,0.800,9.367,-13.584,-0.560,11
-0.165,0.637,0.846,6.643,-34.120,-14.549,11
-0.147,0.534,0.814,30.074,-22.971,-15.931,11
-0.202,0.713,0.511,96.702,-55.988,-27.398,11
-0.180,0.606,0.871,64.401,-83.286,-56.515,11
-0.135,0.287,1.146,27.385,-34.840,-35.860,11
-0.164,0.435,0.983,-2.227,27.454,7.591,11
-0.161,0.377,0.793,-1.249,28.101,18.230,11
-0.177,0.545,0.827,5.560,27.850,26.485,11
-0.214,0.649,0.770,20.646,24.541,20.095,11
-0.200,0.675,0.726,13.033,14.506,-6.225,11
-0.111,0.652,0.907,-14.030,4.508,-36.551,11
-0.130,0.417,0.955,4.827,5.011,-34.548,11
-0.137,0.501,0.913,-2.925,14.938,-29.367,11
-0.140,0.528,0.854,-9.595,13.859,-27.260,11
-0.117,0.540,0.816,-2.786,25.656,-14.273,11
-0.056,0.579,0.766,21.833,21.232,-7.606,11
0.092,0.295,0.738,25.569,4.040,-13.651,11
-0.116,0.498,0.791,0.881,-16.533,18.679,11
-0.122,0.458,0.814,13.662,-29.229,31.459,11
-0.147,0.581,0.803,14.535,-40.019,-1.009,11
-0.166,0.471,0.860,24.557,-56.743,-9.817,11
-0.167,0.427,0.952,2.976,-46.601,-1.838,11
-0.157,0.509,0.853,-32.119,-17.899,-3.841,11
-0.139,0.634,0.865,-14.135,-26.711,-18.694,11
-0.200,0.321,0.951,-6.348,-20.525,-19.661,11
-0.176,0.578,0.798,4.862,-18.727,-3.841,11
-0.181,0.630,0.772,30.354,-33.976,-23.426,11
-0.184,0.521,0.851,86.401,-43.939,-45.152,11
-0.214,0.539,0.969,98.727,-30.955,-50.402,11
-0.213,0.395,0.974,169.825,-8.512,-40.696,11
-0.255,0.254,0.836,181.768,-9.807,-10.888,11
-0.173,0.358,0.765,124.045,-9.807,3.067,11
-0.206,0.344,0.980,-2.506,-19.158,-8.850,11
-0.204,0.393,0.952,30.144,-12.397,-4.463,11
-0.196,0.310,0.911,26.792,0.479,-9.126,11
-0.150,0.315,0.944,22.008,-0.168,-1.458,11
-0.317,0.060,1.230,10.205,28.893,49.212,11
-0.126,0.288,1.060,17.643,94.279,65.895,11
-0.197,0.243,0.703,9.122,99.710,78.744,11
-0.149,0.857,0.829,-8.617,57.234,58.435,11
-0.144,0.557,0.581,1.579,18.678,-45.255,11
-0.148,0.180,0.894,-3.030,-27.610,-47.915,11
-0.104,0.367,1.011,80.639,-12.576,-29.505,11
-0.114,0.073,1.015,94.851,-24.481,-44.668,11
-0.177,0.080,0.991,82.804,-11.749,18.057,11
-0.176,0.515,0.941,112.626,-3.369,14.050,11
-0.163,0.275,0.919,81.512,-13.727,-29.712,11
-0.141,-0.014,1.059,75.121,-16.785,-35.791,11
-0.149,0.088,1.114,76.937,-4.412,-18.176,11
-0.093,0.162,1.336,-118.895,23.821,-8.055,11
-0.165,0.296,1.062,-38.998,85.540,-7.157,11
-0.124,0.127,0.829,-80.518,86.115,-37.346,11
-0.081,-0.082,0.767,-25.589,63.492,-33.097,11
-0.046,0.185,0.818,2.313,3.357,7.350,11
-0.091,0.295,0.987,5.106,4.795,-17.485,11
-0.055,0.031,0.898,2.173,3.968,-19.212,11
-0.032,0.082,1.004,-6.592,-10.131,6.382,11
-0.087,0.288,1.044,10.135,15.118,-4.360,11
-0.106,0.260,0.816,5.770,-1.571,-13.927,11
-0.087,0.309,0.897,-17.592,-19.230,-20.524,11
-0.052,0.224,1.022,-41.792,-30.919,-35.066,11
-0.051,0.115,1.051,-17.941,-16.928,-35.308,11
-0.038,0.260,1.526,-107.023,-4.160,-28.158,11
-0.095,0.247,1.022,-69.867,48.243,-28.918,11
-0.079,0.277,0.803,-43.188,49.286,-31.336,11
-0.037,0.284,0.819,-43.188,12.312,-36.689,11
-0.048,-0.087,0.838,38.734,-8.368,-30.887,11
-0.021,-0.102,1.171,63.877,-27.035,35.258,11
-0.080,0.454,1.050,114.930,17.851,57.364,11
-0.059,0.251,0.966,128.619,-6.139,31.044,11
-0.040,-0.025,1.236,175.377,0.371,39.368,11
-0.040,0.311,0.897,166.927,12.852,32.322,11
-0.050,0.125,0.980,101.486,-3.621,3.619,11
-0.016,0.033,1.040,80.709,2.170,-11.578,11
-0.012,-0.039,1.126,63.772,15.837,-13.962,11
-0.047,-0.113,0.949,111.788,30.295,-18.590,11
-0.024,-0.207,0.903,90.766,6.773,-6.536,11
-0.041,-0.149,0.884,95.759,1.450,5.899,11
-0.009,-0.291,1.119,68.417,-11.102,10.769,11
0.005,-0.254,1.144,221.158,41.337,12.600,11
-0.069,-0.148,0.860,166.158,32.849,19.819,11
-0.019,-0.223,0.915,109.867,19.218,-1.113,11
0.013,-0.381,0.916,31.611,1.414,1.685,11
-0.010,-0.196,0.958,0.113,6.773,-6.432,11
-0.009,-0.314,0.837,-95.813,-26.280,-9.437,11
-0.019,-0.242,0.938,-168.168,-24.014,-16.621,11
-0.025,-0.284,1.006,-199.212,-30.092,-8.919,11
-0.058,-0.154,1.069,-157.517,-15.526,-7.744,11
-0.049,-0.041,1.057,-110.340,-6.031,-9.230,11
-0.037,-0.094,0.967,-29.639,-0.528,-21.422,11
-0.038,-0.136,0.953,-37.566,-12.469,-5.050,11
-0.036,-0.051,0.896,-49.963,-21.352,6.348,11
-0.061,0.022,0.956,-60.090,-24.841,5.105,11
-0.072,0.029,1.140,-52.163,-14.231,13.394,11
-0.067,-0.081,1.139,-13.227,2.817,7.833,11
-0.053,-0.046,0.996,18.306,0.695,26.036,11
-0.008,0.130,1.012,-5.824,-9.124,8.559,11
-0.093,-0.114,0.975,-57.157,-7.397,-7.606,11
-0.064,0.083,1.026,-78.598,-10.347,5.312,11
-0.103,0.047,0.963,-82.544,-7.577,-4.463,11
-0.118,-0.145,0.897,-50.487,-19.338,-3.220,11
-0.075,0.043,1.036,-40.255,-26.316,29.766,11
0.010,0.036,0.920,-11.760,-32.790,25.483,11
-0.122,0.322,1.122,-53.909,-98.356,57.640,11
-0.132,0.131,0.938,-53.420,-74.690,34.844,11
-0.137,0.202,1.051,-4.148,-76.992,10.251,11
-0.163,0.065,0.979,54.134,-56.204,20.855,11
-0.167,0.095,0.993,18.655,-53.111,12.254,11
-0.181,0.070,1.068,-50.068,-17.000,7.350,11
-0.226,0.080,1.020,-48.461,-0.923,15.950,11
-0.271,0.294,0.945,-11.341,25.260,14.707,11
-0.219,0.156,0.908,9.227,3.500,-3.772,11
-0.179,0.275,1.104,43.938,-10.167,17.470,11
-0.212,0.056,0.872,81.128,16.772,4.345,11
-0.219,0.134,0.918,18.690,-5.275,16.676,11
-0.179,0.020,1.081,-15.916,1.271,3.550,11
-0.211,0.026,1.013,3.360,34.503,-7.917,11
-0.171,-0.031,0.888,2.313,30.583,11.529,11
-0.159,-0.027,0.969,6.538,35.510,21.442,11
-0.166,0.068,0.915,2.348,40.618,37.227,11
-0.192,0.222,0.750,21.344,37.597,31.562,11
-0.206,0.313,0.886,-0.062,2.242,15.985,11
-0.205,0.198,1.182,-2.646,8.356,-4.256,11
-0.181,0.158,1.174,-3.379,16.736,-0.802,11
-0.157,0.065,1.058,5.595,25.548,-6.881,11
-0.155,0.059,0.925,-2.017,25.116,-0.146,11
-0.160,0.116,0.897,-2.890,21.412,1.547,11
-0.161,0.144,0.835,-2.995,5.982,-7.157,11
-0.157,0.093,0.973,-32.014,-1.355,-7.434,11
-0.146,0.020,1.077,-23.912,-2.470,-9.817,11
-0.132,-0.007,0.963,-9.875,4.076,-7.675,11
-0.132,0.030,0.923,-2.716,0.156,5.381,11
-0.124,0.132,0.954,-17.278,-9.340,3.412,11
-0.137,0.072,1.041,-3.379,1.378,5.139,11
-0.139,0.136,0.946,-2.611,4.508,4.206,11
-0.122,0.163,0.987,-19.757,0.551,5.035,11
-0.129,0.076,1.031,-28.592,6.558,8.386,11
-0.129,0.143,0.896,-35.995,11.809,2.756,11
-0.108,0.151,0.932,-64.350,2.745,-7.365,11
-0.112,0.107,1.028,-41.303,10.262,-6.190,11
-0.122,0.291,0.691,-16.405,22.670,-3.669,11
-0.137,0.204,0.920,22.636,-11.102,-7.952,11
-0.135,0.151,1.064,-2.995,-0.132,-14.998,11
-0.152,0.186,0.989,4.722,3.608,-10.508,11
-0.141,0.197,0.957,7.621,-0.923,-26.500,11
-0.138,0.034,1.048,68.242,3.069,-28.607,11
-0.144,0.187,0.987,83.397,10.370,-0.526,11
-0.118,0.060,0.868,61.991,4.076,-0.733,11
-0.141,0.156,0.994,5.560,-2.074,6.175,11
-0.134,0.086,1.003,-9.840,-4.628,-4.498,11
-0.118,0.075,1.098,14.674,-6.858,-15.896,11
-0.118,0.052,1.068,18.830,7.888,-8.573,11
-0.114,0.076,0.984,7.586,5.479,-7.261,11
-0.116,0.081,0.970,-7.570,10.010,-3.392,11
-0.109,0.077,0.929,-17.347,3.249,-6.363,11
-0.106,0.083,0.972,-16.405,3.788,-3.669,11
-0.090,0.077,1.012,-8.687,-1.319,-9.402,11
-0.102,0.085,0.965,-3.868,10.694,-4.394,11
-0.115,0.160,0.997,-14.170,7.421,-4.878,11
-0.121,0.149,0.969,-4.881,7.421,-3.634,11
-0.116,0.162,0.961,-12.668,3.177,0.338,11
-0.110,0.123,0.977,-9.840,-2.506,-5.154,11
-0.099,0.192,0.963,11.497,-0.528,-8.332,11
-0.107,0.117,0.954,0.567,1.702,-2.045,11
-0.099,0.092,1.017,-8.129,2.601,-3.358,11
-0.110,0.151,0.967,16.455,5.443,0.856,11
-0.119,0.223,1.006,6.573,6.630,-1.665,11
-0.115,0.035,0.943,17.189,0.084,-3.116,11
-0.108,0.103,1.014,11.566,-2.578,-1.665,11
-0.108,0.127,1.019,12.754,1.055,-5.948,11
-0.104,0.114,1.022,8.703,3.285,-5.603,11
-0.095,0.121,0.975,-3.903,10.838,-1.596,11
-0.095,0.069,0.985,-13.436,6.234,-1.389,11
-0.095,0.098,0.902,3.151,1.486,-0.042,11
-0.083,0.054,0.989,8.843,-3.585,-0.180,11
-0.090,0.110,0.953,7.132,-3.333,-1.389,11
-0.088,0.102,0.992,7.481,-4.772,-3.565,11
-0.094,0.130,0.979,5.316,0.947,-0.318,11
-0.092,0.103,0.946,7.621,-2.002,-3.047,11
-0.095,0.085,1.048,11.462,-3.009,5.070,11
-0.117,0.177,0.958,15.373,0.803,2.030,11
-0.094,0.012,0.992,34.055,-8.440,-6.363,11
-0.102,0.093,1.007,31.401,3.788,1.201,11
-0.100,0.062,1.044,19.878,-0.312,-0.456,11
-0.095,0.133,1.046,17.433,7.960,1.478,11
-0.423,-0.340,-1.017,-137.648,57.018,4.276,12
-0.408,-0.091,-0.992,-71.369,35.690,16.434,12
-0.421,-0.178,-1.015,-32.608,24.217,-0.629,12
-0.396,-0.183,-0.898,-53.106,35.151,0.511,12
-0.368,-0.022,-0.832,-100.283,36.589,15.881,12
-0.380,-0.135,-0.927,-91.902,33.532,6.728,12
-0.367,-0.287,-0.945,-44.376,34.072,-6.156,12
-0.391,-0.272,-0.882,-9.002,27.850,2.721,12
-0.386,-0.184,-0.916,-15.078,31.590,4.517,12
-0.425,-0.078,-1.075,-40.046,38.711,3.308,12
-0.447,-0.065,-0.995,-27.370,31.087,-0.077,12
-0.417,-0.221,-0.833,-56.039,16.053,4.276,12
-0.398,-0.249,-0.817,-57.960,20.189,5.968,12
-0.456,-0.282,-0.892,-42.665,23.102,8.628,12
-0.471,-0.248,-0.978,-19.757,13.391,3.343,12
-0.435,-0.334,-0.942,7.655,4.723,0.096,12
-0.451,-0.151,-0.925,-24.297,13.535,-0.146,12
-0.549,-0.449,-0.992,-14.240,7.349,-17.416,12
-0.470,-0.292,-0.866,-37.985,0.335,-8.746,12
-0.484,-0.330,-0.905,-30.687,4.831,-9.679,12
-0.475,-0.343,-0.883,-0.621,9.435,-12.062,12
-0.472,-0.320,-0.810,18.935,3.500,0.545,12
-0.511,-0.191,-0.935,62.760,4.328,-7.675,12
-0.567,-0.179,-1.042,79.137,-5.995,-10.991,12
-0.530,-0.069,-1.016,119.191,-19.446,-29.609,12
-0.504,-0.053,-1.011,190.812,-29.481,-45.497,12
-0.464,-0.131,-0.969,272.316,-51.816,-65.772,12
-0.422,-0.137,-0.838,408.016,-49.406,-58.588,12
-0.415,0.035,-0.803,461.968,-30.164,-48.986,12
-0.443,0.470,-0.887,465.250,-11.785,-59.728,12
-0.479,0.502,-0.908,425.371,-8.692,-74.235,12
-0.419,0.454,-0.867,348.512,-9.699,-81.004,12
-0.349,0.531,-0.609,287.855,-14.159,-60.591,12
-0.356,0.568,-0.689,273.782,3.321,-46.222,12
-0.277,0.966,-0.342,397.889,-4.232,-55.548,12
-0.340,0.680,-0.438,396.422,78.778,-75.789,12
-0.330,0.575,-0.624,367.264,59.176,-35.066,12
-0.325,0.824,-0.184,327.664,18.283,-4.394,12
-0.323,0.814,-0.119,170.139,28.389,11.356,12
-0.293,0.975,-0.031,170.244,13.715,4.690,12
-0.376,0.965,-0.149,181.314,19.721,2.410,12
-0.315,0.904,-0.103,166.368,-6.246,5.623,12
-0.307,0.978,-0.009,193.675,-5.275,7.073,12
-0.302,0.908,0.214,223.043,-8.620,5.243,12
-0.285,0.879,0.316,261.735,15.441,0.994,12
-0.333,0.901,0.038,259.849,27.238,4.379,12
-0.356,0.938,0.276,205.444,-5.491,2.272,12
-0.367,0.944,0.381,156.660,-8.980,-5.189,12
-0.333,0.803,0.572,141.260,-8.548,-5.810,12
-0.344,0.855,0.578,307.795,36.410,9.249,12
-0.350,0.869,0.445,312.020,33.424,1.858,12
-0.307,0.681,0.572,288.030,21.340,-4.325,12
-0.307,0.613,0.528,257.475,24.145,2.790,12
-0.295,0.620,0.648,164.517,2.961,-2.011,12
-0.334,0.635,0.698,100.648,4.759,-0.836,12
-0.336,0.568,0.884,108.016,7.097,-3.531,12
-0.355,0.593,0.777,143.286,20.836,-0.007,12
-0.322,0.520,0.840,142.273,16.053,-3.289,12
-0.322,0.490,0.877,140.248,27.526,1.271,12
-0.278,0.412,0.761,136.127,22.670,2.203,12
-0.251,0.376,0.760,120.692,14.111,0.476,12
-0.308,0.520,0.827,90.347,14.506,3.239,12
-0.289,0.298,1.031,109.483,15.513,-2.943,12
-0.297,0.404,0.895,137.698,29.360,7.004,12
-0.266,0.295,0.860,144.159,22.814,-0.871,12
-0.259,0.191,0.963,136.895,19.505,1.340,12
-0.244,0.236,0.812,97.016,10.838,-1.976,12
-0.271,0.187,0.935,59.442,8.931,1.271,12
-0.283,0.180,1.007,27.281,11.989,-2.943,12
-0.274,0.175,0.948,54.798,19.865,3.136,12
-0.263,0.149,0.882,59.023,7.852,-1.527,12
-0.293,0.114,1.006,63.388,10.586,3.792,12
-0.277,0.164,0.981,50.468,9.687,-5.707,12
-0.224,0.058,0.934,41.982,13.139,-1.562,12
-0.226,0.096,0.953,37.338,15.405,-0.422,12
-0.296,0.300,0.963,38.979,19.290,-1.665,12
-0.201,-0.024,0.953,19.284,2.170,-15.171,12
-0.214,-0.022,1.052,25.395,4.292,-1.942,12
-0.225,0.014,1.053,33.182,13.032,1.340,12
-0.218,-0.029,1.017,41.214,21.556,8.420,12
-0.224,0.156,0.787,36.080,15.549,4.794,12
-0.185,-0.058,0.871,11.566,0.875,-8.539,12
-0.222,0.074,0.995,5.246,2.637,-2.114,12
-0.204,-0.006,1.008,8.843,7.816,-2.909,12
-0.207,0.001,0.992,21.868,11.485,5.174,12
-0.221,0.094,0.899,37.233,11.845,5.105,12
-0.185,-0.002,0.924,25.360,4.543,-8.919,12
-0.235,-0.053,1.018,27.246,4.939,-2.805,12
-0.204,0.012,1.014,9.960,3.752,-8.746,12
-0.190,-0.073,1.037,30.004,12.528,7.488,12
-0.186,0.041,0.845,28.258,14.506,6.072,12
-0.215,0.014,0.892,17.014,1.127,-0.733,12
-0.219,-0.048,1.064,-10.503,-9.160,-14.963,12
-0.218,-0.147,1.140,-0.656,2.386,-6.259,12
-0.193,-0.112,1.015,14.011,12.348,0.234,12
-0.183,-0.158,0.988,28.223,17.959,7.177,12
-0.196,0.232,0.660,35.592,13.751,6.728,12
-0.185,-0.142,0.985,9.681,-5.563,-10.922,12
-0.201,-0.097,1.055,4.338,-5.707,-6.259,12
-0.196,-0.123,1.059,14.465,3.788,2.169,12
-0.190,-0.027,0.969,15.897,11.125,2.687,12
-0.173,-0.018,0.905,4.827,4.939,-4.187,12
-0.186,0.044,0.828,-0.027,-2.146,-13.547,12
-0.191,-0.045,0.959,-13.401,-7.793,-16.621,12
-0.212,-0.091,1.091,-14.519,-4.196,-13.720,12
-0.180,-0.131,0.996,-0.341,1.378,-8.263,12
-0.181,-0.063,0.969,7.935,2.170,-0.249,12
-0.195,-0.031,0.935,1.789,0.875,-4.118,12
-0.174,-0.158,1.020,-1.598,-2.326,-2.874,12
-0.229,0.104,0.967,-1.913,-1.463,-6.328,12
-0.193,-0.149,1.065,-14.728,-0.096,-6.812,12
-0.188,-0.105,1.013,5.700,5.407,-1.285,12
-0.185,-0.020,0.940,6.852,5.047,0.407,12
-0.164,-0.071,0.901,14.500,-0.780,-5.154,12
-0.187,-0.085,0.992,15.128,-1.067,-1.182,12
-0.200,0.017,0.928,1.335,-2.074,-1.182,12
-0.200,-0.078,1.005,-7.535,-3.081,-5.499,12
-0.207,-0.074,1.039,-2.332,2.170,-0.802,12
-0.200,-0.059,0.979,0.846,4.687,-0.077,12
-0.188,-0.023,0.907,2.033,2.565,-2.736,12
-0.193,-0.086,1.023,2.557,-1.859,-1.562,12
-0.192,-0.090,1.018,14.954,1.918,-0.077,12
-0.199,-0.061,1.015,19.843,5.155,4.725,12
-0.212,-0.015,1.022,30.214,11.989,5.243,12
-0.198,-0.139,1.026,40.271,17.923,6.555,12
-0.186,-0.064,0.922,40.620,18.678,8.179,12
-0.172,-0.139,0.949,30.877,13.391,3.688,12
-0.143,-0.217,0.980,12.090,7.277,0.200,12
-0.158,-0.151,1.011,9.227,8.823,3.585,12
-0.137,-0.116,0.936,5.805,5.874,-1.631,12
-0.132,-0.098,0.899,7.516,4.615,0.614,12
-0.162,-0.026,0.849,0.287,0.048,-2.045,12
-0.142,-0.170,0.969,-12.843,-10.059,-5.465,12
-0.184,-0.143,1.098,1.544,-5.527,-0.906,12
-0.186,-0.074,0.992,17.363,4.364,2.790,12
-0.181,-0.074,0.959,1.859,-0.024,-1.596,12
-0.202,0.005,0.905,-2.646,0.623,-8.124,12
-0.170,-0.111,0.948,-13.855,-2.758,-11.440,12
-0.176,-0.150,1.047,-7.989,-2.290,-4.498,12
-0.179,-0.182,1.043,-0.865,1.594,2.376,12
-0.174,-0.124,0.983,0.357,5.479,1.720,12
-0.176,-0.117,1.001,5.490,6.234,0.269,12
-0.172,-0.123,1.002,9.297,9.039,1.685,12
-0.156,-0.100,0.968,-2.646,3.321,0.476,12
-0.156,-0.113,0.924,10.903,7.924,5.968,12
-0.163,-0.040,0.917,-4.252,-2.470,-6.017,12
-0.156,-0.157,1.049,0.951,3.213,-0.146,12
-0.154,-0.148,0.994,13.452,9.579,3.654,12
-0.154,-0.129,0.936,22.217,11.269,6.072,12
-0.138,-0.138,0.921,21.170,7.169,5.277,12
-0.170,-0.018,0.848,14.570,1.810,2.307,12
-0.144,-0.153,0.984,-9.316,-8.548,-7.054,12
-0.152,-0.197,1.075,0.392,-0.816,-1.320,12
-0.137,-0.203,1.020,6.084,5.371,0.269,12
-0.148,-0.194,1.033,14.500,9.902,6.521,12
-0.175,-0.077,0.878,19.214,8.859,5.968,12
-0.154,-0.104,0.883,-7.954,-4.340,-3.703,12
-0.146,-0.210,1.054,-7.290,-3.837,1.789,12
-0.139,-0.155,0.982,0.636,-1.139,5.415,12
-0.131,-0.213,0.968,14.779,1.990,8.075,12
-0.179,0.009,0.880,32.309,5.479,11.529,12
-0.155,-0.127,0.955,5.246,-5.455,-1.700,12
-0.165,-0.162,1.022,0.602,-5.095,0.062,12
-0.175,-0.121,1.018,-5.719,0.407,1.098,12
-0.150,-0.247,1.031,4.652,6.486,5.933,12
-0.148,-0.103,0.905,18.760,11.269,7.937,12
-0.144,-0.127,0.896,13.871,4.184,2.514,12
-0.150,-0.184,0.983,-8.059,-3.801,-2.633,12
-0.153,-0.249,1.099,-13.122,2.745,2.410,12
-0.149,-0.172,1.021,-12.179,11.341,5.312,12
-0.122,-0.177,0.940,-6.033,9.938,2.203,12
-0.134,-0.108,0.912,-5.684,4.148,1.305,12
-0.145,-0.135,0.992,-13.751,0.048,-0.146,12
-0.143,-0.170,1.020,-9.455,3.285,-2.598,12
-0.146,-0.179,1.005,-0.900,6.378,0.649,12
-0.148,-0.119,0.951,4.722,7.133,1.858,12
-0.135,-0.126,0.927,2.557,2.745,0.234,12
-0.146,-0.107,0.953,10.763,0.515,0.027,12
-0.130,-0.191,0.990,-1.703,-2.146,-6.570,12
-0.134,-0.154,0.978,4.862,4.436,-1.355,12
-0.132,-0.164,0.948,0.113,7.960,-0.767,12
-0.134,-0.133,0.948,-5.056,3.105,-5.534,12
-0.110,-0.198,0.912,-17.592,1.019,-4.878,12
-0.119,-0.150,0.913,-10.992,-5.060,-3.427,12
-0.127,-0.145,1.019,-5.963,-5.347,-2.736,12
-0.116,-0.192,1.042,-1.948,-1.031,0.200,12
-0.137,-0.096,0.969,1.405,0.623,5.933,12
-0.135,-0.148,0.952,3.989,-2.506,6.037,12
-0.147,-0.135,0.998,5.316,-5.671,5.001,12
-0.153,-0.163,0.970,8.878,-4.412,4.690,12
-0.154,-0.130,0.977,6.468,-3.441,6.901,12
-0.161,-0.170,1.014,2.557,2.314,6.106,12
-0.157,-0.122,0.963,1.265,4.975,7.177,12
-0.152,-0.129,0.925,-11.236,2.889,0.856,12
-0.123,-0.160,0.915,-10.084,-6.822,-1.562,12
-0.131,-0.160,1.008,-13.960,-4.808,-0.940,12
-0.128,-0.169,0.979,-10.084,1.199,3.170,12
-0.133,-0.107,0.924,-9.106,1.199,4.794,12
-0.146,-0.128,0.981,-27.300,-1.930,-0.215,12
-0.122,-0.161,0.959,-14.484,-0.420,2.652,12
-0.120,0.521,-1.054,-355.690,162.472,102.094,13
-0.138,0.398,-1.060,-257.948,118.269,45.551,13
-0.134,0.232,-0.787,-197.361,99.459,22.789,13
-0.228,0.189,-0.905,-150.498,117.046,32.322,13
-0.311,0.318,-1.087,-129.895,112.442,19.404,13
-0.389,0.205,-1.108,-138.276,97.373,16.296,13
-0.440,-0.015,-1.151,-163.000,84.353,33.669,13
-0.385,0.074,-1.198,-156.190,75.433,45.689,13
-0.329,-0.004,-1.118,-90.820,30.080,17.677,13
-0.335,-0.101,-0.934,-49.230,34.827,16.261,13
-0.307,0.101,-0.946,4.163,17.635,3.274,13
-0.378,0.012,-1.107,42.296,-5.419,-14.376,13
-0.380,-0.083,-0.849,14.116,-28.438,-2.425,13
-0.332,0.116,-0.985,-4.986,-11.605,-3.358,13
-0.392,-0.106,-0.982,13.208,-4.592,-6.674,13
-0.348,0.069,-0.980,10.414,2.853,-2.909,13
-0.295,-0.032,-0.868,26.512,-6.642,-12.960,13
-0.317,-0.035,-0.862,54.414,4.508,-6.812,13
-0.395,0.023,-1.014,47.011,10.118,-3.323,13
-0.347,0.187,-0.982,26.408,4.939,-4.152,13
-0.357,0.134,-1.030,41.249,-8.800,-12.097,13
-0.330,0.183,-0.963,85.318,-13.476,-13.064,13
-0.320,0.164,-0.974,141.819,-23.043,-22.390,13
-0.317,0.274,-0.997,192.383,-47.356,-42.596,13
-0.267,0.169,-0.860,204.675,-46.313,-45.324,13
-0.221,0.334,-0.895,231.494,-33.185,-37.415,13
-0.279,0.404,-0.885,272.770,-29.013,-37.622,13
-0.268,0.436,-0.835,324.731,-16.029,-17.381,13
-0.286,0.815,-0.785,282.652,-14.806,-27.743,13
-0.310,0.584,-0.764,211.380,-3.693,-49.573,13
-0.196,0.404,-0.748,182.955,-26.064,-35.619,13
-0.140,0.697,-0.544,243.646,-26.459,-8.988,13
-0.577,2.970,-0.598,-144.352,-71.741,-46.499,13
-0.176,-0.375,-0.560,109.273,-43.436,-120.311,13
-0.136,0.901,-0.543,160.466,-75.553,-10.335,13
-0.099,0.752,-0.516,120.972,-43.148,-36.689,13
-0.078,0.717,-0.427,127.921,-55.520,-25.498,13
-0.033,0.781,-0.424,127.397,-32.322,-11.855,13
-0.004,0.780,-0.327,239.945,-24.266,-21.871,13
-0.152,0.535,-0.338,291.731,-8.908,1.996,13
-0.098,1.191,-0.236,256.427,-45.737,-6.708,13
-0.019,1.122,-0.004,263.446,-25.920,-18.038,13
-0.008,1.050,-0.004,333.741,-24.661,-11.199,13
-0.053,1.020,-0.046,315.093,-14.051,1.650,13
-0.060,0.879,-0.011,315.023,-25.524,1.927,13
-0.067,0.772,-0.096,251.364,-50.017,31.044,13
-0.066,0.872,0.234,208.586,-63.721,34.429,13
-0.096,0.983,0.516,133.857,-56.743,23.376,13
-0.080,0.966,0.482,177.123,-17.360,16.192,13
-0.113,0.965,0.614,256.078,-0.816,16.883,13
-0.134,0.905,0.632,268.719,-0.600,10.009,13
-0.136,0.873,0.509,280.976,8.464,-9.299,13
-0.111,0.763,0.662,289.951,6.809,-6.190,13
-0.077,0.606,0.578,248.395,2.601,0.407,13
-0.071,0.584,0.697,198.215,-3.909,7.902,13
-0.082,0.536,0.991,299.589,5.946,14.845,13
-0.107,0.500,1.038,517.665,42.272,12.980,13
-0.130,0.324,1.143,758.894,68.312,11.494,13
-0.076,0.202,0.958,743.460,76.692,25.552,13
-0.012,0.090,0.847,384.584,55.939,26.001,13
0.009,-0.071,0.796,190.079,18.426,4.034,13
-0.015,-0.137,0.869,41.738,-6.606,-16.863,13
-0.023,-0.224,0.939,37.477,-3.333,-17.588,13
-0.052,-0.186,1.012,15.862,-11.138,-19.212,13
-0.048,-0.298,1.014,25.360,-0.168,-12.891,13
-0.054,-0.241,1.001,22.846,4.436,-10.991,13
-0.045,-0.209,0.916,34.754,5.551,-12.511,13
-0.047,-0.052,0.740,13.417,0.048,-19.143,13
-0.035,-0.218,0.860,-23.389,-15.130,-35.169,13
-0.066,-0.280,1.072,-49.020,-19.446,-27.122,13
-0.056,-0.425,1.039,5.595,-1.823,-11.406,13
-0.051,-0.306,1.003,-1.598,-8.404,-6.397,13
-0.043,-0.178,0.917,-37.287,-17.540,-13.064,13
-0.071,-0.218,0.970,-46.017,-10.311,-14.722,13
-0.071,-0.089,0.877,-78.213,-6.606,-20.179,13
-0.076,-0.132,0.963,-115.613,-17.144,-29.332,13
-0.106,-0.179,1.047,-77.794,-16.713,-13.478,13
-0.126,-0.133,1.064,-1.075,-16.677,-8.366,13
-0.127,-0.119,0.971,20.506,-16.281,-4.187,13
-0.139,-0.077,0.992,8.947,-20.561,-4.360,13
-0.125,-0.122,0.959,4.548,-13.584,-10.957,13
-0.129,-0.104,0.977,-27.474,-11.677,-11.371,13
-0.152,-0.102,1.090,-41.861,-2.434,-14.480,13
-0.110,-0.252,1.027,22.846,8.140,-8.401,13
-0.119,-0.120,0.951,55.147,4.687,-0.906,13
-0.109,-0.150,0.924,40.026,-0.528,-3.116,13
-0.117,-0.132,1.002,15.966,-1.607,-2.149,13
-0.125,-0.124,0.994,-5.929,-4.700,-8.332,13
-0.115,-0.178,0.966,-9.490,3.285,-9.921,13
-0.139,-0.082,0.988,-22.690,1.342,-13.133,13
-0.131,-0.155,1.030,-31.176,-2.830,-17.209,13
-0.145,-0.159,1.037,-4.043,-0.672,-7.468,13
-0.147,-0.102,0.990,21.239,-3.009,-4.014,13
-0.151,-0.122,1.000,-4.078,-6.246,-6.363,13
-0.161,-0.139,1.040,-32.747,-6.318,-8.194,13
-0.152,-0.070,1.002,-54.223,0.587,-7.226,13
-0.111,-0.092,0.877,-73.150,4.723,-13.893,13
-0.119,-0.083,0.908,-62.255,2.421,-9.886,13
-0.124,-0.018,0.923,-66.585,1.882,-8.021,13
-0.112,0.018,0.898,-82.474,-3.441,-10.300,13
-0.120,-0.045,1.104,-56.982,1.235,-4.463,13
-0.106,-0.029,0.992,-22.411,5.982,-0.906,13
-0.130,0.170,0.926,-20.979,4.975,-1.285,13
-0.100,0.001,1.022,-13.611,-4.736,-6.777,13
-0.101,-0.031,1.065,2.103,-0.708,0.580,13
-0.155,0.086,1.065,10.833,6.234,5.692,13
-0.161,0.146,0.920,2.417,6.522,-0.698,13
-0.131,-0.008,0.972,2.557,-0.060,-7.848,13
-0.118,-0.042,1.087,3.744,4.112,-1.424,13
-0.107,-0.028,0.989,8.563,8.536,3.239,13
-0.151,0.103,0.857,7.201,8.068,2.894,13
-0.119,0.021,0.932,6.608,4.076,-4.912,13
-0.097,-0.028,0.951,9.436,0.731,-1.942,13
-0.102,0.014,0.983,7.865,0.048,-1.527,13
-0.106,0.007,0.955,11.811,1.954,-0.456,13
-0.098,-0.042,0.977,16.805,1.558,0.614,13
-0.106,-0.006,0.983,19.109,1.558,0.752,13
-0.130,0.017,1.017,16.979,0.983,3.170,13
-0.136,0.015,1.023,-1.738,-2.110,-3.807,13
-0.122,0.006,1.051,-12.738,-6.678,-5.845,13
-0.138,0.025,1.100,-7.640,-0.636,-3.565,13
-0.124,-0.010,1.046,2.382,8.608,-3.254,13
-0.123,-0.001,0.998,7.725,10.514,-3.427,13
-0.135,0.004,0.993,-1.703,10.010,-3.220,13
-0.132,0.034,0.969,-9.351,10.622,-4.083,13
-0.109,0.005,0.962,-3.659,11.377,-4.049,13
-0.113,0.001,0.940,3.919,13.175,-2.494,13
-0.100,0.032,0.848,-1.179,6.018,-3.461,13
-0.095,0.044,0.956,-9.805,-3.585,-5.465,13
-0.083,-0.010,1.068,-10.189,0.695,-5.914,13
-0.092,0.038,0.999,-0.725,10.298,-7.330,13
-0.096,0.052,0.967,-14.728,1.954,-10.577,13
-0.090,-0.021,1.006,-28.871,-4.484,-12.027,13
-0.105,0.020,1.097,-24.925,1.414,-9.851,13
-0.097,0.039,0.990,-15.846,5.371,-6.397,13
-0.100,0.043,1.063,-14.973,4.939,-6.052,13
-0.095,0.062,0.980,-5.719,9.759,-15.205,13
-0.101,0.105,0.959,-3.624,13.967,-27.018,13
-0.100,0.076,1.018,-1.459,15.369,-47.362,13
-0.125,0.017,0.881,-8.548,11.305,-56.135,13
-0.079,0.058,0.897,-56.284,-3.189,-39.107,13
-0.047,0.139,1.122,-112.261,-42.500,-23.737,13
-0.068,0.074,0.882,-84.918,-9.232,-17.070,13
-0.079,0.165,0.897,-85.128,-15.238,-18.038,13
-0.089,0.199,0.891,-82.020,-19.698,-16.863,13
-0.099,0.169,0.997,-78.178,-23.582,-11.268,13
-0.097,0.231,1.064,-25.938,-16.497,-11.820,13
-0.108,0.199,1.054,31.541,-0.959,-6.777,13
-0.114,0.240,0.909,44.985,5.047,-4.325,13
-0.126,0.279,0.945,28.189,-3.981,-5.465,13
-0.122,0.198,1.001,7.306,-6.750,-7.434,13
-0.118,0.160,1.003,18.201,-1.930,-3.392,13
-0.107,0.218,0.953,22.147,-1.823,-10.059,13
-0.102,0.185,0.982,27.350,-0.851,-8.021,13
-0.109,0.170,0.955,31.366,2.206,-9.713,13
-0.099,0.133,0.969,33.776,1.450,-8.159,13
-0.106,0.160,0.940,38.176,5.371,-2.425,13
-0.097,0.116,0.944,28.538,0.228,-4.878,13
-0.093,0.103,0.981,19.284,-0.851,-6.950,13
-0.106,0.122,1.023,16.071,0.839,-3.427,13
-0.112,0.111,0.986,14.430,1.702,-2.391,13
-0.097,0.026,0.940,28.573,2.745,-7.710,13
-0.102,0.150,0.921,15.303,-3.009,-3.358,13
-0.100,0.050,1.069,-2.402,-8.620,-1.147,13
-0.131,0.068,1.169,24.906,4.687,3.343,13
-0.126,0.141,0.940,31.506,13.535,4.863,13
-0.121,0.108,0.950,3.954,2.637,-0.871,13
-0.101,0.026,1.020,-1.319,0.623,-2.184,13
-0.107,0.087,0.967,4.652,7.385,1.650,13
-0.089,0.088,0.930,19.668,9.039,-0.284,13
-0.095,0.191,0.856,18.795,4.975,-0.387,13
-0.089,0.094,0.969,-2.646,-4.052,-1.700,13
-0.090,0.047,0.975,-9.525,-5.275,-2.909,13
-0.084,0.039,0.985,-7.256,-2.290,0.580,13
-0.091,0.074,1.011,11.252,0.120,1.685,13
-0.095,0.075,0.974,19.249,3.033,3.032,13
-0.102,0.114,0.916,5.770,-3.873,-1.285,13
-0.109,0.067,1.088,-2.960,-6.103,-1.078,13
-0.111,0.075,1.032,-8.443,-0.096,0.062,13
-0.099,0.027,1.010,-6.941,-0.708,2.099,13
-0.111,0.077,1.010,-2.821,2.673,2.721,13
-0.106,0.080,0.969,1.929,4.364,3.101,13
-0.104,0.110,0.955,3.290,2.278,-0.111,13
-0.101,0.081,0.988,-0.970,-0.096,0.027,13
-0.111,0.160,0.942,-0.062,1.450,-0.318,13
-0.100,0.091,0.934,-4.776,-2.362,-1.182,13
-0.102,0.073,1.073,-4.636,-4.736,-2.494,13
-0.104,0.051,1.008,-1.144,-0.024,-0.353,13
-0.109,0.079,0.981,-1.075,0.515,0.027,13
-0.110,0.068,1.051,4.617,1.414,1.167,13
-0.106,0.041,1.008,9.122,5.119,2.790,13
-0.114,0.139,0.911,4.024,2.781,2.272,13
-0.113,0.092,0.995,-13.192,-5.815,-1.251,13
-0.116,0.028,1.092,-19.722,-2.146,1.132,13
-0.113,0.058,1.063,-4.043,5.587,3.343,13
-0.107,0.120,0.997,-5.160,6.630,0.303,13
-0.095,0.096,0.946,-1.773,7.241,-0.906,13
-0.087,0.107,0.918,-5.719,3.141,-1.078,13
-0.087,0.106,0.944,0.951,1.414,-1.113,13
-0.080,0.080,0.959,5.770,0.443,-1.251,13
-0.314,0.971,0.442,-1045.224,-37.717,148.792,14
-0.519,2.110,0.325,-1146.668,12.960,143.162,14
-0.370,1.553,-0.688,-1145.655,-53.218,21.960,14
0.024,0.718,0.064,-523.621,-90.444,-13.996,14
-0.037,0.506,-0.276,-286.687,-50.773,-6.363,14
-0.037,0.594,-0.293,-142.397,8.140,11.633,14
-0.176,0.616,-0.516,-99.445,26.483,1.547,14
-0.253,0.660,-0.673,-93.683,28.821,1.892,14
-0.257,0.679,-0.760,-111.492,25.836,10.907,14
-0.256,0.714,-0.726,-110.026,20.548,12.911,14
-0.312,0.496,-0.852,-108.175,9.327,14.430,14
-0.253,0.557,-0.771,-129.930,18.319,15.881,14
-0.316,0.533,-0.924,-146.832,23.785,11.771,14
-0.268,0.754,-1.111,-184.371,12.528,-12.097,14
-0.253,0.527,-0.911,-161.987,17.743,-4.981,14
-0.208,0.190,-0.601,-160.730,27.706,-9.092,14
-0.239,0.224,-0.744,-97.070,43.495,8.040,14
-0.378,0.277,-1.080,-50.696,33.676,11.633,14
-0.346,0.335,-0.911,-37.950,15.082,14.776,14
-0.273,0.296,-0.777,-45.039,18.822,10.424,14
-0.287,0.333,-0.809,-49.125,24.936,10.113,14
-0.344,0.264,-0.987,-38.404,20.800,2.238,14
-0.350,0.084,-1.023,-17.487,5.802,5.623,14
-0.307,0.295,-0.906,-34.389,5.910,14.569,14
-0.397,0.254,-1.047,-7.325,7.709,7.108,14
-0.330,0.243,-0.963,-25.798,12.924,12.842,14
-0.341,0.304,-0.920,-14.624,6.342,6.624,14
-0.351,0.231,-0.944,-13.052,5.551,5.795,14
-0.330,0.159,-0.837,-3.449,-5.455,-2.771,14
-0.287,0.176,-0.805,-13.541,9.075,6.313,14
-0.346,0.193,-0.922,-5.230,13.355,7.522,14
-0.358,0.213,-0.934,-8.932,-0.851,0.269,14
-0.351,0.217,-0.949,-4.392,-0.060,-0.042,14
-0.366,0.163,-0.936,-13.716,4.579,6.728,14
-0.326,0.227,-0.907,-31.281,-1.715,9.871,14
-0.358,0.172,-0.940,-24.436,-2.722,2.549,14
-0.324,0.190,-0.880,-21.957,-4.340,3.965,14
-0.306,0.211,-0.873,-12.179,-0.995,-2.805,14
-0.318,0.082,-0.889,6.852,3.536,-7.917,14
-0.329,0.157,-0.879,10.414,12.960,-3.841,14
-0.350,0.266,-0.927,5.630,6.737,-8.643,14
-0.419,0.170,-1.082,5.316,12.168,-5.741,14
-0.374,0.323,-0.962,-4.113,1.127,-3.151,14
-0.384,0.273,-0.989,5.840,-4.772,-7.883,14
-0.330,0.116,-0.895,20.262,-12.648,-10.853,14
-0.314,0.123,-0.878,14.884,0.551,-3.772,14
-0.351,0.252,-0.961,24.801,3.968,-8.124,14
-0.368,0.241,-0.977,36.953,-5.851,-12.235,14
-0.401,0.258,-1.065,67.648,-18.331,-15.620,14
-0.420,0.293,-1.136,100.927,-50.665,-14.273,14
-0.341,0.288,-0.945,135.498,-71.741,-18.694,14
-0.265,0.264,-0.855,160.362,-65.231,-14.722,14
-0.194,0.351,-0.802,147.232,-31.099,-19.385,14
-0.185,0.292,-0.712,171.292,-21.460,-17.727,14
-0.191,0.346,-0.750,208.901,-9.483,-18.141,14
-0.253,0.600,-0.778,222.415,5.299,-12.511,14
-0.320,0.777,-0.834,216.513,1.990,-22.528,14
-0.290,0.700,-0.798,194.129,-4.340,-36.240,14
-0.232,0.520,-0.716,140.911,-10.490,-22.631,14
-0.194,0.680,-0.529,167.625,-2.218,-13.720,14
-0.210,0.667,-0.618,154.041,6.953,-12.684,14
-0.189,0.802,-0.491,181.349,4.184,-3.876,14
-0.238,0.910,-0.476,197.901,17.240,-8.608,14
-0.247,0.839,-0.472,224.580,19.973,-9.748,14
-0.228,0.812,-0.479,173.980,13.607,2.756,14
-0.216,0.844,-0.355,198.529,12.276,11.391,14
-0.213,0.927,-0.303,179.079,15.261,11.253,14
-0.227,0.884,-0.286,167.974,15.225,13.256,14
-0.234,0.942,-0.161,194.129,17.923,14.845,14
-0.264,0.992,-0.173,183.095,20.800,14.534,14
-0.305,1.047,-0.120,187.390,12.240,8.489,14
-0.294,1.031,-0.052,155.822,4.543,8.697,14
-0.292,1.003,0.082,160.781,3.896,12.945,14
-0.272,0.952,0.032,117.794,8.464,12.082,14
-0.246,0.913,0.109,130.924,6.809,9.353,14
-0.236,0.888,0.206,181.139,12.960,9.111,14
-0.273,0.950,0.174,186.517,21.304,9.215,14
-0.306,0.983,0.177,148.070,13.103,5.208,14
-0.285,0.971,0.335,108.784,3.716,-0.940,14
-0.260,0.904,0.332,109.308,6.054,-1.285,14
-0.261,0.890,0.316,110.356,14.866,3.205,14
-0.265,0.917,0.354,109.099,7.565,3.239,14
-0.265,0.878,0.398,117.340,6.054,1.029,14
-0.272,0.902,0.480,139.759,3.536,-3.911,14
-0.284,0.864,0.526,127.048,10.838,-4.498,14
-0.279,0.811,0.478,92.267,7.313,-1.216,14
-0.280,0.831,0.467,97.121,5.658,-4.636,14
-0.264,0.785,0.560,102.115,7.169,-0.836,14
-0.248,0.796,0.613,188.158,23.066,2.859,14
-0.256,0.750,0.654,220.389,18.678,1.029,14
-0.235,0.672,0.629,191.790,15.477,1.685,14
-0.243,0.639,0.616,151.841,14.111,3.205,14
-0.223,0.596,0.667,100.089,0.048,-0.318,14
-0.236,0.604,0.808,151.632,11.377,7.971,14
-0.235,0.554,0.841,138.502,5.946,3.205,14
-0.185,0.507,0.923,273.084,30.979,15.501,14
-0.240,0.442,0.982,291.068,26.591,14.707,14
-0.241,0.359,0.963,279.894,39.359,16.019,14
-0.278,0.481,0.791,253.214,42.848,15.018,14
-0.202,0.182,0.923,145.870,12.960,-3.254,14
-0.227,0.190,0.974,104.315,15.333,2.341,14
-0.235,0.243,0.885,78.509,11.377,-0.387,14
-0.190,0.081,0.936,92.512,11.593,-1.182,14
-0.221,0.144,0.968,92.267,14.542,3.101,14
-0.215,0.138,0.882,70.163,8.212,3.170,14
-0.177,-0.043,0.987,66.810,2.314,2.790,14
-0.192,0.105,0.910,57.522,-0.600,5.933,14
-0.191,0.101,0.872,34.090,-8.944,5.070,14
-0.203,0.064,0.904,6.678,-18.727,-1.320,14
-0.194,0.017,0.996,-11.236,-20.957,-2.045,14
-0.280,-0.053,1.205,6.852,-13.440,5.001,14
-0.216,0.021,0.963,58.569,-4.232,18.472,14
-0.255,-0.036,1.064,70.267,-7.146,11.564,14
-0.250,0.023,1.020,76.937,-3.477,10.596,14
-0.260,-0.007,1.038,82.524,-3.477,11.011,14
-0.255,-0.024,1.152,49.699,1.019,0.891,14
-0.238,-0.137,0.994,53.017,15.010,4.932,14
-0.185,-0.046,0.809,58.988,18.642,6.762,14
-0.242,-0.111,0.996,43.484,17.347,-0.698,14
-0.139,-0.178,0.823,34.544,10.802,-3.531,14
-0.163,-0.150,0.842,44.496,4.939,1.478,14
-0.160,-0.205,0.898,30.912,-0.923,4.379,14
-0.176,-0.115,0.891,38.280,1.882,10.838,14
-0.213,-0.032,0.882,48.337,-7.829,1.478,14
-0.194,-0.270,1.047,59.896,-7.865,-4.049,14
-0.205,-0.338,1.096,62.794,1.990,6.728,14
-0.190,-0.270,1.000,46.801,11.161,9.871,14
-0.210,-0.308,1.040,29.830,10.226,10.562,14
-0.223,-0.193,0.961,46.103,14.758,13.221,14
-0.211,-0.128,0.851,49.071,13.571,2.514,14
-0.191,-0.292,0.972,18.935,15.981,-5.914,14
-0.178,-0.262,0.905,9.192,20.944,-1.493,14
-0.166,-0.282,0.883,6.957,16.161,-3.461,14
-0.184,-0.386,1.001,-21.328,19.685,-0.560,14
-0.163,-0.181,0.835,-23.354,21.304,7.419,14
-0.214,-0.108,0.948,-2.925,15.369,-6.674,14
-0.148,-0.311,0.988,-7.395,12.600,-8.539,14
-0.116,-0.344,0.970,-25.135,14.938,1.271,14
-0.109,-0.268,0.923,-28.522,11.881,6.279,14
-0.094,-0.277,0.822,-52.757,-0.024,1.512,14
-0.147,-0.154,0.925,-70.566,-4.124,-7.192,14
-0.160,-0.112,0.911,-119.524,-8.656,-21.837,14
-0.149,-0.225,1.004,-121.968,-11.893,-20.421,14
-0.193,-0.198,1.096,-88.794,-3.909,-9.472,14
-0.179,-0.055,0.940,-63.826,1.486,-5.638,14
-0.150,-0.096,0.988,-71.160,-6.103,-12.097,14
-0.126,0.037,0.901,-87.607,4.579,-20.144,14
-0.212,-0.110,1.136,-61.277,-6.966,-18.487,14
-0.178,0.029,0.953,-4.113,8.608,-10.611,14
-0.190,0.055,1.012,13.871,4.184,-8.919,14
-0.166,-0.031,0.914,15.652,3.393,-7.157,14
-0.169,-0.011,0.999,-3.344,-6.822,-18.521,14
-0.148,-0.073,1.045,-4.008,12.780,-10.024,14
-0.215,-0.012,1.006,6.294,19.505,-3.047,14
-0.209,0.315,0.820,-35.436,6.989,-25.395,14
-0.098,-0.144,1.075,-74.861,-4.196,-29.781,14
-0.090,-0.023,1.030,-100.737,5.515,-28.883,14
-0.115,0.034,0.957,-128.499,5.227,-44.150,14
-0.333,-0.036,1.225,-46.331,13.571,-27.881,14
