ACC-X,ACC-Y,ACC-Z,GYRO-X,GYRO-Y,GYRO-Z,TEST
-0.652,0.153,-1.290,219.062,-531.642,-72.715,1
-1.110,-0.042,-0.857,347.255,-719.063,-157.615,1
-1.568,0.284,-1.267,122.473,-662.739,-237.161,1
-2.429,-0.288,-0.681,50.049,-708.093,-280.544,1
-2.873,-1.460,0.794,-185.244,-672.918,-269.077,1
-2.998,-2.449,5.262,65.833,-572.068,-63.216,1
-1.739,-0.423,1.520,26.128,-57.606,15.328,1
-1.067,-0.349,0.493,-39.941,-93.105,-26.776,1
-0.776,-0.090,-0.725,-140.232,-70.266,-40.938,1
-0.926,-0.091,-0.400,-154.095,-134.502,-23.978,1
-1.173,0.106,0.455,-105.626,-122.382,-18.521,1
-1.163,-0.067,0.653,-68.610,-60.160,-42.837,1
-0.945,-0.535,0.437,-64.071,-1.607,-43.563,1
-0.867,-0.521,0.131,-45.144,17.959,-3.254,1
-0.807,-0.271,-0.198,26.722,22.239,24.378,1
-0.906,0.049,-0.026,28.223,3.393,24.654,1
-1.059,0.089,0.195,17.433,7.385,0.269,1
-1.047,-0.205,0.187,4.652,23.030,-20.490,1
-1.006,-0.360,0.051,-2.192,37.057,-14.376,1
-0.978,-0.285,-0.099,3.186,30.151,2.549,1
-0.995,-0.244,-0.064,2.941,19.074,0.752,1
-1.048,-0.262,0.102,9.332,17.635,-3.012,1
-1.019,-0.229,0.091,10.274,25.656,-2.184,1
-0.990,-0.260,0.019,2.871,30.008,-3.945,1
-0.958,-0.400,-0.002,-5.335,22.563,0.407,1
-0.980,-0.206,-0.011,-12.179,15.154,10.182,1
-1.052,-0.063,0.133,-12.633,13.283,1.858,1
-1.114,-0.125,0.326,-16.998,22.383,-11.578,1
-1.092,-0.314,0.365,-8.443,45.869,-11.268,1
-1.032,-0.257,0.155,-16.195,61.083,-7.952,1
-0.975,-0.280,-0.035,-4.846,50.077,-0.318,1
-0.959,-0.145,-0.014,6.782,37.165,-0.007,1
-1.002,-0.113,0.161,12.439,27.886,-8.021,1
-1.024,-0.150,0.323,3.360,32.849,-18.417,1
-1.017,-0.348,0.369,6.957,55.040,-13.478,1
-0.947,-0.354,0.241,-5.649,70.218,-2.045,1
-0.907,-0.196,0.032,-9.700,69.894,1.236,1
-0.913,0.046,0.041,-11.725,56.515,-6.985,1
-0.955,-0.138,0.355,-16.824,45.221,-26.293,1
-0.957,-0.317,0.483,-25.205,62.305,-25.153,1
-0.934,-0.320,0.429,-23.773,80.864,-1.700,1
-0.918,-0.132,0.143,-24.122,88.561,4.379,1
-0.872,-0.164,0.097,-35.122,67.377,-7.537,1
-0.894,-0.095,0.238,-32.712,48.746,-14.100,1
-0.931,-0.229,0.429,-27.160,51.480,-17.278,1
-0.968,-0.200,0.560,-2.821,65.938,-3.254,1
-0.956,-0.155,0.493,-4.043,80.828,-3.807,1
-0.904,-0.135,0.331,-8.897,86.043,-6.777,1
-0.828,-0.265,0.218,-19.547,69.247,-9.541,1
-0.810,-0.141,0.272,-4.357,54.681,5.415,1
-0.861,-0.089,0.447,-7.884,45.761,4.690,1
-0.919,-0.017,0.647,-12.528,47.523,-4.256,1
-0.945,-0.036,0.687,-20.246,60.471,-20.075,1
-0.889,-0.224,0.533,-6.836,76.188,-19.730,1
-0.802,-0.299,0.349,3.221,64.751,-8.090,1
-0.765,-0.129,0.374,-22.551,56.515,-3.945,1
-0.821,-0.123,0.653,-39.801,43.783,-8.263,1
-0.860,-0.062,0.801,-42.001,56.767,-9.161,1
-0.862,-0.019,0.757,-40.430,74.498,-18.038,1
-0.751,-0.263,0.417,-0.900,85.108,-11.095,1
-0.694,-0.144,0.401,7.097,63.348,6.348,1
-0.721,-0.011,0.503,1.929,44.934,8.110,1
-0.758,0.003,0.732,-3.973,42.776,-1.596,1
-0.776,-0.027,0.875,-5.684,53.566,-8.504,1
-0.774,-0.075,0.802,-1.389,74.678,-3.738,1
-0.700,-0.136,0.582,-0.621,78.023,-4.498,1
-0.649,-0.158,0.523,-15.427,58.961,0.027,1
-0.676,-0.023,0.704,-18.186,45.401,2.618,1
-0.718,0.063,0.899,-17.871,50.365,-3.047,1
-0.728,-0.068,0.968,-15.497,69.139,-11.924,1
-0.667,-0.165,0.752,0.427,82.267,-6.536,1
-0.605,-0.101,0.590,8.494,69.103,4.103,1
-0.609,0.055,0.691,8.214,51.839,2.065,1
-0.621,-0.014,0.903,-4.427,45.725,-10.335,1
-0.647,-0.097,1.038,-14.135,55.975,-16.690,1
-0.634,-0.175,1.019,-1.040,72.987,-1.493,1
-0.593,-0.054,0.857,10.728,88.201,4.034,1
-0.535,-0.020,0.725,14.989,85.468,-0.491,1
-0.504,0.017,0.826,14.535,80.324,-11.993,1
-0.513,-0.028,0.869,22.462,79.569,-24.704,1
-0.477,-0.073,0.910,-2.157,71.333,-9.782,1
-0.450,-0.124,0.968,-8.757,83.094,-3.600,1
-0.415,-0.037,0.848,-6.243,99.459,7.660,1
-0.364,0.105,0.752,0.776,96.365,-5.016,1
-0.341,0.069,0.675,-19.652,73.167,-13.444,1
-0.336,-0.009,0.892,-36.344,46.552,-21.422,1
-0.352,-0.059,1.003,-49.823,57.702,-19.074,1
-0.318,-0.067,0.945,-29.884,69.463,-14.791,1
-0.283,0.022,0.827,-6.906,72.772,-7.434,1
-0.267,0.156,0.694,-3.205,49.358,-11.199,1
-0.265,0.048,0.786,-15.497,18.462,-20.455,1
-0.284,-0.096,1.140,-32.992,6.054,-20.317,1
-0.298,-0.125,1.190,5.770,36.338,-6.536,1
-0.265,-0.035,0.999,30.808,53.458,1.098,1
-0.206,0.003,0.773,35.557,59.104,7.730,1
-0.188,0.216,0.693,19.947,33.460,1.478,1
-0.211,0.005,0.935,-8.967,5.587,-16.000,1
-0.227,-0.160,1.180,-14.903,9.075,-4.636,1
-0.222,-0.131,1.186,-2.506,35.403,4.552,1
-0.191,-0.073,0.983,24.941,50.688,11.736,1
-0.184,0.074,0.821,22.357,43.099,13.601,1
-0.146,0.227,0.736,0.392,11.629,-3.358,1
-0.158,-0.138,0.976,-17.138,-7.361,-2.909,1
-0.179,-0.103,1.139,-0.062,1.235,2.756,1
-0.190,0.018,1.024,9.017,15.154,10.735,1
-0.166,0.004,0.962,11.776,17.779,1.892,1
-0.173,0.046,0.879,6.782,16.161,2.376,1
-0.165,0.057,0.945,3.221,1.594,-7.261,1
-0.182,-0.038,1.050,-5.125,-0.132,-2.978,1
-0.190,-0.007,1.075,-1.389,7.457,-4.878,1
-0.168,-0.031,1.034,4.862,16.628,-0.733,1
-0.151,-0.006,0.931,12.509,20.800,-2.011,1
-0.153,-0.007,0.969,17.433,17.024,-8.021,1
-0.135,-0.042,0.980,10.449,21.340,-9.022,1
-0.129,0.015,0.900,32.484,9.363,4.828,1
-0.133,0.022,0.971,6.992,9.795,-1.424,1
-0.123,-0.070,0.958,3.814,13.139,1.340,1
-0.140,-0.067,1.040,9.646,12.060,-1.009,1
-0.124,-0.028,0.983,13.033,21.987,0.096,1
-0.125,-0.095,1.011,2.767,18.714,-7.295,1
-0.103,-0.095,1.007,-0.516,19.937,8.179,1
-0.083,-0.019,0.881,3.989,18.966,8.386,1
-0.101,-0.020,0.945,2.871,4.472,4.586,1
-0.105,-0.018,1.073,-11.830,4.256,-2.667,1
-0.104,-0.140,1.010,1.195,18.247,5.035,1
-0.093,-0.002,0.995,8.843,15.154,8.697,1
-0.084,-0.017,0.946,3.151,14.398,3.274,1
-0.069,0.051,1.022,-11.271,7.637,-1.596,1
-0.055,-0.113,0.947,-0.970,19.793,1.271,1
-0.053,0.001,0.887,3.814,4.364,2.583,1
-0.059,-0.032,0.964,1.509,-3.909,0.614,1
-0.091,-0.031,1.031,-4.113,-6.822,7.281,1
-0.078,0.011,1.046,-12.005,0.012,-0.422,1
-0.071,-0.122,0.986,3.814,4.723,1.478,1
-0.048,0.034,0.895,13.976,-0.312,6.452,1
-0.063,-0.045,0.884,9.995,-12.433,4.552,1
-0.098,0.035,1.090,-0.551,-21.280,6.175,1
-0.105,-0.107,1.139,-7.640,-5.024,-9.472,1
-0.114,-0.119,1.074,9.820,7.780,2.721,1
-0.102,-0.064,1.016,3.116,8.536,2.341,1
-0.076,-0.068,0.969,-3.449,11.449,0.787,1
-0.065,-0.043,0.915,3.779,6.486,2.583,1
-0.061,-0.005,0.947,2.941,-2.722,3.205,1
-0.060,-0.044,0.987,-6.348,-1.894,0.787,1
-0.070,-0.016,0.943,-4.113,-0.887,3.585,1
-0.069,-0.029,0.983,-6.906,-3.945,1.685,1
-0.072,-0.076,1.003,-5.370,-1.930,-3.220,1
-0.075,-0.050,0.969,5.874,-0.492,1.616,1
-0.089,0.073,0.953,2.348,-5.707,4.448,1
-0.090,-0.111,1.046,-9.525,-6.318,-5.741,1
-0.100,-0.062,1.064,2.627,1.127,2.514,1
-0.088,-0.041,1.017,9.087,6.665,1.858,1
-0.090,-0.022,0.922,2.697,0.983,4.241,1
-0.070,-0.011,0.992,-9.281,-2.074,-1.147,1
-0.068,-0.093,0.972,-1.843,0.587,2.894,1
-0.094,0.034,0.971,6.049,0.371,2.998,1
-0.081,-0.081,1.014,4.478,-3.801,-5.638,1
-0.084,-0.027,0.979,2.662,2.637,1.340,1
-0.088,-0.022,0.965,-2.786,-0.600,-0.215,1
-0.084,-0.066,0.984,-1.633,-2.650,0.511,1
-0.098,-0.027,1.083,-0.656,-6.282,4.759,1
-0.097,-0.068,1.043,-2.192,4.220,-2.494,1
-0.096,-0.008,0.988,-8.059,3.321,-1.562,1
-0.083,-0.068,1.012,0.741,6.234,0.891,1
-0.081,-0.018,0.918,8.319,4.939,5.692,1
-0.085,0.020,0.977,-3.659,-3.189,-1.389,1
-0.084,-0.060,0.991,-8.233,-0.420,-1.562,1
-0.086,-0.049,1.013,-4.148,1.055,0.131,1
-0.083,-0.044,0.968,3.360,2.493,-1.251,1
-0.084,-0.069,0.969,5.909,0.803,1.305,1
-0.085,-0.020,0.975,-0.900,-0.132,1.512,1
-0.081,-0.019,0.986,-1.598,0.731,1.340,1
-0.088,-0.042,0.989,5.141,-1.067,-0.249,1
-0.089,-0.014,1.010,-0.341,0.120,-0.491,1
-0.099,-0.058,0.981,4.408,-0.492,1.961,1
-0.093,-0.012,1.011,0.671,0.443,-2.598,1
-0.080,-0.108,1.000,2.103,5.011,-0.664,1
-0.092,0.013,0.967,8.633,0.983,5.588,1
-0.082,0.010,0.999,-3.833,-0.564,-2.494,1
-0.080,-0.096,1.004,-1.878,3.932,-1.527,1
-0.076,-0.017,0.990,4.792,3.608,1.858,1
-0.065,-0.016,0.941,2.348,1.630,1.616,1
-0.072,-0.087,0.976,0.567,-4.196,0.822,1
-0.094,-0.001,1.042,-3.240,-2.470,3.792,1
-0.090,-0.086,1.066,-4.951,6.306,-4.152,1
-0.078,-0.063,0.968,7.132,6.773,5.001,1
-0.069,0.017,0.945,1.824,2.098,3.723,1
-0.070,-0.048,0.950,-3.205,-2.434,-1.251,1
-0.085,-0.031,1.002,6.887,-3.261,3.723,1
-0.099,0.023,1.038,-1.214,-1.283,2.376,1
-0.086,-0.084,1.013,-2.890,3.644,-1.665,1
-0.079,-0.036,0.946,3.744,3.393,5.277,1
-0.066,-0.001,0.926,-9.840,-1.715,-1.838,1
-0.072,-0.088,1.000,-6.208,-3.837,-0.871,1
-0.081,-0.055,1.036,5.665,0.479,0.822,1
-0.081,-0.047,1.001,3.221,3.141,3.827,1
-0.083,-0.021,0.964,-7.430,-0.492,2.549,1
-0.069,-0.037,0.963,-2.681,-0.636,0.200,1
-0.065,-0.050,0.921,-5.475,-2.002,-1.458,1
-0.082,-0.008,0.973,-3.729,-8.404,0.994,1
-0.316,-0.029,-1.460,100.543,-457.336,-81.523,2
-1.355,-0.629,-1.211,91.813,-696.872,-93.128,2
-2.316,0.334,-0.421,-57.785,-760.208,-101.141,2
-2.712,-0.482,0.941,-299.852,-773.372,-112.263,2
-2.896,-1.308,3.652,-80.763,-665.365,42.684,2
-1.764,0.613,1.650,54.833,-253.263,74.634,2
-1.339,0.332,0.722,-19.792,-236.719,-19.523,2
-1.174,0.017,0.224,-67.179,-183.129,-66.290,2
-1.214,-0.161,0.633,-19.093,-153.744,-56.135,2
-1.131,-0.343,0.746,-30.687,-92.673,-41.698,2
-1.008,-0.191,0.455,-33.795,-32.178,-36.551,2
-0.873,-0.164,0.092,-43.573,-6.031,-21.802,2
-0.780,0.006,-0.122,-17.767,-7.973,-14.791,2
-0.715,-0.059,-0.196,9.157,-9.951,-15.309,2
-0.748,-0.150,0.008,5.909,-23.007,-0.422,2
-0.834,-0.120,0.238,-2.192,-15.382,3.792,2
-0.880,-0.122,0.210,-0.760,1.702,9.284,2
-0.866,-0.050,0.023,-2.471,3.393,10.527,2
-0.863,-0.111,-0.117,4.303,0.192,9.353,2
-0.899,-0.148,-0.069,19.668,-14.663,9.526,2
-0.957,-0.162,0.083,11.287,-16.317,6.935,2
-1.017,-0.208,0.201,0.043,-5.491,4.794,2
-1.049,-0.186,0.155,-0.097,7.924,8.420,2
-1.033,-0.175,0.039,2.732,12.996,8.455,2
-0.988,-0.219,-0.189,14.360,-4.628,14.914,2
-1.046,-0.021,0.002,13.173,-9.375,16.468,2
-1.116,-0.032,0.136,6.573,-1.535,5.554,2
-1.152,-0.171,0.264,-4.392,10.334,-2.840,2
-1.110,-0.209,0.258,-3.484,35.403,-1.147,2
-1.064,-0.126,0.113,2.103,44.430,4.863,2
-0.998,-0.157,0.057,-0.621,42.991,2.928,2
-0.985,-0.136,0.040,-3.938,41.877,0.683,2
-0.951,-0.158,0.067,-11.725,41.805,-0.836,2
-0.969,-0.204,0.231,-14.903,39.754,-1.734,2
-0.995,-0.190,0.303,-19.582,57.198,-1.113,2
-0.974,-0.089,0.114,-21.084,69.678,-5.776,2
-0.915,-0.182,-0.006,-19.024,47.703,-10.300,2
-0.931,-0.184,0.050,-10.294,26.303,-11.026,2
-1.027,-0.319,0.394,-9.071,26.303,-0.629,2
-1.061,-0.110,0.471,-2.227,50.401,11.874,2
-1.056,0.117,0.349,-12.459,68.528,-0.284,2
-0.955,-0.092,0.015,-29.814,69.643,-25.256,2
-0.891,-0.204,0.040,-13.401,55.076,-18.176,2
-0.933,-0.152,0.287,-0.481,41.121,-9.610,2
-1.004,-0.081,0.579,6.398,58.097,-4.981,2
-1.015,-0.018,0.533,2.417,84.784,-13.236,2
-0.932,-0.097,0.285,-14.694,99.710,-20.283,2
-0.871,-0.240,0.090,-7.500,87.014,-6.881,2
-0.859,-0.125,0.060,-2.751,65.075,3.481,2
-0.909,-0.041,0.328,-14.100,39.862,0.580,2
-0.958,-0.048,0.633,-23.284,46.049,-7.054,2
-0.964,-0.075,0.627,-30.617,67.592,-13.927,2
-0.922,-0.149,0.518,-20.595,87.482,-13.927,2
-0.855,-0.102,0.315,-5.998,92.337,-11.613,2
-0.827,-0.159,0.353,-0.551,74.318,-4.221,2
-0.885,0.060,0.595,5.909,70.721,4.897,2
-0.917,0.060,0.741,3.675,80.360,-8.090,2
-0.869,-0.149,0.608,-4.776,96.797,-15.585,2
-0.772,-0.157,0.347,-13.471,95.646,-6.743,2
-0.713,-0.123,0.315,-5.510,65.327,3.136,2
-0.753,-0.046,0.574,-8.408,53.961,1.547,2
-0.815,0.005,0.823,-12.040,59.428,-2.874,2
-0.825,0.007,0.808,-11.830,78.023,-6.225,2
-0.749,-0.119,0.623,-7.186,85.576,-9.713,2
-0.725,-0.086,0.485,4.163,77.627,-2.563,2
-0.719,-0.063,0.569,5.211,60.147,-1.355,2
-0.758,-0.033,0.784,8.459,58.061,-2.011,2
-0.769,-0.004,0.884,-1.878,67.413,-8.194,2
-0.707,-0.145,0.758,-8.652,73.023,-10.404,2
-0.662,-0.067,0.640,4.513,71.369,-1.355,2
-0.620,0.005,0.635,15.547,60.831,-0.491,2
-0.627,0.011,0.735,16.141,53.566,-2.322,2
-0.636,0.084,0.840,-0.970,51.084,-13.029,2
-0.631,-0.126,0.925,-3.694,61.586,-16.725,2
-0.591,-0.127,0.840,7.167,71.225,-7.192,2
-0.574,-0.070,0.750,22.252,73.023,2.514,2
-0.564,0.073,0.775,9.925,61.478,3.792,2
-0.566,0.037,0.868,11.986,62.162,-3.185,2
-0.538,-0.062,0.904,-2.821,66.226,-15.723,2
-0.495,-0.178,0.874,1.998,69.103,-12.960,2
-0.446,-0.136,0.789,8.773,66.873,-1.044,2
-0.422,-0.010,0.686,9.716,55.795,4.103,2
-0.413,0.054,0.730,6.398,39.395,-4.809,2
-0.432,-0.048,0.940,-3.414,32.705,-10.957,2
-0.450,-0.086,0.985,-0.725,43.243,-7.468,2
-0.419,-0.083,0.850,3.675,45.437,-4.532,2
-0.384,-0.071,0.767,4.862,35.834,-0.871,2
-0.387,-0.038,0.829,-2.122,22.095,-2.874,2
-0.394,-0.063,0.943,-1.773,18.750,-0.629,2
-0.416,-0.040,0.954,10.414,21.807,3.067,2
-0.453,0.129,0.984,3.640,23.426,-1.044,2
-0.438,-0.111,1.071,3.046,37.309,-5.707,2
-0.405,-0.127,1.007,19.878,47.487,3.550,2
-0.410,0.042,0.870,28.852,45.078,7.557,2
-0.364,0.038,0.866,3.500,34.755,-13.513,2
-0.329,-0.076,0.906,-2.856,33.352,-9.990,2
-0.304,-0.122,0.918,4.967,30.763,-7.710,2
-0.269,-0.078,0.802,22.252,26.267,0.545,2
-0.295,0.098,0.799,17.538,9.219,-1.527,2
-0.326,-0.132,1.073,-8.198,2.637,-19.212,2
-0.344,-0.276,1.128,6.852,16.988,-8.504,2
-0.339,-0.194,1.051,13.627,35.115,3.965,2
-0.299,-0.005,0.814,8.668,31.446,8.179,2
-0.286,-0.055,0.896,-0.725,18.355,-2.011,2
-0.293,-0.066,0.953,-5.090,12.456,-3.461,2
-0.307,-0.029,0.970,-2.611,18.067,-5.327,2
-0.275,-0.090,0.907,11.706,20.369,-1.251,2
-0.227,-0.059,0.762,21.938,13.535,4.725,2
-0.253,-0.034,0.846,23.020,-4.736,2.376,2
-0.319,-0.117,1.122,5.665,-1.499,0.338,2
-0.316,-0.171,1.140,-4.078,15.981,-2.391,2
-0.281,-0.174,0.959,8.249,27.382,2.203,2
-0.179,-0.123,0.835,9.960,21.268,5.484,2
-0.248,0.008,0.888,7.621,10.910,3.308,2
-0.273,-0.089,1.029,5.630,5.155,-4.118,2
-0.307,-0.148,1.155,7.935,15.190,-0.975,2
-0.311,-0.121,1.141,-6.836,30.871,-0.491,2
-0.255,-0.088,0.982,-0.830,40.258,1.581,2
-0.180,-0.055,0.803,3.011,29.288,1.892,2
-0.154,-0.059,0.793,-7.709,13.895,-2.736,2
-0.194,-0.138,1.003,-9.735,2.278,-5.914,2
-0.232,-0.185,1.119,-5.824,17.347,0.442,2
-0.216,-0.128,1.040,-0.271,28.533,8.559,2
-0.190,-0.013,0.883,3.605,27.562,5.864,2
-0.161,-0.014,0.829,-8.897,18.175,1.892,2
-0.167,-0.054,0.954,-9.176,4.975,-1.769,2
-0.201,-0.062,1.065,-5.963,8.788,-2.391,2
-0.226,-0.084,1.124,-17.173,21.484,-5.707,2
-0.206,-0.172,1.112,-17.976,29.648,-4.705,2
-0.156,-0.149,0.946,-3.030,34.971,2.307,2
-0.126,-0.028,0.849,-0.586,27.994,3.965,2
-0.091,-0.064,0.844,-7.465,11.485,-0.387,2
-0.104,-0.077,0.882,-1.878,-1.607,1.789,2
-0.180,-0.111,1.132,-1.564,1.414,-0.836,2
-0.165,-0.126,1.094,-10.468,15.801,0.096,2
-0.119,-0.086,0.931,2.278,20.477,8.904,2
-0.102,0.038,0.828,11.392,12.600,7.730,2
-0.086,-0.017,0.788,-4.008,-8.081,-3.151,2
-0.131,-0.075,0.993,-9.316,-13.296,-1.424,2
-0.150,-0.080,1.026,2.487,-4.808,1.858,2
-0.190,-0.014,1.072,8.179,-0.384,-1.044,2
-0.198,-0.078,1.175,-14.694,9.039,-0.422,2
-0.138,-0.151,1.024,-5.300,21.124,3.896,2
-0.095,-0.088,0.891,3.814,16.628,6.901,2
-0.086,0.028,0.840,3.849,4.148,5.381,2
-0.099,-0.033,0.894,2.906,-7.613,0.752,2
-0.167,-0.062,1.168,0.881,-8.296,0.062,2
-0.164,-0.091,1.090,-9.036,6.522,0.096,2
-0.130,-0.065,0.953,4.722,12.348,4.483,2
-0.136,0.046,0.891,6.084,4.148,3.343,2
-0.130,0.005,0.978,-14.240,-4.160,-6.846,2
-0.110,-0.125,1.021,5.386,-0.384,-1.631,2
-0.091,-0.056,0.920,13.382,1.342,3.861,2
-0.109,-0.042,0.901,14.989,-4.232,2.445,2
-0.198,-0.009,1.164,-6.417,-4.376,-6.846,2
-0.192,-0.143,1.190,-20.630,10.154,-2.736,2
-0.129,-0.119,0.968,-0.970,22.095,3.205,2
-0.081,-0.023,0.831,2.802,13.535,4.483,2
-0.079,-0.014,0.847,6.119,1.414,3.136,2
-0.133,-0.015,1.008,-1.354,-5.779,-1.631,2
-0.152,-0.139,1.121,-4.776,4.508,-2.563,2
-0.129,-0.055,0.988,-3.030,12.960,1.754,2
-0.098,-0.016,0.909,2.068,8.608,1.650,2
-0.090,-0.013,0.901,2.278,-2.074,1.374,2
-0.097,-0.090,0.941,7.900,-5.491,-0.906,2
-0.133,-0.042,1.060,5.490,-5.563,-5.568,2
-0.148,-0.164,1.093,0.148,3.249,-3.531,2
-0.147,-0.054,1.055,2.103,15.190,0.062,2
-0.101,-0.048,0.962,2.313,15.837,-4.049,2
-0.062,-0.117,0.896,4.932,11.305,-0.664,2
-0.061,-0.061,0.908,1.405,2.817,0.614,2
-0.101,-0.083,1.026,0.392,-1.499,1.961,2
-0.127,-0.148,1.098,-6.103,5.407,-2.287,2
-0.120,-0.097,1.077,0.776,16.268,2.238,2
-0.089,-0.051,0.981,0.252,19.218,1.374,2
-0.057,-0.077,0.918,-0.481,13.751,0.580,2
-0.066,-0.002,0.933,4.373,6.306,3.377,2
-0.065,-0.026,0.914,-4.497,0.012,-1.355,2
-0.091,-0.063,1.031,-0.725,0.048,0.131,2
-0.104,-0.058,1.041,0.182,6.953,1.098,2
-0.082,-0.075,1.011,-0.691,10.730,-0.111,2
-0.059,-0.062,0.949,4.687,10.658,3.550,2
-0.059,0.035,0.891,3.709,1.882,2.030,2
-0.063,-0.085,0.966,-2.960,-7.002,-3.461,2
-0.094,-0.037,1.019,-1.529,-7.397,-1.527,2
-0.114,-0.164,1.113,-2.576,0.731,-0.595,2
-0.097,-0.050,1.011,-2.786,7.241,5.208,2
-0.068,-0.067,0.946,-1.179,3.968,2.618,2
-0.059,-0.060,0.932,6.503,-2.326,0.787,2
-0.079,-0.048,0.971,-0.341,-5.887,0.718,2
-0.114,-0.056,1.057,0.287,-3.081,0.407,2
-0.109,-0.048,1.044,-3.798,8.500,-0.456,2
-0.075,-0.046,0.981,-4.636,8.104,-0.284,2
-0.048,-0.064,0.922,-0.656,6.809,0.822,2
-0.048,-0.004,0.895,4.897,2.961,0.994,2
-0.066,-0.025,0.938,-0.132,-4.880,-3.427,2
-0.085,-0.074,1.018,2.452,-3.729,-2.529,2
-0.118,-0.108,1.135,-1.738,4.040,-1.182,2
-0.086,-0.085,1.011,-3.310,11.881,1.201,2
-0.056,-0.027,0.906,1.440,9.183,2.134,2
0.367,0.345,-1.371,-117.534,-158.564,-83.802,3
0.203,-0.149,-2.869,88.601,-426.549,-128.808,3
-1.713,-0.294,-2.319,54.728,-690.146,-49.573,3
-3.110,0.578,0.757,-191.599,-861.273,-102.109,3
-3.355,-0.234,3.590,-361.696,-778.875,-113.300,3
-2.401,-0.545,6.859,118.562,-289.373,-1.389,3
-1.171,-0.429,0.942,95.654,50.436,-7.192,3
-0.683,-0.204,-0.132,-61.696,2.637,5.657,3
-0.843,0.523,-0.138,-46.192,-123.928,41.924,3
-0.929,0.636,0.698,-49.404,-139.502,-9.817,3
-0.910,-0.231,1.145,-56.353,-97.996,-28.261,3
-0.893,-0.341,1.009,-18.674,-43.400,23.480,3
-0.799,-0.058,0.093,19.878,-54.225,52.183,3
-0.688,-0.010,-0.216,78.264,-148.169,59.609,3
-0.774,0.258,0.404,75.121,-189.459,43.651,3
-0.950,-0.091,0.748,36.709,-127.345,-6.985,3
-0.981,-0.373,0.666,16.874,-79.726,4.586,3
-0.954,-0.282,0.404,10.240,-54.657,19.473,3
-0.936,-0.081,0.138,11.008,-41.026,13.118,3
-0.924,0.011,-0.006,9.436,-51.456,3.412,3
-0.949,-0.143,0.136,-5.614,-75.410,-9.092,3
-1.056,-0.304,0.453,-5.824,-57.822,-5.361,3
-1.094,-0.173,0.451,-3.694,-21.568,8.179,3
-1.022,-0.051,0.205,-22.446,-17.432,-1.424,3
-0.948,-0.071,0.067,-25.065,-20.165,-9.921,3
-0.972,-0.111,0.154,-3.624,-19.554,-5.361,3
-0.981,-0.176,0.079,10.379,-36.027,1.443,3
-1.025,-0.043,0.150,21.763,-49.766,19.957,3
-1.037,-0.163,0.231,13.906,-53.075,14.845,3
-1.005,-0.182,0.131,10.973,-56.887,15.639,3
-0.950,-0.091,0.021,10.240,-51.960,8.179,3
-0.974,-0.130,0.085,-0.551,-50.737,1.961,3
-0.990,-0.156,0.151,-11.062,-67.857,2.618,3
-1.009,-0.154,0.125,-14.973,-61.814,1.201,3
-0.991,-0.225,-0.020,-10.538,-54.873,5.692,3
-0.956,-0.041,0.007,-6.522,-59.081,8.351,3
-0.961,-0.080,0.007,-8.967,-57.930,-3.738,3
-0.980,-0.152,0.009,-19.198,-45.809,-11.717,3
-1.004,-0.192,0.075,-18.849,-34.552,-6.017,3
-1.080,-0.018,0.101,-32.992,-33.545,-2.460,3
-1.009,-0.219,-0.107,-40.919,-14.123,-15.585,3
-0.981,-0.129,-0.085,-27.125,-9.088,-2.011,3
-1.065,-0.045,0.106,-16.684,-7.038,-7.192,3
-1.104,-0.128,0.202,-3.240,19.038,-15.447,3
-1.056,-0.181,0.152,-4.671,47.128,-16.069,3
-0.881,-0.214,-0.150,-30.443,64.895,-23.875,3
-0.853,-0.170,-0.125,-23.039,44.394,-10.300,3
-0.971,-0.028,0.072,-20.735,46.121,-11.337,3
-1.104,0.046,0.332,-15.671,59.644,-26.534,3
-1.099,-0.019,0.434,-10.538,94.603,-43.321,3
-1.013,-0.157,0.300,-27.300,150.854,-54.754,3
-0.863,-0.385,-0.183,-57.576,125.570,-33.097,3
-0.917,-0.040,-0.055,-32.573,98.775,-4.187,3
-1.034,0.195,0.204,-21.538,75.505,-16.587,3
-1.125,0.090,0.450,-25.763,86.403,-37.380,3
-1.104,-0.181,0.540,-29.220,120.571,-40.903,3
-1.015,-0.073,0.193,-30.617,141.863,-20.732,3
-0.921,0.086,0.011,-39.382,129.670,-26.811,3
-0.889,0.040,0.139,-31.700,98.775,-37.276,3
-0.920,-0.075,0.455,-24.052,88.705,-33.581,3
-0.946,-0.033,0.560,-5.894,94.855,-18.107,3
-0.931,0.062,0.506,4.128,108.090,-10.922,3
-0.845,0.021,0.342,25.220,109.098,-15.412,3
-0.802,0.062,0.321,28.049,90.575,-12.718,3
-0.794,-0.020,0.453,10.833,69.499,-17.209,3
-0.848,-0.006,0.617,4.443,65.255,-11.406,3
-0.875,-0.002,0.706,5.700,72.052,-4.360,3
-0.831,-0.001,0.634,3.290,75.973,-3.392,3
-0.774,0.094,0.440,16.001,78.562,1.340,3
-0.741,0.061,0.496,9.262,55.184,-2.563,3
-0.753,0.110,0.581,4.513,49.070,-8.435,3
-0.784,-0.022,0.746,1.405,49.465,-10.300,3
-0.810,0.004,0.825,7.970,63.348,-1.631,3
-0.793,0.018,0.708,12.649,72.951,6.901,3
-0.724,0.128,0.587,32.065,70.074,5.830,3
-0.681,0.146,0.511,17.643,55.795,-1.147,3
-0.691,-0.018,0.738,11.986,46.480,-0.146,3
-0.740,0.060,0.812,16.595,51.803,6.175,3
-0.753,0.094,0.900,19.528,62.413,5.035,3
-0.703,0.032,0.745,17.922,70.110,-5.223,3
-0.649,0.075,0.614,21.798,69.283,-3.876,3
-0.580,0.001,0.592,10.240,48.494,-7.641,3
-0.594,-0.007,0.682,7.865,38.568,-5.396,3
-0.637,-0.033,0.843,3.360,37.489,-2.080,3
-0.658,0.002,0.899,6.468,48.674,1.063,3
-0.653,0.053,0.871,19.633,58.853,2.445,3
-0.591,0.089,0.686,22.741,58.025,-0.042,3
-0.564,-0.021,0.760,26.757,50.365,-2.667,3
-0.559,0.007,0.766,27.595,44.754,-3.323,3
-0.568,0.002,0.853,31.157,49.178,-0.077,3
-0.589,-0.020,1.035,29.655,51.120,3.965,3
-0.587,0.045,0.987,28.398,66.909,0.062,3
-0.550,-0.020,0.880,34.265,73.563,-2.356,3
-0.475,-0.117,0.727,32.623,68.707,0.545,3
-0.461,-0.058,0.808,29.062,54.105,6.072,3
-0.450,0.082,0.782,21.973,50.329,0.269,3
-0.446,-0.064,0.892,7.586,39.107,-6.985,3
-0.476,-0.098,1.003,14.989,41.445,-0.664,3
-0.463,-0.044,0.960,11.217,46.157,2.341,3
-0.416,0.012,0.838,14.151,50.041,-1.320,3
-0.359,-0.083,0.820,15.582,35.546,-3.669,3
-0.376,-0.038,0.837,14.081,22.886,-5.741,3
-0.386,-0.136,0.924,1.021,19.541,-10.577,3
-0.401,-0.163,0.995,4.198,24.001,-2.702,3
-0.408,-0.185,0.995,6.503,32.633,5.830,3
-0.377,-0.043,0.909,-1.249,35.798,8.455,3
-0.333,-0.026,0.805,7.760,30.080,3.585,3
-0.322,-0.102,0.809,13.452,16.952,-2.253,3
-0.373,-0.111,1.012,-0.306,8.644,-0.836,3
-0.393,-0.103,1.032,-8.129,20.369,-1.596,3
-0.382,-0.114,1.019,3.884,32.813,5.623,3
-0.317,-0.101,0.862,0.776,33.568,3.965,3
-0.270,0.032,0.754,-2.716,23.462,5.070,3
-0.295,0.005,0.847,-6.103,5.479,-2.771,3
-0.350,-0.110,1.009,-5.405,7.169,-8.884,3
-0.381,-0.153,1.095,0.252,22.778,-0.698,3
-0.302,0.001,1.017,3.081,37.273,1.236,3
-0.240,-0.074,0.886,3.884,42.416,-3.669,3
-0.260,-0.063,0.852,4.897,37.273,-2.598,3
-0.231,-0.088,0.830,-4.986,25.116,-4.670,3
-0.247,-0.114,0.912,-7.884,18.283,-3.669,3
-0.282,-0.109,1.030,-13.297,17.923,1.650,3
-0.274,-0.129,1.012,-13.786,30.044,2.410,3
-0.246,-0.107,0.986,-5.579,36.338,7.695,3
-0.221,0.022,0.882,-1.075,35.726,6.313,3
-0.217,-0.024,0.909,-13.436,28.785,-3.185,3
-0.237,-0.098,0.993,-16.335,22.670,-2.529,3
-0.243,-0.089,1.070,-12.424,31.410,2.928,3
-0.223,-0.034,1.022,-6.452,40.114,4.034,3
-0.159,0.013,0.884,0.392,42.416,0.856,3
-0.144,-0.007,0.866,-7.500,29.684,2.376,3
-0.133,-0.025,0.907,-12.075,19.110,-5.707,3
-0.126,-0.102,0.911,-8.722,14.506,0.062,3
-0.164,-0.084,1.022,0.951,12.924,2.687,3
-0.151,-0.059,0.971,-4.148,15.837,3.067,3
-0.148,-0.022,0.945,8.703,12.996,5.174,3
-0.193,0.022,1.056,2.697,12.060,-2.287,3
-0.168,-0.071,1.075,3.186,22.311,8.351,3
-0.116,0.022,0.923,10.554,24.505,6.486,3
-0.101,0.100,0.834,13.173,11.701,5.623,3
-0.100,-0.087,0.911,-3.135,-0.995,-9.541,3
-0.123,-0.063,1.010,8.249,-1.175,1.823,3
-0.155,-0.009,0.973,14.465,0.012,3.239,3
-0.195,-0.042,1.126,-8.757,4.040,-7.088,3
-0.143,-0.211,1.110,0.392,18.211,-0.387,3
-0.110,-0.044,0.921,14.186,22.419,6.728,3
-0.084,0.033,0.823,12.335,8.104,5.899,3
-0.112,-0.023,0.938,1.125,-5.779,-6.017,3
-0.125,-0.139,1.057,0.008,-2.938,-1.355,3
-0.102,-0.080,0.950,13.732,2.853,6.106,3
-0.156,-0.051,1.046,7.725,-2.506,-0.077,3
-0.156,-0.050,1.071,-13.890,4.975,-2.114,3
-0.108,-0.122,1.028,-0.656,9.902,0.338,3
-0.075,0.018,0.854,10.833,7.924,3.619,3
-0.060,0.011,0.818,7.795,-7.721,-2.771,3
-0.171,-0.060,0.985,2.522,-17.432,-6.190,3
-0.175,-0.167,1.200,-6.452,-6.031,-3.738,3
-0.150,-0.050,1.033,4.582,10.478,3.654,3
-0.119,0.013,0.946,7.167,10.262,4.517,3
-0.095,-0.042,0.896,2.243,4.795,0.269,3
-0.115,-0.033,0.958,6.992,-3.873,1.374,3
-0.132,-0.118,1.034,1.719,-1.859,-4.705,3
-0.116,-0.141,0.973,8.494,3.069,3.170,3
-0.145,-0.010,0.981,4.408,-2.146,3.101,3
-0.138,-0.230,1.074,-6.976,3.105,-3.323,3
-0.107,-0.111,0.973,2.243,8.464,6.935,3
-0.077,-0.037,0.908,11.008,8.392,10.631,3
-0.095,0.060,0.899,11.182,-0.851,11.840,3
-0.116,0.047,0.969,-9.211,-11.066,-9.402,3
-0.123,-0.178,1.073,-8.478,-5.599,-1.113,3
-0.125,-0.071,1.010,5.700,0.947,2.859,3
-0.130,-0.014,0.958,8.738,2.961,4.621,3
-0.136,-0.102,1.031,2.697,1.918,-3.876,3
-0.118,-0.113,0.970,2.767,3.896,-0.180,3
-0.095,-0.117,0.942,0.951,3.860,-0.629,3
-0.094,-0.092,0.932,4.198,-2.614,3.999,3
-0.114,0.017,0.958,1.963,-7.685,3.896,3
-0.147,-0.106,1.066,-17.068,-10.742,-8.781,3
-0.123,-0.194,1.018,3.640,2.925,-1.804,3
-0.110,-0.035,0.948,13.801,2.997,2.445,3
-0.127,-0.036,0.970,11.671,-0.312,1.996,3
-0.161,-0.099,1.082,-3.449,-0.816,-6.466,3
-0.134,-0.111,1.025,2.382,10.118,0.407,3
-0.101,-0.100,0.968,6.189,10.945,2.859,3
-0.093,-0.074,0.945,7.760,5.335,5.381,3
-0.099,-0.009,0.940,3.430,-0.923,1.996,3
-0.094,-0.160,0.962,8.563,-1.894,0.338,3
-0.131,-0.116,1.046,3.884,-0.384,-1.320,3
-0.134,-0.138,1.040,5.874,7.960,1.650,3
-0.098,-0.090,0.935,14.605,9.723,5.899,3
-0.085,-0.063,0.910,3.640,2.781,2.479,3
-0.103,-0.099,0.967,0.636,-1.355,1.616,3
-0.126,-0.118,1.011,2.627,-1.067,2.099,3
-0.125,-0.069,1.003,2.906,4.148,0.856,3
-0.113,-0.139,1.017,2.941,4.436,-0.456,3
-0.096,-0.097,0.949,5.141,6.126,4.276,3
-0.091,-0.114,0.967,4.862,2.134,0.131,3
-0.091,-0.142,0.976,0.322,0.192,1.063,3
-0.106,-0.118,1.003,1.055,1.486,2.341,3
-0.101,-0.115,0.973,3.709,4.328,1.029,3
-0.058,-0.321,1.233,96.353,4.543,50.698,4
-0.020,-0.218,1.104,96.597,16.592,56.051,4
0.015,-0.258,0.969,87.937,5.119,52.459,4
0.035,-0.135,0.802,73.515,-15.813,48.798,4
0.063,-0.121,0.540,30.773,-69.547,12.772,4
0.029,0.063,-0.160,15.093,-150.687,-3.012,4
0.031,-0.057,-1.273,-6.941,-342.567,-38.900,4
-0.385,-0.548,-1.853,-5.929,-552.790,-58.208,4
-1.513,0.018,-2.970,120.902,-821.818,-35.998,4
-2.872,0.473,-2.466,93.070,-1115.915,-132.746,4
-3.951,-1.272,1.854,61.607,-924.934,-53.027,4
-3.793,-0.317,2.996,162.038,-494.633,-3.807,4
-2.869,-0.534,3.181,126.629,-232.870,-153.125,4
-1.318,-1.414,0.672,-26.951,-126.518,-196.853,4
-0.540,-1.638,-0.407,-88.480,-175.108,-87.118,4
-0.831,-0.490,-0.058,-66.445,-119.181,30.043,4
-1.230,0.288,0.136,-49.858,-85.876,17.608,4
-1.281,0.257,0.363,-60.753,-41.961,-52.094,4
-0.875,-0.481,-0.032,-57.366,-40.522,-82.455,4
-0.562,-0.808,-0.185,-33.271,-48.327,-39.902,4
-0.647,-0.402,-0.221,-1.494,-39.947,3.481,4
-0.858,-0.097,-0.034,7.655,-26.280,11.425,4
-1.054,0.078,0.207,-3.135,-10.922,-11.544,4
-1.012,-0.044,-0.058,-10.748,11.269,-33.304,4
-0.773,-0.272,-0.514,-11.097,-14.195,-30.092,4
-0.809,-0.220,-0.374,9.471,-31.027,-4.118,4
-0.999,-0.041,-0.159,23.160,-20.921,2.963,4
-1.097,-0.054,-0.017,16.979,-14.591,-14.065,4
-1.066,-0.266,0.064,0.182,-2.758,-26.569,4
-0.838,-0.374,-0.493,-7.954,-2.398,-26.258,4
-0.768,-0.376,-0.543,6.538,-36.422,-1.355,4
-0.943,-0.055,-0.217,21.204,-31.854,21.442,4
-1.119,0.054,-0.040,7.516,-24.769,0.303,4
-1.126,-0.173,0.067,-9.875,-8.620,-17.658,4
-1.016,-0.212,-0.201,-16.579,8.895,-13.893,4
-0.931,-0.225,-0.386,-23.039,2.278,-8.677,4
-0.879,-0.159,-0.409,-1.179,-13.548,3.481,4
-1.021,-0.017,-0.201,8.982,-7.649,11.218,4
-1.072,-0.021,-0.048,0.636,-3.945,-10.093,4
-0.994,-0.226,-0.102,-4.078,7.529,-15.654,4
-0.780,-0.305,-0.522,-7.989,6.881,-4.601,4
-0.811,-0.192,-0.379,-8.198,-14.950,10.562,4
-0.943,-0.034,-0.208,2.522,-11.462,8.386,4
-1.068,-0.137,-0.016,-3.694,-4.412,-6.397,4
-1.068,-0.186,-0.045,-2.716,15.333,-7.019,4
-0.969,-0.196,-0.302,-28.627,17.887,-6.087,4
-0.903,-0.204,-0.368,-15.916,16.233,-2.322,4
-0.942,-0.171,-0.262,-6.522,12.420,7.660,4
-1.045,-0.057,-0.113,2.871,21.052,6.037,4
-1.126,-0.086,0.089,2.697,30.835,-8.884,4
-1.121,-0.164,0.045,1.475,62.233,-7.952,4
-1.063,-0.150,-0.096,1.475,63.133,-8.643,4
-0.922,-0.091,-0.367,8.598,69.786,-4.878,4
-0.811,-0.163,-0.543,-3.449,42.164,-10.197,4
-0.973,-0.147,-0.230,2.452,33.029,-9.437,4
-1.069,-0.134,0.072,18.306,46.840,-9.126,4
-1.191,-0.050,0.219,23.090,71.009,-13.098,4
-1.095,-0.242,-0.001,7.132,84.173,-20.110,4
-0.960,-0.207,-0.148,-9.735,79.821,-10.991,4
-0.900,-0.094,-0.309,-10.154,68.528,0.372,4
-0.959,-0.011,-0.138,-10.294,59.788,-5.672,4
-1.081,0.027,0.171,-5.090,67.449,-17.174,4
-1.133,-0.103,0.297,-0.341,97.193,-24.220,4
-1.023,-0.129,0.051,3.919,109.925,-24.911,4
-0.908,-0.255,-0.118,-2.821,94.064,-9.644,4
-0.884,0.026,-0.114,-9.351,88.920,-2.184,4
-0.929,-0.127,0.058,1.754,81.152,-13.824,4
-1.011,-0.172,0.410,1.195,88.381,-4.394,4
-1.055,-0.052,0.343,8.668,120.283,-1.355,4
-0.977,-0.106,0.112,5.490,110.536,-6.985,4
-0.863,-0.074,0.012,-1.249,85.432,-5.741,4
-0.849,-0.124,0.064,13.033,70.218,-0.180,4
-0.912,-0.064,0.296,17.049,62.593,12.254,4
-0.981,-0.014,0.499,11.532,69.786,5.864,4
-0.975,-0.029,0.394,12.998,87.230,-5.292,4
-0.925,-0.149,0.322,19.144,92.409,-8.297,4
-0.886,-0.074,0.161,16.770,81.439,1.961,4
-0.888,-0.070,0.270,10.659,53.709,8.662,4
-0.930,-0.071,0.486,12.684,51.336,7.557,4
-0.981,-0.087,0.714,14.151,63.636,5.139,4
-0.985,-0.130,0.574,14.954,92.409,0.338,4
-0.850,-0.189,0.369,6.782,90.287,4.103,4
-0.789,-0.149,0.160,2.767,75.181,5.519,4
-0.801,-0.081,0.427,1.998,47.092,10.389,4
-0.856,-0.067,0.585,8.982,51.264,11.736,4
-0.895,-0.072,0.767,3.535,62.413,4.483,4
-0.884,-0.127,0.679,-1.529,80.001,-1.942,4
-0.784,-0.235,0.399,11.078,75.217,5.795,4
-0.750,-0.166,0.397,14.186,62.485,18.299,4
-0.770,0.039,0.535,12.928,49.034,13.256,4
-0.784,-0.042,0.683,3.919,48.422,-4.670,4
-0.801,-0.260,0.846,-3.310,55.472,-4.014,4
-0.802,-0.299,0.803,-8.513,75.793,8.973,4
-0.782,-0.219,0.728,5.246,87.985,15.812,4
-0.724,-0.066,0.533,-3.763,82.051,13.360,4
-0.686,-0.054,0.521,-20.909,65.614,6.003,4
-0.688,-0.086,0.609,-33.271,49.537,-4.843,4
-0.714,-0.101,0.763,-33.760,48.746,-8.263,4
-0.739,-0.188,0.883,-31.839,56.371,-3.531,4
-0.758,-0.120,0.886,-29.395,71.980,6.210,4
-0.689,-0.112,0.767,-15.287,79.281,7.971,4
-0.633,-0.041,0.677,-6.522,78.850,9.146,4
-0.624,-0.013,0.756,-15.601,65.183,-1.873,4
-0.632,-0.031,0.815,-18.954,69.750,-5.119,4
-0.614,-0.078,0.845,-4.741,75.505,-0.595,4
-0.582,-0.036,0.816,4.932,80.720,4.552,4
-0.532,0.006,0.743,-0.760,79.281,0.891,4
-0.504,-0.056,0.691,5.455,72.628,-4.567,4
-0.482,-0.124,0.737,-0.865,59.428,-2.114,4
-0.453,-0.137,0.792,0.636,53.098,1.789,4
-0.510,0.089,0.901,7.062,42.344,6.417,4
-0.536,-0.078,1.067,-18.779,54.429,-16.034,4
-0.459,-0.154,0.886,-3.449,68.743,-6.916,4
-0.392,-0.166,0.746,25.116,68.671,14.258,4
-0.344,0.196,0.601,39.153,48.998,23.998,4
-0.394,0.282,0.720,5.805,9.507,-30.161,4
-0.434,-0.324,1.093,-20.944,12.060,-37.000,4
-0.473,-0.417,1.174,1.649,42.596,-6.501,4
-0.462,-0.169,1.058,30.808,59.536,16.641,4
-0.362,-0.004,0.801,30.598,57.378,7.902,4
-0.313,-0.008,0.716,13.522,39.970,2.030,4
-0.342,-0.018,0.854,1.894,20.477,-12.166,4
-0.360,-0.234,1.017,-0.551,23.138,-12.477,4
-0.353,-0.128,1.002,14.674,31.051,0.856,4
-0.311,-0.115,0.885,16.770,31.878,2.998,4
-0.292,-0.031,0.853,3.046,25.584,-1.873,4
-0.304,-0.170,0.947,-1.389,15.621,-5.119,4
-0.316,-0.094,0.922,-2.856,16.664,-0.422,4
-0.334,-0.113,1.034,-9.840,16.880,-1.493,4
-0.347,-0.127,1.034,-6.732,26.051,0.165,4
-0.321,-0.144,0.979,-5.719,32.669,3.481,4
-0.285,-0.050,0.928,1.335,32.885,4.655,4
-0.273,-0.029,0.868,3.814,22.958,-1.734,4
-0.258,-0.087,0.896,5.805,19.865,-5.327,4
-0.233,-0.119,0.912,8.144,14.039,-2.943,4
-0.299,-0.104,1.078,12.405,10.190,-1.527,4
-0.309,-0.216,1.111,-4.287,27.922,-6.846,4
-0.251,-0.197,1.043,1.405,41.553,2.203,4
-0.214,-0.113,0.864,7.167,39.107,12.289,4
-0.233,-0.027,0.923,6.294,25.188,0.580,4
-0.246,-0.177,0.993,-1.983,22.814,-1.976,4
-0.259,-0.134,1.135,-11.306,26.339,-1.389,4
-0.211,-0.131,1.003,-1.110,40.546,2.479,4
-0.166,-0.109,0.857,5.351,34.935,7.522,4
-0.155,0.004,0.870,3.954,22.850,3.274,4
-0.123,-0.081,0.848,2.697,11.161,-0.491,4
-0.143,-0.032,0.895,3.744,1.918,-0.940,4
-0.150,-0.176,0.967,2.417,4.723,-2.805,4
-0.144,-0.148,0.892,13.068,4.651,6.141,4
-0.193,-0.019,0.999,2.767,-0.708,-1.700,4
-0.192,-0.236,1.039,-9.770,7.133,-3.980,4
-0.178,-0.122,0.971,4.827,14.470,3.896,4
-0.162,-0.015,0.903,8.982,11.089,2.963,4
-0.164,-0.052,0.892,-0.551,1.522,-2.494,4
-0.193,-0.227,1.042,1.090,3.572,-6.328,4
-0.219,-0.111,1.084,-0.691,12.312,2.410,4
-0.184,-0.134,0.958,-0.237,20.009,2.790,4
-0.130,-0.074,0.893,2.313,12.708,2.134,4
-0.128,-0.090,0.891,1.579,4.004,0.200,4
-0.161,-0.133,1.012,3.325,3.500,-1.907,4
-0.173,-0.133,1.022,5.944,8.788,1.305,4
-0.153,-0.162,1.004,4.582,14.434,1.374,4
-0.116,-0.120,0.917,3.884,12.276,4.137,4
-0.141,-0.071,0.969,7.830,7.709,5.243,4
-0.150,-0.149,1.010,-4.252,7.637,-6.674,4
-0.122,-0.172,0.991,4.687,10.981,5.208,4
-0.147,0.038,0.937,13.103,5.622,8.351,4
-0.150,-0.122,1.011,-4.776,3.033,-9.851,4
-0.131,-0.188,0.986,2.522,10.190,0.476,4
-0.123,-0.102,0.963,14.151,10.118,3.999,4
-0.156,-0.076,0.983,8.843,8.823,1.789,4
-0.150,-0.131,1.044,-3.100,10.046,-7.295,4
-0.112,-0.216,0.992,4.059,13.103,1.271,4
-0.091,-0.137,0.904,5.176,13.032,3.101,4
-0.098,-0.095,0.925,5.246,5.299,1.685,4
-0.124,-0.184,1.046,2.941,2.493,-4.221,4
-0.116,-0.180,0.986,4.024,9.902,3.101,4
-0.093,-0.126,0.943,7.760,10.046,4.966,4
-0.093,-0.053,0.923,10.205,7.601,1.858,4
-0.086,-0.026,0.905,0.043,-2.614,-2.114,4
-0.104,-0.176,0.964,0.741,-5.527,-2.460,4
-0.127,-0.234,1.053,0.462,-0.672,-3.669,4
-0.109,-0.196,0.988,2.871,5.371,3.447,4
-0.095,-0.130,0.939,6.259,3.357,5.001,4
-0.107,-0.089,0.952,-3.903,-3.693,0.269,4
-0.107,-0.212,0.981,1.405,-2.758,-1.942,4
-0.115,-0.116,0.992,4.513,-0.923,0.718,4
-0.120,-0.178,0.986,-1.738,0.048,-0.353,4
-0.112,-0.171,0.990,-1.459,4.328,1.616,4
-0.089,-0.132,0.964,4.687,3.644,5.381,4
-0.106,-0.051,0.974,2.452,-0.384,1.374,4
-0.105,-0.185,1.010,-9.421,-1.715,-3.323,4
-0.121,-0.131,1.020,-1.389,0.084,0.787,4
-0.126,-0.151,1.000,-1.983,2.925,0.027,4
-0.098,-0.180,0.970,6.328,6.090,1.512,4
-0.087,-0.086,0.931,8.947,2.853,3.032,4
-0.078,-0.199,0.952,4.722,-0.887,-0.042,4
-0.117,-0.160,1.024,4.163,0.156,5.035,4
-0.102,-0.187,0.976,-2.122,2.853,-1.804,4
-0.093,-0.201,0.968,-0.376,4.292,3.377,4
0.197,0.017,-1.519,250.141,-429.894,-48.744,5
-0.816,-0.600,-2.268,110.111,-709.064,-30.576,5
-2.346,-0.236,-1.434,-73.464,-829.911,-62.698,5
-3.514,-0.650,0.746,-40.534,-973.632,-68.466,5
-3.422,-0.500,3.500,147.266,-600.734,66.275,5
-2.219,0.828,1.659,199.018,-327.282,-8.366,5
-1.622,-0.081,1.144,48.861,-239.272,-191.533,5
-1.338,-1.891,1.086,-48.636,-176.007,-154.921,5
-0.872,-1.383,0.471,-42.560,-118.174,-13.409,5
-0.878,-0.249,0.302,-35.541,-87.602,28.143,5
-0.771,0.292,0.041,-64.280,-70.051,-8.401,5
-0.752,0.178,0.093,-61.626,-57.570,-48.744,5
-0.689,-0.364,-0.254,-32.503,-66.022,-53.130,5
-0.669,-0.632,-0.140,-27.719,-79.114,-30.058,5
-0.906,-0.153,0.215,-36.449,-85.552,-0.180,5
-1.026,-0.145,0.167,-23.493,-53.938,-11.648,5
-1.060,-0.076,0.166,-27.998,-26.136,-25.636,5
-0.961,-0.191,-0.356,-15.462,-21.784,-33.581,5
-0.870,-0.299,-0.316,16.036,-49.010,-24.738,5
-1.013,-0.176,-0.077,22.706,-39.695,-5.016,5
-1.091,-0.119,0.039,17.747,-25.668,-12.753,5
-1.153,-0.210,0.198,1.370,-0.744,-22.355,5
-1.046,-0.257,-0.104,-20.141,17.527,-20.973,5
-0.863,-0.224,-0.439,-22.166,9.651,-14.134,5
-0.859,-0.082,-0.414,0.567,-7.577,-2.149,5
-1.032,0.037,-0.063,4.652,-14.698,-10.404,5
-1.047,-0.168,-0.019,2.871,-4.484,-14.204,5
-1.032,-0.284,-0.025,-2.786,1.450,-5.845,5
-1.024,-0.222,-0.145,-17.347,1.774,6.521,5
-0.938,-0.039,-0.239,-13.401,-9.232,6.901,5
-0.968,-0.102,-0.227,-4.986,-3.405,3.688,5
-1.026,-0.052,-0.137,-3.729,-1.319,1.685,5
-1.017,-0.187,-0.088,-3.449,1.630,-3.496,5
-1.003,-0.244,-0.128,2.138,0.192,4.759,5
-1.007,-0.111,-0.142,-3.065,-4.772,10.389,5
-0.990,-0.104,-0.127,-0.516,0.443,10.976,5
-0.929,-0.145,-0.258,-3.973,-12.397,3.377,5
-0.937,-0.185,-0.108,-3.414,1.414,1.685,5
-1.018,-0.127,-0.032,-6.906,5.515,5.139,5
-0.972,-0.115,-0.162,-6.836,3.536,-0.007,5
-0.930,-0.122,-0.232,-5.160,1.378,-3.841,5
-0.933,-0.147,-0.176,-2.506,-8.404,-4.187,5
-1.001,-0.217,-0.085,-1.948,-11.641,-3.876,5
-0.988,-0.221,-0.149,0.706,-1.139,-1.631,5
-0.980,-0.140,-0.095,-5.195,2.781,-5.465,5
-0.926,-0.146,-0.189,1.335,-5.347,-7.779,5
-0.989,-0.132,-0.107,-0.306,-8.117,-7.641,5
-0.998,-0.118,-0.102,2.382,3.285,-6.363,5
-0.987,-0.150,-0.130,-5.929,0.695,-11.717,5
-0.976,-0.190,-0.125,-5.440,1.091,-8.504,5
-0.964,-0.130,-0.166,-1.529,6.522,-4.601,5
-0.942,-0.093,-0.257,1.160,5.838,-4.774,5
-0.961,-0.155,-0.152,0.602,-0.096,-6.812,5
-0.987,-0.120,-0.121,1.754,-0.600,-4.843,5
-1.016,-0.144,-0.062,-3.065,2.817,-7.848,5
-1.020,-0.182,-0.083,-5.056,11.269,-4.636,5
-0.947,-0.150,-0.242,-3.065,10.694,-1.355,5
-0.943,-0.075,-0.228,2.941,1.486,0.442,5
-1.002,-0.082,-0.138,6.957,3.860,-4.843,5
-1.041,-0.182,0.006,3.500,8.788,-9.679,5
-1.006,-0.191,-0.030,5.071,21.340,-4.636,5
-0.915,-0.206,-0.170,-1.529,24.217,-2.667,5
-0.912,-0.128,-0.208,-7.465,25.476,2.825,5
-0.992,-0.003,-0.111,-11.097,24.649,-0.560,5
-1.023,-0.048,-0.025,-14.798,23.498,-13.340,5
-0.994,-0.158,-0.106,-14.240,26.591,-14.411,5
-0.949,-0.238,-0.181,-8.373,16.520,-7.814,5
-0.963,-0.150,-0.088,-0.725,11.593,3.412,5
-1.015,-0.038,-0.049,1.090,15.837,6.555,5
-1.063,0.010,-0.007,0.427,17.024,-3.082,5
-1.097,-0.069,0.096,9.541,29.684,-9.541,5
-1.042,-0.104,-0.033,10.798,40.366,-10.024,5
-0.938,-0.173,-0.238,7.341,24.577,-5.430,5
-0.972,-0.161,-0.082,12.893,21.124,0.545,5
-1.085,-0.055,0.097,13.243,28.317,5.277,5
-1.193,0.007,0.299,18.341,45.833,-4.152,5
-1.199,-0.067,0.314,21.693,82.662,-9.990,5
-0.961,-0.186,-0.299,-0.900,76.332,-13.202,5
-0.773,-0.270,-0.324,11.252,49.250,11.149,5
-0.862,-0.074,-0.117,8.633,39.431,32.737,5
-1.013,0.151,0.136,4.722,39.071,19.681,5
-1.113,0.099,0.391,6.538,54.860,-2.494,5
-1.154,-0.137,0.382,12.998,84.604,-13.651,5
-1.021,-0.260,0.165,18.411,86.834,-10.611,5
-0.899,-0.270,0.020,18.166,79.497,7.660,5
-0.879,-0.074,0.063,13.871,70.290,4.310,5
-0.950,0.043,0.276,11.916,72.016,-2.218,5
-1.009,0.017,0.494,3.570,96.365,-15.827,5
-1.033,-0.223,0.310,8.424,113.701,-18.245,5
-0.902,-0.335,0.157,16.246,102.875,-4.947,5
-0.835,-0.271,0.066,13.382,91.222,10.631,5
-0.860,-0.209,0.112,9.576,69.211,24.689,5
-0.972,-0.052,0.368,-5.300,66.441,18.230,5
-1.082,0.030,0.642,-17.243,87.734,5.346,5
-1.080,-0.053,0.499,-13.401,110.033,-3.392,5
-0.895,-0.156,0.254,0.636,95.358,-1.734,5
-0.760,-0.179,0.152,15.443,78.382,3.827,5
-0.740,-0.093,0.247,17.712,62.197,10.838,5
-0.823,-0.009,0.411,16.036,53.170,13.429,5
-0.893,0.005,0.626,9.506,61.154,3.757,5
-0.895,-0.126,0.714,2.662,84.784,-4.429,5
-0.868,-0.219,0.478,-0.167,93.416,-1.493,5
-0.782,-0.303,0.327,5.700,65.039,0.994,5
-0.789,-0.233,0.459,4.513,50.329,9.906,5
-0.843,-0.038,0.623,1.230,47.883,8.040,5
-0.884,0.056,0.773,4.967,61.011,-4.290,5
-0.839,-0.134,0.740,2.871,76.045,-13.340,5
-0.766,-0.255,0.505,5.490,76.152,-5.707,5
-0.704,-0.202,0.502,10.274,68.779,4.690,5
-0.705,-0.069,0.504,13.487,56.803,5.001,5
-0.774,-0.107,0.751,6.817,53.781,-2.667,5
-0.838,-0.178,0.907,4.617,68.528,-9.886,5
-0.854,-0.211,0.878,3.535,87.014,-0.422,5
-0.790,-0.108,0.657,8.424,92.697,-0.353,5
-0.677,-0.047,0.510,14.570,78.131,-1.113,5
-0.674,0.000,0.646,18.585,64.499,-4.152,5
-0.675,-0.100,0.714,12.544,62.233,-5.845,5
-0.684,-0.181,0.905,13.452,66.873,-6.674,5
-0.672,-0.247,0.912,10.135,79.389,-0.491,5
-0.603,-0.207,0.779,18.970,88.597,7.281,5
-0.515,-0.110,0.570,19.214,76.944,7.039,5
-0.466,-0.013,0.554,7.970,56.838,-3.116,5
-0.500,-0.157,0.727,-4.078,42.344,-14.445,5
-0.567,-0.297,0.941,-13.192,45.329,-7.883,5
-0.573,-0.305,0.986,-4.671,62.557,3.550,5
-0.526,-0.154,0.813,7.097,71.225,14.914,5
-0.461,-0.063,0.663,8.878,54.645,8.351,5
-0.442,-0.116,0.656,-9.735,33.856,-0.940,5
-0.508,-0.205,0.921,-19.303,22.347,4.345,5
-0.582,-0.087,1.065,-9.909,29.828,5.933,5
-0.607,-0.162,1.103,-7.605,45.581,3.481,5
-0.542,-0.096,0.949,-2.786,60.579,6.175,5
-0.439,-0.085,0.756,6.259,56.371,4.241,5
-0.390,-0.099,0.764,2.836,42.056,1.478,5
-0.384,-0.111,0.817,4.687,34.108,0.891,5
-0.418,-0.119,0.964,12.509,33.137,1.858,5
-0.461,-0.162,1.076,3.465,45.545,-1.389,5
-0.403,-0.257,0.938,-0.551,58.241,0.545,5
-0.312,-0.152,0.752,7.865,55.220,9.975,5
-0.274,-0.099,0.702,11.916,40.798,6.486,5
-0.263,-0.108,0.768,1.998,24.289,-1.424,5
-0.292,-0.237,0.833,1.265,10.945,0.891,5
-0.360,-0.208,1.029,0.776,7.133,0.442,5
-0.353,-0.330,1.003,1.090,20.369,5.415,5
-0.335,-0.213,0.920,7.865,24.217,17.677,5
-0.301,-0.011,0.830,-3.030,5.551,7.591,5
-0.271,-0.122,0.839,-7.500,-2.686,-0.215,5
-0.322,-0.170,0.989,3.989,-8.476,3.343,5
-0.393,-0.105,1.060,5.455,-1.894,8.006,5
-0.406,-0.084,0.997,-3.519,4.436,5.312,5
-0.403,-0.142,1.071,-4.287,8.176,2.652,5
-0.356,-0.142,0.952,2.278,14.398,5.035,5
-0.333,-0.100,0.917,5.001,16.304,3.308,5
-0.311,-0.127,0.881,3.325,10.010,-1.389,5
-0.283,-0.168,0.870,1.649,8.392,-1.804,5
-0.276,-0.225,0.879,0.008,8.068,-1.458,5
-0.274,-0.200,0.879,0.811,10.802,1.789,5
-0.265,-0.162,0.847,0.113,9.651,1.892,5
-0.290,-0.161,0.912,1.195,10.478,0.752,5
-0.320,-0.213,0.931,2.313,14.758,2.445,5
-0.339,-0.231,0.976,0.357,13.211,3.481,5
-0.330,-0.206,0.992,-0.341,19.829,4.034,5
-0.289,-0.181,0.944,3.570,23.821,5.657,5
-0.238,-0.179,0.878,7.516,22.023,7.004,5
-0.207,-0.144,0.853,8.738,14.254,7.522,5
-0.235,-0.178,0.962,1.509,8.140,3.550,5
-0.250,-0.214,1.004,-5.021,12.708,5.174,5
-0.236,-0.147,0.969,-4.462,17.743,8.110,5
-0.214,-0.160,0.946,-4.392,18.355,7.004,5
-0.203,-0.107,0.914,-1.389,15.765,6.901,5
-0.210,-0.164,0.933,1.859,9.866,5.035,5
-0.245,-0.229,0.995,3.011,13.823,6.728,5
-0.267,-0.199,1.047,3.186,17.635,11.667,5
-0.257,-0.178,0.984,0.776,23.282,11.943,5
-0.230,-0.145,0.966,-1.110,26.123,10.424,5
-0.196,-0.099,0.878,-1.319,24.073,7.626,5
-0.164,-0.100,0.841,1.055,19.829,5.864,5
-0.181,-0.166,0.898,4.128,12.564,4.206,5
-0.207,-0.223,0.970,3.570,11.665,4.137,5
-0.196,-0.263,0.956,4.513,19.038,8.800,5
-0.186,-0.116,0.915,4.024,16.484,11.978,5
-0.186,-0.108,0.915,0.532,11.629,4.759,5
-0.196,-0.199,0.969,0.217,7.349,-1.838,5
-0.195,-0.229,1.030,0.741,12.096,2.583,5
-0.168,-0.254,0.969,-0.062,14.758,6.037,5
-0.173,-0.257,0.962,-5.300,13.103,6.452,5
-0.198,-0.221,1.011,-3.449,12.348,7.730,5
-0.178,-0.225,1.016,1.614,12.672,8.110,5
-0.146,-0.199,0.946,2.382,12.816,8.420,5
-0.139,-0.177,0.943,-0.376,12.168,9.526,5
-0.113,-0.129,0.860,-2.437,-0.168,2.065,5
-0.122,-0.135,0.880,-1.354,0.228,1.685,5
-0.146,-0.163,0.925,5.630,-3.981,0.338,5
-0.172,-0.227,1.002,7.865,-4.124,2.307,5
-0.199,-0.233,1.072,3.675,3.932,3.239,5
-0.205,-0.246,1.052,-7.640,10.262,4.276,5
-0.198,-0.148,1.037,-15.357,15.333,6.555,5
-0.145,-0.119,0.991,-13.786,14.794,6.486,5
-0.098,-0.084,0.925,-6.732,12.888,7.142,5
-0.073,-0.063,0.847,-5.440,2.134,0.891,5
-2.944,0.736,-0.473,-237.485,-899.614,-32.441,6
-3.290,0.201,2.323,-159.612,-741.973,87.414,6
-2.743,0.660,1.925,-62.464,-438.166,39.990,6
-1.821,-1.080,2.315,50.503,-264.628,-85.633,6
-1.215,-1.191,1.457,-15.217,-157.233,-34.651,6
-1.027,-0.485,0.301,-2.262,-34.768,45.240,6
-0.991,0.468,-0.409,-7.570,-25.920,41.510,6
-0.901,0.518,-0.470,-8.792,-73.036,-13.064,6
-0.899,-0.042,-0.072,-13.681,-102.276,-32.234,6
-0.910,-0.365,0.239,-35.471,-83.574,-13.996,6
-0.902,-0.382,0.397,-45.458,-57.642,3.170,6
-0.802,-0.130,0.167,-20.560,-12.145,2.341,6
-0.819,0.080,-0.157,9.262,7.529,-6.259,6
-0.854,0.024,-0.272,28.712,0.048,-14.307,6
-0.931,-0.062,-0.122,36.150,-17.864,-6.605,6
-0.990,-0.063,0.032,34.893,-18.547,-1.113,6
-0.986,-0.067,-0.067,18.970,-7.074,-1.355,6
-0.965,-0.094,-0.192,12.090,-5.455,-2.667,6
-0.968,-0.126,-0.153,17.712,-8.404,-7.537,6
-1.029,-0.115,-0.074,15.897,-7.649,-7.917,6
-1.043,-0.184,0.001,12.963,-2.110,-4.118,6
-1.038,-0.172,-0.068,7.655,5.551,2.514,6
-1.015,-0.011,-0.232,1.684,8.320,6.693,6
-0.995,0.041,-0.280,-2.576,-3.657,-1.216,6
-1.042,-0.034,-0.154,-0.935,-5.167,-5.430,6
-1.070,-0.103,-0.063,6.747,2.350,-5.154,6
-1.029,-0.106,-0.113,9.157,7.313,0.752,6
-1.009,-0.017,-0.143,7.236,7.816,4.655,6
-0.982,0.010,-0.151,5.281,5.335,-1.976,6
-0.970,-0.102,-0.110,0.986,4.903,-5.016,6
-0.998,-0.145,-0.091,3.046,12.168,-1.389,6
-0.996,-0.139,-0.015,3.605,19.685,0.476,6
-1.033,-0.056,0.034,2.278,28.857,1.823,6
-1.024,-0.028,-0.074,8.808,41.841,-3.047,6
-0.982,0.031,-0.156,7.551,43.027,-6.156,6
-0.970,-0.007,-0.152,3.325,36.158,-11.233,6
-0.993,-0.108,-0.027,3.465,39.575,-11.544,6
-1.031,-0.166,0.156,6.887,53.602,-9.368,6
-1.049,-0.221,0.177,12.265,74.462,-5.672,6
-1.031,-0.028,0.013,23.370,83.993,5.519,6
-0.951,0.098,-0.210,23.789,65.830,-6.294,6
-0.898,-0.103,-0.191,16.316,43.819,-10.266,6
-0.917,-0.057,-0.088,6.398,26.159,-0.698,6
-0.998,0.020,0.085,8.284,24.469,4.725,6
-1.027,-0.004,0.171,8.668,30.116,0.822,6
-1.011,0.049,0.096,10.798,36.661,-0.767,6
-0.997,-0.024,0.113,11.636,39.215,-3.496,6
-0.955,-0.120,0.020,18.446,27.094,-1.493,6
-0.990,-0.059,0.024,16.770,28.389,4.828,6
-1.030,-0.044,0.150,16.176,28.137,2.583,6
-1.061,-0.011,0.215,16.595,34.935,0.925,6
-1.131,-0.012,0.366,13.906,49.753,-7.917,6
-1.116,-0.133,0.270,9.436,70.434,-9.886,6
-0.971,-0.199,0.128,23.928,75.613,-0.767,6
-0.933,-0.060,0.045,19.109,67.700,9.526,6
-0.942,0.000,0.138,26.023,61.586,10.113,6
-0.999,0.029,0.368,22.252,64.248,1.754,6
-1.064,-0.066,0.591,21.135,86.834,-4.187,6
-1.044,-0.103,0.264,17.049,110.464,-5.499,6
-0.771,-0.178,-0.121,11.846,83.490,-0.767,6
-0.760,0.059,-0.120,1.754,45.365,7.039,6
-0.904,0.111,0.206,1.405,25.224,-7.054,6
-1.037,0.002,0.541,-8.094,31.195,-17.139,6
-1.111,-0.114,0.780,-18.640,57.054,-21.353,6
-1.066,-0.191,0.508,-18.220,86.511,-15.240,6
-0.771,-0.194,-0.041,-3.903,70.146,-1.907,6
-0.773,0.059,0.036,1.055,31.662,11.115,6
-0.885,0.205,0.314,6.538,16.053,1.650,6
-0.970,0.077,0.573,2.697,21.196,-10.231,6
-1.018,-0.082,0.758,-0.062,41.769,-14.273,6
-0.977,-0.118,0.563,0.776,66.298,-3.738,6
-0.809,-0.171,0.203,13.766,61.514,7.384,6
-0.784,0.078,0.201,16.630,36.050,17.504,6
-0.849,0.234,0.368,19.563,22.527,2.065,6
-0.933,0.054,0.687,14.744,24.793,-16.829,6
-0.965,-0.209,0.776,3.500,44.214,-18.901,6
-0.904,-0.307,0.611,3.465,69.355,2.514,6
-0.775,-0.087,0.327,15.198,61.118,19.231,6
-0.761,0.115,0.291,21.868,46.157,14.499,6
-0.792,0.070,0.409,14.360,31.051,-0.042,6
-0.869,-0.050,0.644,1.265,28.209,-9.022,6
-0.947,-0.151,0.840,-1.040,49.465,-8.643,6
-0.933,-0.175,0.779,-1.529,74.534,-0.871,6
-0.771,-0.157,0.425,8.354,76.800,10.424,6
-0.729,0.037,0.355,20.401,60.831,21.269,6
-0.712,0.111,0.406,16.595,42.668,7.902,6
-0.768,0.017,0.622,12.998,30.511,-5.396,6
-0.819,-0.105,0.789,8.878,38.676,-9.817,6
-0.845,-0.230,0.845,9.436,56.551,-1.147,6
-0.747,-0.156,0.531,12.230,61.118,10.665,6
-0.678,-0.013,0.447,16.001,48.638,14.120,6
-0.706,0.060,0.572,16.176,35.403,2.065,6
-0.762,-0.069,0.731,6.189,32.130,-7.330,6
-0.796,-0.184,0.898,3.430,48.099,-1.355,6
-0.786,-0.144,0.860,5.351,65.147,6.555,6
-0.700,-0.110,0.616,14.814,69.858,6.762,6
-0.614,-0.102,0.532,18.027,56.155,10.424,6
-0.611,0.036,0.599,17.293,44.178,6.970,6
-0.645,-0.026,0.721,8.913,35.726,-5.603,6
-0.675,-0.206,0.858,0.287,36.733,-8.919,6
-0.684,-0.202,0.900,-1.598,47.883,-1.182,6
-0.643,-0.069,0.744,3.919,54.896,6.728,6
-0.599,0.043,0.714,4.652,53.314,0.683,6
-0.590,0.016,0.696,0.252,48.638,-9.472,6
-0.628,0.014,0.891,-1.529,41.912,-15.896,6
-0.603,-0.147,0.889,1.719,51.120,-19.350,6
-0.598,-0.171,0.861,1.335,55.004,-6.743,6
-0.561,-0.133,0.789,7.621,53.925,4.345,6
-0.582,0.076,0.836,12.160,46.876,0.442,6
-0.528,-0.035,0.768,8.284,45.401,-8.539,6
-0.508,-0.103,0.798,8.563,37.381,-8.643,6
-0.537,-0.186,0.915,9.716,41.301,-4.843,6
-0.540,-0.144,0.951,3.465,46.157,-3.565,6
-0.517,-0.095,0.907,-0.795,50.796,-3.600,6
-0.495,-0.092,0.909,2.976,51.480,-1.044,6
-0.450,-0.037,0.817,10.763,51.336,0.234,6
-0.407,-0.042,0.769,12.405,45.545,-2.011,6
-0.399,-0.104,0.803,10.205,34.935,0.027,6
-0.435,-0.217,0.917,7.586,35.151,0.200,6
-0.434,-0.216,0.918,4.094,39.790,9.767,6
-0.515,-0.046,1.080,0.776,46.264,2.549,6
-0.437,-0.124,0.946,-2.471,56.587,-2.978,6
-0.364,-0.168,0.834,1.719,52.523,3.965,6
-0.335,-0.109,0.814,16.001,43.099,14.948,6
-0.410,0.098,0.934,24.557,43.423,4.725,6
-0.385,-0.117,0.969,5.735,37.165,-2.356,6
-0.343,-0.218,0.914,2.767,43.171,2.998,6
-0.304,-0.125,0.875,13.347,43.855,12.323,6
-0.295,-0.014,0.815,28.677,36.661,9.491,6
-0.342,-0.035,0.981,11.601,28.749,-3.703,6
-0.305,-0.186,0.971,9.646,38.999,-4.118,6
-0.236,-0.220,0.895,24.312,40.186,4.586,6
-0.240,-0.109,0.884,37.826,37.848,4.966,6
-0.209,-0.115,0.827,11.357,22.563,-6.466,6
-0.178,-0.267,0.804,3.570,10.190,-6.674,6
-0.190,-0.259,0.870,12.859,1.522,5.933,6
-0.320,-0.044,1.092,19.703,1.630,4.448,6
-0.339,-0.162,1.120,-8.757,12.132,-12.269,6
-0.311,-0.237,1.066,-8.617,27.310,-7.572,6
-0.232,-0.229,0.914,13.627,29.540,4.276,6
-0.192,-0.104,0.814,17.084,21.052,9.008,6
-0.205,-0.028,0.801,9.611,2.925,-0.456,6
-0.252,-0.280,1.015,-2.192,-3.477,-6.777,6
-0.311,-0.271,1.134,-1.808,6.989,2.514,6
-0.264,-0.203,1.024,0.532,21.412,4.966,6
-0.192,-0.142,0.857,2.173,17.923,5.588,6
-0.156,-0.074,0.805,5.525,5.982,2.479,6
-0.205,-0.109,0.886,6.608,-4.340,-3.254,6
-0.282,-0.270,1.097,3.430,2.457,-3.703,6
-0.276,-0.209,1.050,0.217,14.830,2.030,6
-0.257,-0.167,0.991,0.252,23.929,0.200,6
-0.219,-0.168,0.919,0.916,22.922,0.752,6
-0.177,-0.145,0.869,-0.551,15.693,0.960,6
-0.199,-0.044,0.927,6.573,8.392,-0.318,6
-0.238,-0.208,1.046,13.312,15.046,-3.565,6
-0.233,-0.239,1.034,9.506,22.922,-2.736,6
-0.202,-0.237,0.968,8.528,30.979,0.718,6
-0.142,-0.162,0.843,6.363,24.613,3.274,6
-0.114,-0.110,0.809,6.119,12.852,1.754,6
-0.118,-0.119,0.865,2.697,2.386,-2.943,6
-0.167,-0.190,0.953,5.106,-0.600,-3.634,6
-0.200,-0.330,1.061,5.001,8.176,1.927,6
-0.176,-0.216,0.986,3.500,17.312,3.447,6
-0.153,-0.205,0.922,4.548,17.707,2.756,6
-0.132,-0.221,0.903,-2.611,11.017,0.994,6
-0.147,-0.169,0.915,-5.160,3.177,1.098,6
-0.161,-0.218,0.990,-2.995,3.033,0.856,6
-0.168,-0.191,0.990,2.836,4.543,1.823,6
-0.150,-0.233,0.957,-5.021,6.522,2.203,6
-0.137,-0.224,0.940,-9.071,3.429,6.106,6
-0.133,-0.198,0.942,-6.627,-1.283,7.350,6
-0.143,-0.097,0.943,-5.021,-5.024,4.966,6
-0.159,-0.116,0.972,-2.611,-4.916,0.960,6
-0.158,-0.155,0.983,1.021,-4.952,-0.698,6
-0.165,-0.215,1.001,-3.484,-2.794,0.649,6
-0.164,-0.239,0.966,-5.440,-0.096,1.650,6
-0.148,-0.179,0.956,-5.824,-0.708,2.928,6
-0.135,-0.117,0.928,-5.300,-4.484,-1.769,6
-0.142,-0.154,0.944,-5.684,-10.167,-1.251,6
-0.190,-0.190,1.037,-6.662,-8.836,-1.838,6
-0.195,-0.205,1.036,-5.579,-0.851,0.234,6
-0.182,-0.203,0.984,-5.824,3.321,6.141,6
-0.164,-0.130,0.978,-4.916,4.400,3.412,6
-0.174,-0.151,0.974,-0.830,4.076,1.581,6
-0.171,-0.162,0.989,-2.157,4.795,0.096,6
-0.156,-0.164,0.965,-6.976,3.608,-1.355,6
-0.150,-0.147,0.983,-4.636,3.069,-1.873,6
-0.140,-0.150,0.970,0.811,2.817,0.925,6
-0.134,-0.141,0.952,1.125,2.098,-0.802,6
-0.166,-0.130,0.988,1.125,0.947,-0.111,6
-0.168,-0.232,1.026,-0.202,6.126,-2.114,6
-0.165,-0.228,0.990,0.636,10.550,2.238,6
-0.128,-0.189,0.940,2.557,11.629,4.621,6
-0.122,-0.179,0.931,0.322,7.924,1.892,6
-0.123,-0.208,0.967,2.243,5.946,1.029,6
-0.144,-0.185,0.984,1.195,9.399,4.414,6
-0.128,-0.162,0.968,3.011,15.154,3.377,6
-0.110,-0.121,0.918,4.582,14.470,3.792,6
-0.095,-0.122,0.905,4.792,9.291,-0.456,6
-0.110,-0.149,0.916,4.827,4.220,-1.320,6
-1.293,-0.541,-1.719,-109.048,-652.381,-44.046,7
-2.428,0.259,-1.291,-233.539,-844.333,-13.547,7
-3.544,0.122,2.359,-152.628,-872.135,3.205,7
-2.973,0.969,3.644,45.509,-421.765,30.664,7
-1.638,0.192,1.273,18.062,-261.679,-84.977,7
-1.043,-0.939,0.378,-73.150,-230.784,-96.651,7
-1.198,-0.977,0.768,-88.131,-166.548,-37.484,7
-1.045,-0.316,0.322,-40.115,-121.806,30.181,7
-0.965,0.217,0.198,-49.823,-101.341,1.996,7
-0.934,0.232,0.175,-73.045,-88.322,-27.743,7
-0.927,-0.109,0.288,-70.426,-58.721,-38.865,7
-0.770,-0.319,0.128,-45.807,-42.069,-33.546,7
-0.656,-0.335,-0.084,-28.871,-37.177,-10.784,7
-0.753,-0.099,-0.048,-14.379,-35.127,8.766,7
-0.865,0.096,0.043,-8.932,-34.804,3.516,7
-0.964,0.012,0.101,-7.011,-21.100,-7.814,7
-0.980,-0.088,-0.001,4.268,-16.209,-4.360,7
-0.965,-0.152,-0.046,15.897,-19.446,5.795,7
-0.941,-0.054,-0.199,19.843,-20.057,11.253,7
-1.001,0.098,-0.124,14.849,-24.769,1.132,7
-1.024,-0.063,-0.014,5.595,-20.705,-8.435,7
-1.017,-0.263,0.016,0.008,-15.490,-8.504,7
-0.988,-0.174,-0.051,-4.636,-11.821,8.006,7
-1.003,0.052,-0.147,-6.767,-13.188,11.529,7
-1.008,0.081,-0.115,-0.167,-17.971,0.994,7
-1.038,-0.066,-0.048,-2.017,-14.195,-2.529,7
-1.058,-0.114,-0.018,-4.357,-10.850,-0.940,7
-1.101,-0.048,-0.001,-2.646,1.019,3.930,7
-0.978,0.025,-0.331,0.706,-4.916,5.312,7
-0.995,0.121,-0.236,2.487,-19.950,-0.595,7
-1.048,-0.080,-0.010,-0.167,-18.619,-2.771,7
-1.091,-0.134,0.189,-1.529,-2.902,2.203,7
-1.006,-0.098,-0.100,-1.284,21.987,5.519,7
-0.886,-0.069,-0.270,-4.113,-3.945,-10.611,7
-0.976,-0.040,-0.119,0.776,-2.434,0.545,7
-1.009,-0.137,0.017,1.230,1.163,1.616,7
-1.059,-0.139,0.109,1.614,15.873,6.279,7
-0.938,-0.059,-0.328,1.894,11.701,6.970,7
-0.921,-0.067,-0.189,7.271,-2.074,2.238,7
-0.992,0.036,-0.056,6.922,-7.613,1.961,7
-1.047,-0.050,0.045,4.862,-1.067,-3.876,7
-1.053,-0.150,0.122,3.989,12.636,-3.185,7
-1.022,-0.115,0.002,-0.097,24.828,0.338,7
-0.982,-0.013,-0.147,-2.402,25.332,0.234,7
-0.933,-0.000,-0.260,-1.459,16.700,-1.942,7
-0.977,0.024,-0.175,2.836,4.687,-1.665,7
-1.071,-0.028,-0.002,2.033,3.069,-5.361,7
-1.099,-0.096,0.079,1.719,13.859,-6.846,7
-1.090,-0.117,0.057,-1.738,26.447,-4.049,7
-1.042,-0.039,-0.070,1.300,30.151,-4.325,7
-0.996,-0.017,-0.155,2.208,25.404,-5.327,7
-1.003,-0.040,-0.103,4.513,21.807,-6.121,7
-1.051,-0.049,0.060,5.665,26.159,-5.914,7
-1.107,-0.025,0.159,10.135,41.085,-9.195,7
-1.061,-0.047,0.097,5.874,53.494,-11.682,7
-0.970,-0.048,-0.077,6.957,53.458,-7.330,7
-0.924,-0.039,-0.118,5.630,46.408,-2.045,7
-0.923,0.017,-0.096,1.300,36.913,-0.491,7
-0.973,0.009,0.031,-2.751,29.576,-7.365,7
-1.007,-0.127,0.196,-8.233,32.453,-11.199,7
-1.035,-0.080,0.173,-8.513,48.674,-7.330,7
-1.013,-0.107,0.122,-1.249,56.443,-4.843,7
-0.982,-0.005,0.007,-0.027,51.551,-3.703,7
-0.973,0.024,0.028,2.802,43.387,-6.087,7
-1.019,0.016,0.144,1.824,42.416,-5.050,7
-1.048,-0.035,0.240,0.532,52.307,-3.945,7
-1.032,-0.074,0.242,-0.376,57.738,-4.739,7
-0.976,-0.011,0.060,5.421,61.658,0.062,7
-0.917,0.022,0.016,12.719,54.716,1.409,7
-0.922,0.055,0.054,14.919,44.502,1.616,7
-0.969,0.064,0.211,15.512,41.553,0.303,7
-1.021,-0.009,0.373,11.462,50.185,-3.289,7
-1.028,-0.027,0.411,9.401,75.613,-2.149,7
-0.959,-0.083,0.233,9.052,85.576,-2.667,7
-0.874,-0.046,0.015,13.208,75.073,4.310,7
-0.861,0.028,0.102,20.716,54.501,5.346,7
-0.919,0.100,0.294,21.484,49.286,-1.216,7
-0.967,-0.085,0.475,18.760,58.817,-6.708,7
-0.972,-0.150,0.480,18.551,77.483,-0.111,7
-0.952,-0.123,0.337,21.414,80.828,9.767,7
-0.890,-0.057,0.301,24.976,74.390,13.532,7
-0.847,0.032,0.277,18.620,59.068,11.322,7
-0.879,0.077,0.412,15.268,54.824,5.761,7
-0.918,-0.065,0.519,8.424,55.795,-1.493,7
-0.934,-0.120,0.593,8.808,64.895,2.687,7
-0.885,-0.133,0.445,12.265,71.117,8.317,7
-0.854,0.004,0.414,10.868,60.327,9.318,7
-0.840,0.027,0.423,16.909,55.148,1.547,7
-0.819,-0.067,0.439,16.560,51.551,-0.353,7
-0.822,-0.135,0.585,18.062,48.135,7.073,7
-0.880,-0.018,0.604,6.608,47.487,2.652,7
-0.888,-0.063,0.719,19.458,55.616,2.099,7
-0.824,-0.137,0.604,20.157,65.578,8.282,7
-0.769,-0.141,0.520,25.116,63.816,14.534,7
-0.752,-0.080,0.530,28.747,55.220,16.157,7
-0.788,-0.069,0.606,19.912,48.063,9.871,7
-0.838,-0.104,0.783,9.925,50.329,1.478,7
-0.814,-0.190,0.743,6.643,57.090,1.029,7
-0.760,-0.185,0.637,15.547,63.061,9.388,7
-0.697,-0.099,0.532,17.608,53.602,12.842,7
-0.677,0.014,0.546,20.820,40.798,10.147,7
-0.690,0.009,0.617,24.208,31.338,2.065,7
-0.706,-0.139,0.707,17.398,25.764,-3.461,7
-0.764,-0.187,0.792,12.370,28.245,0.545,7
-0.750,-0.184,0.790,10.344,36.014,5.933,7
-0.710,-0.103,0.682,12.509,37.848,8.317,7
-0.688,-0.069,0.647,10.833,30.799,4.345,7
-0.716,-0.080,0.742,6.154,35.726,-3.531,7
-0.749,-0.118,0.825,2.103,32.345,-7.606,7
-0.728,-0.197,0.822,7.551,42.704,-6.708,7
-0.673,-0.212,0.707,6.678,49.789,-1.907,7
-0.643,-0.079,0.663,9.157,41.697,-3.911,7
-0.626,-0.012,0.711,6.713,41.841,-20.490,7
-0.672,-0.224,0.763,-2.506,38.963,-27.847,7
-0.630,-0.286,0.803,0.532,39.611,-14.376,7
-0.626,-0.247,0.801,8.284,47.991,3.688,7
-0.582,-0.118,0.700,10.309,50.149,9.215,7
-0.554,-0.071,0.690,3.046,42.991,3.067,7
-0.544,-0.041,0.719,-4.427,38.927,-5.879,7
-0.559,-0.151,0.823,-7.046,38.855,-11.268,7
-0.590,-0.156,0.914,-8.932,46.912,-10.162,7
-0.560,-0.160,0.856,-7.395,61.226,-5.189,7
-0.540,-0.193,0.793,2.313,62.845,3.654,7
-0.518,0.015,0.733,2.452,49.609,5.726,7
-0.495,-0.046,0.775,-3.030,42.704,-8.366,7
-0.497,-0.219,0.853,1.509,40.150,-7.434,7
-0.532,-0.252,0.920,10.065,39.251,7.695,7
-0.552,-0.081,0.980,9.192,48.386,10.009,7
-0.521,-0.054,0.969,-1.284,56.623,-1.147,7
-0.444,-0.217,0.867,-7.605,62.305,-5.327,7
-0.392,-0.220,0.774,3.430,58.673,3.481,7
-0.449,-0.096,0.945,4.582,43.099,6.210,7
-0.446,-0.095,0.949,-3.973,50.113,-0.664,7
-0.400,-0.145,0.940,-4.462,54.321,0.062,7
-0.348,-0.160,0.857,5.036,54.213,5.899,7
-0.338,-0.025,0.783,11.462,40.222,6.313,7
-0.320,-0.026,0.794,6.084,33.604,0.752,7
-0.342,-0.159,0.940,0.287,28.785,-4.532,7
-0.368,-0.157,0.990,-4.951,29.108,-5.741,7
-0.379,-0.199,1.000,-5.859,36.266,-7.606,7
-0.381,-0.221,1.011,-4.671,43.099,0.372,7
-0.358,-0.013,0.980,3.395,46.228,3.239,7
-0.296,-0.160,0.917,3.116,46.516,-2.322,7
-0.263,-0.132,0.923,4.408,42.955,-1.113,7
-0.231,-0.179,0.870,-1.214,35.726,1.132,7
-0.260,-0.144,0.940,-3.554,32.022,1.892,7
-0.234,-0.142,0.920,0.252,28.569,3.101,7
-0.218,-0.104,0.898,4.582,25.728,3.688,7
-0.192,-0.087,0.875,7.062,18.570,1.720,7
-0.231,-0.077,0.907,9.820,8.428,1.374,7
-0.271,-0.199,1.047,-3.484,9.003,-4.256,7
-0.232,-0.219,0.962,-2.402,15.621,5.519,7
-0.254,-0.064,0.978,2.836,14.506,7.626,7
-0.236,-0.073,0.980,-4.078,16.053,-2.598,7
-0.204,-0.217,0.972,-5.789,16.556,-0.422,7
-0.204,-0.086,0.969,4.722,14.902,6.141,7
-0.211,-0.078,0.953,7.201,12.024,1.720,7
-0.207,-0.218,0.995,-1.179,12.888,0.062,7
-0.181,-0.173,0.921,1.859,13.355,7.522,7
-0.239,-0.014,1.034,-3.484,7.493,-1.769,7
-0.181,-0.271,0.968,-6.767,14.866,-3.012,7
-0.159,-0.143,0.895,4.862,12.600,7.453,7
-0.213,0.001,0.962,5.211,5.838,0.787,7
-0.205,-0.194,0.988,-6.033,8.176,-8.435,7
-0.202,-0.223,0.997,-3.205,10.010,0.545,7
-0.181,-0.094,0.948,8.459,12.636,4.621,7
-0.185,-0.033,0.918,0.986,6.126,-3.600,7
-0.177,-0.135,0.957,-4.043,4.975,-7.779,7
-0.199,-0.125,1.007,0.532,7.241,-8.677,7
-0.188,-0.116,0.972,4.303,10.262,-5.948,7
-0.119,-0.182,0.854,4.303,-0.564,-3.807,7
-0.157,-0.174,0.953,6.468,-1.139,-1.527,7
-0.219,-0.093,1.032,1.754,-1.715,-2.909,7
-0.206,-0.180,1.031,-4.602,5.119,-5.568,7
-0.205,-0.111,1.049,-0.900,10.154,-3.738,7
-0.154,-0.135,0.948,2.941,13.931,-3.012,7
-0.114,-0.116,0.878,4.373,9.723,-3.980,7
-0.139,-0.121,0.915,2.348,-1.319,-4.947,7
-0.201,-0.170,1.078,-0.795,2.997,-3.220,7
-0.202,-0.229,1.087,-2.122,15.441,0.718,7
-0.152,-0.157,0.987,3.011,20.800,2.341,7
-0.100,-0.101,0.890,1.160,16.556,1.063,7
-0.090,-0.114,0.898,-3.554,8.392,-1.976,7
-0.130,-0.108,0.981,0.217,4.543,-1.424,7
-0.157,-0.158,1.026,3.849,8.140,-1.285,7
-0.183,-0.174,1.036,2.348,17.024,-1.596,7
-0.161,-0.195,1.014,1.544,24.613,1.167,7
-0.115,-0.126,0.917,-1.983,21.376,0.407,7
-0.119,-0.045,0.930,-2.890,12.816,-1.078,7
-0.105,-0.125,0.932,1.300,12.636,-4.947,7
-0.095,-0.165,0.960,4.792,6.881,-1.665,7
-0.098,-0.158,0.956,2.173,3.500,0.891,7
-0.114,-0.180,1.011,1.021,3.069,2.618,7
-0.107,-0.133,0.980,0.287,2.242,3.412,7
-0.105,-0.142,0.973,-3.240,2.062,0.925,7
-0.099,-0.110,0.943,-0.306,-9.519,0.338,7
-0.132,-0.133,1.016,3.465,-1.679,0.200,7
-0.116,-0.155,0.978,1.090,2.601,2.272,7
-0.110,-0.151,0.947,-0.027,0.767,2.376,7
-0.099,-0.154,0.951,-1.494,-0.923,-0.284,7
-0.593,0.067,-1.104,53.960,-589.080,-5.119,8
-1.509,0.269,-1.017,-63.093,-669.681,-68.915,8
-2.284,0.372,0.163,-122.562,-715.646,-113.196,8
-2.844,-0.537,1.935,15.268,-625.550,-25.118,8
-2.333,-0.026,1.623,32.798,-380.080,-7.641,8
-1.773,-0.312,1.498,-55.550,-307.644,-54.857,8
-1.491,-0.957,1.284,-51.953,-189.926,-82.662,8
-1.186,-1.139,1.060,-38.684,-81.272,-27.709,8
-0.976,-0.349,0.367,-78.528,-12.325,21.235,8
-0.788,0.330,-0.294,-76.083,-39.371,0.752,8
-0.778,0.319,-0.272,-60.369,-62.857,-42.734,8
-0.740,-0.148,-0.054,-49.020,-70.482,-57.897,8
-0.795,-0.506,0.343,-58.623,-67.821,-30.161,8
-0.856,-0.442,0.369,-46.087,-35.019,-1.838,8
-0.846,-0.104,0.101,-23.005,-9.987,-0.284,8
-0.858,0.030,-0.179,-1.214,-14.770,-10.093,8
-0.896,0.069,-0.140,9.157,-32.178,-18.141,8
-0.973,-0.155,0.057,-0.621,-34.983,-31.197,8
-0.948,-0.336,0.068,-5.544,-24.122,-22.770,8
-0.990,-0.274,0.054,0.532,-11.677,-7.779,8
-0.957,-0.069,-0.092,10.379,-26.963,0.960,8
-0.985,-0.028,-0.073,6.154,-29.085,-4.429,8
-1.018,-0.115,0.035,-3.624,-26.208,-10.473,8
-1.054,-0.183,0.084,-10.014,-10.670,-9.506,8
-1.043,-0.102,0.010,-15.252,2.026,-6.363,8
-1.051,-0.041,-0.042,-14.798,5.119,-8.677,8
-0.951,-0.069,-0.204,-14.274,-1.930,-10.266,8
-0.967,-0.072,-0.090,-14.170,-12.433,-11.475,8
-1.040,-0.116,0.031,-13.227,-5.311,-14.307,8
-1.030,-0.231,0.088,-21.119,2.565,-12.027,8
-1.028,-0.114,0.041,-22.655,15.549,-10.991,8
-1.035,-0.061,0.010,-19.966,14.434,-14.307,8
-0.988,-0.124,-0.033,-5.440,12.564,-10.991,8
-0.955,-0.177,-0.042,2.487,13.103,-7.088,8
-1.005,-0.079,0.031,2.627,14.075,3.170,8
-1.032,-0.002,0.060,5.560,24.145,1.340,8
-1.051,0.003,0.140,4.792,35.582,-3.531,8
-0.997,-0.070,-0.024,4.582,39.934,-11.026,8
-0.930,-0.197,-0.057,6.957,31.914,-6.708,8
-0.949,-0.124,-0.063,13.487,30.619,4.483,8
-1.003,-0.031,0.039,14.989,26.879,6.797,8
-1.053,-0.028,0.144,10.589,27.922,2.238,8
-1.091,-0.062,0.278,13.941,40.294,-0.871,8
-1.089,-0.139,0.251,12.090,61.011,0.476,8
-1.031,-0.241,0.166,5.805,69.607,7.557,8
-0.971,-0.092,0.054,6.398,70.290,18.852,8
-0.896,0.073,-0.113,8.074,58.169,10.596,8
-0.888,0.056,-0.069,1.405,40.294,-6.708,8
-0.924,-0.124,0.056,-1.319,24.181,-13.271,8
-0.956,-0.232,0.188,5.141,25.872,-0.802,8
-0.974,-0.179,0.205,10.728,27.922,17.228,8
-0.993,-0.068,0.182,8.109,29.648,21.511,8
-1.024,0.123,0.126,4.862,28.209,10.389,8
-1.021,0.081,0.133,7.830,20.944,-7.019,8
-1.041,-0.129,0.170,9.017,16.844,-15.516,8
-1.041,-0.193,0.245,9.401,24.685,-5.223,8
-1.061,-0.163,0.337,10.763,34.431,4.725,8
-1.083,-0.065,0.313,9.052,43.279,5.554,8
-1.050,0.057,0.282,9.890,50.293,-2.253,8
-0.988,-0.041,0.175,8.528,49.861,-13.651,8
-0.927,-0.192,0.209,11.636,46.516,-10.197,8
-0.934,-0.158,0.249,18.097,48.314,1.961,8
-0.954,-0.027,0.325,22.671,51.084,2.272,8
-0.980,0.064,0.364,16.630,60.075,-13.893,8
-0.965,-0.144,0.386,3.255,68.815,-21.353,8
-0.924,-0.263,0.348,7.655,65.470,-14.342,8
-0.873,-0.166,0.279,21.938,68.995,2.376,8
-0.856,-0.070,0.231,22.531,64.715,10.838,8
-0.881,0.103,0.303,9.786,52.451,4.034,8
-0.910,-0.054,0.428,-1.948,49.142,-9.748,8
-0.929,-0.182,0.468,-4.148,54.896,-6.570,8
-0.918,-0.228,0.435,3.046,55.292,5.174,8
-0.878,-0.087,0.430,14.255,55.616,15.501,8
-0.853,0.084,0.284,14.151,52.846,8.144,8
-0.838,0.009,0.320,7.271,42.632,-8.090,8
-0.878,-0.090,0.467,8.424,37.021,-9.368,8
-0.924,-0.172,0.583,8.982,44.502,-6.017,8
-0.904,-0.184,0.588,18.306,50.221,1.271,8
-0.881,-0.146,0.550,16.420,58.889,5.623,8
-0.854,-0.047,0.441,23.928,49.034,5.346,8
-0.806,-0.067,0.468,27.316,51.336,-0.422,8
-0.770,-0.043,0.461,25.569,47.164,2.341,8
-0.775,-0.088,0.531,23.439,43.351,2.099,8
-0.811,-0.084,0.565,20.541,34.755,-1.078,8
-0.784,-0.229,0.634,19.563,40.402,0.165,8
-0.783,-0.203,0.633,27.665,52.019,7.902,8
-0.783,-0.144,0.622,28.328,53.134,12.876,8
-0.769,-0.123,0.543,23.265,49.897,7.660,8
-0.727,-0.186,0.556,20.890,42.668,3.516,8
-0.741,-0.184,0.627,20.855,40.546,5.830,8
-0.782,-0.175,0.725,20.751,43.387,8.800,8
-0.765,-0.220,0.692,16.246,51.587,8.006,8
-0.752,-0.147,0.671,14.186,52.415,10.769,8
-0.746,-0.141,0.649,16.944,53.134,0.131,8
-0.752,-0.167,0.709,18.655,54.249,6.382,8
-0.734,-0.200,0.710,17.189,58.925,7.730,8
-0.704,-0.225,0.697,17.258,62.773,8.869,8
-0.658,-0.200,0.651,18.306,60.975,11.184,8
-0.638,-0.133,0.601,17.258,52.451,11.356,8
-0.656,-0.137,0.703,15.198,49.753,3.930,8
-0.683,-0.221,0.836,5.874,48.746,-0.526,8
-0.680,-0.245,0.857,4.862,60.435,1.789,8
-0.637,-0.279,0.726,12.195,66.909,7.004,8
-0.598,-0.260,0.715,15.233,62.845,12.393,8
-0.627,-0.147,0.781,10.973,55.544,11.253,8
-0.642,-0.136,0.877,1.579,61.514,0.234,8
-0.589,-0.213,0.820,0.008,67.628,-3.185,8
-0.531,-0.290,0.735,4.024,62.162,1.823,8
-0.501,-0.241,0.696,4.268,52.774,8.351,8
-0.510,-0.145,0.747,4.967,46.192,7.211,8
-0.528,-0.144,0.853,6.189,46.336,3.101,8
-0.512,-0.224,0.850,3.814,46.552,-2.080,8
-0.489,-0.294,0.833,1.544,46.840,-0.249,8
-0.467,-0.273,0.833,4.478,46.336,7.626,8
-0.436,-0.228,0.751,8.808,42.560,10.044,8
-0.439,-0.202,0.851,9.122,35.834,7.384,8
-0.451,-0.226,0.904,6.189,35.762,0.822,8
-0.436,-0.361,0.913,5.665,39.611,2.238,8
-0.421,-0.331,0.873,6.852,40.977,11.149,8
-0.405,-0.190,0.836,5.909,34.108,12.427,8
-0.378,-0.155,0.833,2.278,32.094,4.966,8
-0.366,-0.204,0.845,0.916,28.245,-1.113,8
-0.375,-0.284,0.870,-0.516,21.951,1.167,8
-0.400,-0.293,0.930,-1.144,23.210,2.272,8
-0.395,-0.260,0.934,2.138,25.008,5.346,8
-0.363,-0.241,0.862,7.097,27.598,17.194,8
-0.330,-0.130,0.807,8.633,22.095,5.208,8
-0.330,-0.282,0.829,4.792,15.261,-1.113,8
-0.396,-0.321,1.009,2.243,17.779,-1.458,8
-0.405,-0.368,1.036,-1.738,31.698,2.203,8
-0.368,-0.350,0.960,-8.198,43.279,8.904,8
-0.327,-0.200,0.893,-6.033,39.467,15.950,8
-0.291,-0.139,0.812,2.208,37.632,4.759,8
-0.273,-0.229,0.851,4.478,30.907,-0.318,8
-0.279,-0.358,0.916,-1.948,28.533,-1.113,8
-0.277,-0.317,0.936,-0.970,31.554,6.659,8
-0.250,-0.276,0.877,-2.087,33.029,7.177,8
-0.224,-0.178,0.821,-2.297,22.131,5.726,8
-0.194,-0.241,0.828,-6.208,13.895,-1.078,8
-0.217,-0.291,0.887,-3.729,3.932,-0.007,8
-0.259,-0.256,0.982,-4.497,4.579,-0.802,8
-0.293,-0.236,1.008,-5.719,8.500,-1.389,8
-0.299,-0.312,1.056,-9.840,15.046,-1.562,8
-0.285,-0.265,1.010,-12.948,20.153,1.996,8
-0.239,-0.232,0.907,-11.202,19.541,0.856,8
-0.224,-0.255,0.899,-7.465,13.535,1.132,8
-0.209,-0.236,0.890,-6.732,7.529,2.928,8
-0.250,-0.202,0.969,-3.554,2.170,2.928,8
-0.279,-0.249,1.022,-7.640,8.176,2.134,8
-0.247,-0.267,0.971,-4.322,16.197,5.484,8
-0.255,-0.171,0.871,-2.332,14.614,6.797,8
-0.195,-0.170,0.889,-9.770,8.536,-1.838,8
-0.170,-0.206,0.866,-9.770,1.666,-2.633,8
-0.165,-0.183,0.837,2.802,-3.189,2.790,8
-0.270,-0.104,0.983,5.490,-9.268,-2.978,8
-0.305,-0.376,1.141,-23.493,0.299,-7.986,8
-0.289,-0.339,1.115,-23.214,21.052,2.410,8
-0.214,-0.262,0.951,-2.995,29.936,12.185,8
-0.172,-0.106,0.832,4.443,25.404,13.429,8
-0.171,-0.044,0.784,-0.935,8.859,-0.146,8
-0.171,-0.259,0.909,-10.433,-2.218,-10.128,8
-0.218,-0.209,1.017,-5.125,-0.887,0.856,8
-0.192,-0.227,0.947,-1.005,7.744,4.206,8
-0.191,-0.169,0.876,1.649,3.752,5.139,8
-0.184,-0.130,0.935,-5.824,-3.513,-3.703,8
-0.171,-0.202,0.907,-3.344,-4.556,-4.429,8
-0.184,-0.159,0.937,6.084,-4.772,-0.629,8
-0.204,-0.188,0.936,9.052,-5.311,-2.391,8
-0.218,-0.299,1.020,-3.973,-6.606,-3.323,8
-0.212,-0.310,0.987,-10.014,2.350,0.338,8
-0.205,-0.189,0.955,-3.100,2.925,4.345,8
-0.194,-0.154,0.907,3.605,1.271,-0.387,8
-0.194,-0.164,0.915,5.106,-3.873,-1.769,8
-0.225,-0.192,1.009,4.757,-3.657,-4.601,8
-0.229,-0.302,1.008,-1.075,2.709,-3.185,8
-0.219,-0.234,1.000,-1.214,5.694,0.062,8
-0.193,-0.222,0.892,-0.935,5.515,2.583,8
-0.180,-0.144,0.905,2.627,0.803,-0.353,8
-0.179,-0.214,0.933,5.700,-2.146,-1.044,8
-0.238,-0.162,1.026,5.106,-3.549,-0.975,8
-0.211,-0.256,0.968,-0.271,5.658,-1.113,8
-0.219,-0.263,0.992,-1.529,5.838,1.478,8
-0.203,-0.239,0.981,-5.789,8.176,0.787,8
-0.187,-0.215,0.942,-4.567,5.587,2.998,8
-0.189,-0.152,0.949,2.208,3.680,2.445,8
-0.184,-0.141,0.905,4.268,1.918,-0.249,8
-0.216,-0.209,1.000,2.348,-0.420,-2.943,8
-0.222,-0.238,1.002,-3.065,4.939,-1.665,8
-0.200,-0.270,0.970,-3.868,9.507,1.650,8
-0.162,-0.228,0.922,0.217,9.974,5.657,8
-0.150,-0.169,0.878,3.290,5.191,5.001,8
-0.163,-0.181,0.909,4.827,1.486,-1.320,8
-0.194,-0.256,0.970,1.824,-0.887,-2.218,8
-0.232,-0.262,1.051,-4.636,4.112,2.790,8
-0.206,-0.256,0.991,-4.497,11.953,2.998,8
-0.177,-0.185,0.946,-3.379,11.341,6.348,8
-0.151,-0.160,0.891,-4.602,8.536,2.445,8
-0.142,-0.145,0.892,-2.576,2.997,-1.355,8
-0.169,-0.208,0.968,-0.865,-0.816,-2.322,8
-0.187,-0.261,1.016,-3.659,3.033,0.131,8
-1.010,0.119,-0.707,-20.560,-561.350,11.253,9
-1.793,0.608,-0.604,-18.779,-669.034,-15.171,9
-2.539,0.655,1.061,39.607,-614.617,-90.399,9
-2.351,-0.680,1.695,77.775,-478.448,-82.455,9
-1.871,-0.590,1.674,36.046,-355.263,-68.294,9
-1.538,-1.004,1.512,-33.830,-256.968,-50.609,9
-1.359,-0.586,1.135,-28.068,-155.363,-26.534,9
-1.110,-0.181,0.607,-45.598,-94.184,-10.059,9
-0.946,0.041,0.273,-76.991,-70.662,-29.125,9
-0.886,-0.046,0.044,-103.356,-57.391,-43.977,9
-0.825,-0.284,0.024,-83.940,-72.281,-34.513,9
-0.854,-0.122,0.061,-65.712,-73.288,-18.659,9
-0.904,0.008,0.165,-59.985,-68.432,-24.117,9
-0.918,-0.084,0.193,-67.528,-58.326,-30.748,9
-0.896,-0.179,0.152,-60.963,-39.911,-28.434,9
-0.857,-0.218,0.042,-46.995,-36.530,-19.799,9
-0.856,-0.221,0.026,-32.608,-35.307,-6.432,9
-0.912,-0.142,0.088,-27.754,-32.574,-0.146,9
-0.999,-0.022,0.153,-19.408,-20.561,-5.741,9
-0.992,-0.071,0.105,-15.916,-9.951,-11.060,9
-0.921,-0.176,-0.033,-19.024,-9.232,-9.472,9
-0.900,-0.199,-0.026,-6.906,-13.080,2.065,9
-0.939,-0.070,-0.032,3.640,-13.476,10.735,9
-1.001,0.017,0.043,7.551,-13.440,9.111,9
-1.043,0.026,0.087,3.186,-10.886,3.067,9
-1.040,-0.044,0.025,-5.090,-1.535,-1.493,9
-1.041,-0.081,-0.037,-5.579,-1.247,0.303,9
-1.008,-0.120,-0.022,-0.376,-3.513,3.930,9
-1.027,-0.035,0.014,-0.865,-5.419,7.004,9
-1.044,0.035,0.045,-4.427,-2.506,1.823,9
-1.027,-0.017,0.020,-5.370,-0.312,-4.325,9
-1.013,-0.113,0.030,-9.036,-0.456,-3.841,9
-1.008,-0.079,0.009,-1.633,2.098,0.683,9
-1.004,-0.026,-0.023,3.744,3.824,1.305,9
-1.010,-0.041,-0.004,2.871,2.853,-1.631,9
-1.011,-0.084,-0.008,1.579,1.558,-1.458,9
-1.020,-0.103,0.036,2.348,0.731,0.338,9
-1.001,-0.044,-0.060,1.300,1.055,3.827,9
-0.989,0.012,-0.064,-2.541,-4.232,2.963,9
-1.001,-0.018,-0.035,-2.960,-8.620,-1.424,9
-1.029,-0.070,0.071,-4.287,-4.628,-2.184,9
-0.996,-0.100,-0.026,-3.344,-0.851,1.754,9
-0.991,-0.092,-0.044,-2.157,-5.527,4.310,9
-1.011,-0.000,-0.022,-0.027,-8.692,4.586,9
-0.997,-0.061,-0.025,-3.030,-12.505,-0.180,9
-1.025,-0.086,0.058,-5.230,-8.548,3.170,9
-1.048,-0.035,0.064,-6.732,-0.528,1.340,9
-1.049,-0.038,0.043,-6.033,7.061,-2.287,9
-0.991,-0.061,-0.091,-5.021,5.119,-3.461,9
-0.987,-0.075,-0.052,-8.129,2.961,-4.187,9
-0.998,-0.108,0.029,-8.582,4.687,-2.218,9
-0.949,-0.077,-0.103,-8.932,4.364,1.547,9
-0.997,-0.056,0.059,-10.503,2.421,0.718,9
-1.016,-0.078,0.099,-8.897,11.485,1.685,9
-0.965,-0.073,-0.149,1.230,15.801,4.552,9
-0.920,-0.070,-0.076,0.182,-2.722,1.063,9
-0.999,-0.024,0.032,-0.725,-2.110,1.409,9
-1.037,-0.066,0.106,-2.506,5.658,-0.560,9
-1.048,-0.117,0.142,0.916,15.909,0.442,9
-0.958,-0.076,-0.159,6.608,13.607,4.552,9
-0.987,0.014,-0.022,6.608,9.615,1.650,9
-0.995,-0.016,0.011,3.221,10.190,-3.807,9
-1.017,-0.085,0.148,4.827,14.075,-5.050,9
-1.072,-0.032,0.266,9.471,27.310,-6.846,9
-1.081,-0.050,0.229,13.417,45.653,-11.060,9
-0.921,-0.171,-0.046,4.967,48.962,-3.945,9
-0.856,-0.058,-0.226,11.182,34.252,3.585,9
-0.935,0.017,-0.094,8.703,16.952,1.201,9
-1.059,-0.014,0.222,6.782,15.154,-2.494,9
-1.160,-0.030,0.456,14.744,37.093,-5.568,9
-1.191,-0.028,0.507,19.738,70.757,-12.097,9
-1.122,-0.074,0.308,16.176,98.559,-11.820,9
-1.013,-0.031,0.105,16.525,101.221,-8.159,9
-1.017,-0.021,0.172,10.100,106.976,-16.241,9
-1.057,0.001,0.394,6.852,117.586,-14.825,9
-1.156,0.078,0.613,1.195,135.821,-23.080,9
-1.180,0.046,0.641,-8.233,176.426,-33.442,9
-1.140,-0.095,0.471,-7.954,205.415,-39.211,9
-0.931,-0.187,0.200,13.417,206.962,-27.398,9
-0.849,-0.116,0.242,47.325,192.935,-10.197,9
-0.847,0.073,0.242,79.870,193.654,-9.333,9
-0.884,0.131,0.492,77.950,190.345,-20.110,9
-0.910,-0.055,0.671,50.572,196.747,-33.995,9
-0.858,-0.301,0.541,49.245,195.956,-12.373,9
-0.690,-0.219,0.442,56.788,171.427,11.805,9
-0.576,-0.038,0.266,64.436,141.467,27.625,9
-0.636,0.286,0.576,60.175,108.486,15.501,9
-0.707,0.114,0.808,44.007,108.594,-12.684,9
-0.680,-0.272,0.886,23.754,117.082,-12.131,9
-0.615,-0.325,0.776,25.325,125.103,9.560,9
-0.523,-0.115,0.671,30.598,117.622,24.654,9
-0.450,0.091,0.486,16.805,95.538,13.463,9
-0.455,0.120,0.711,1.789,70.074,-8.435,9
-0.469,-0.136,0.854,2.417,66.765,-23.840,9
-0.485,-0.404,0.928,12.474,63.025,0.787,9
-0.460,-0.189,0.902,24.662,66.370,22.029,9
-0.430,0.042,0.796,26.093,62.881,15.570,9
-0.426,0.045,0.804,4.652,42.308,-0.698,9
-0.437,-0.045,0.932,-1.878,44.034,-11.648,9
-0.412,-0.292,0.969,8.494,39.862,-8.504,9
-0.418,-0.208,0.993,23.055,49.142,10.009,9
-0.407,-0.064,0.917,21.379,48.998,16.192,9
-0.401,-0.075,0.925,3.221,48.962,6.141,9
-0.394,-0.119,0.985,1.370,51.983,-2.736,9
-0.361,-0.179,0.961,10.693,56.011,1.616,9
-0.304,-0.164,0.824,14.814,50.472,8.559,9
-0.269,-0.099,0.813,13.243,36.841,8.317,9
-0.257,-0.169,0.870,7.900,29.360,2.583,9
-0.317,-0.136,1.015,-2.122,25.332,0.234,9
-0.332,-0.155,1.043,0.986,36.482,-1.182,9
-0.292,-0.160,0.969,1.160,40.078,3.136,9
-0.259,-0.092,0.887,7.621,37.201,5.139,9
-0.212,-0.150,0.849,11.217,32.525,2.514,9
-0.207,-0.140,0.868,11.252,21.771,3.516,9
-0.251,-0.128,0.981,8.982,15.693,1.789,9
-0.311,-0.183,1.164,7.551,25.152,8.559,9
-0.256,-0.244,1.038,11.287,43.711,2.065,9
-0.174,-0.132,0.823,20.681,40.510,6.244,9
-0.101,-0.097,0.711,15.757,21.268,0.787,9
-0.125,-0.171,0.816,14.884,0.515,-3.911,9
-0.283,-0.288,1.203,7.097,4.759,-4.601,9
-0.251,-0.258,1.103,0.392,26.267,-0.387,9
-0.154,-0.236,0.893,7.167,32.741,6.037,9
-0.124,-0.085,0.809,20.820,21.627,9.180,9
-0.139,-0.106,0.846,16.630,8.967,-2.874,9
-0.177,-0.241,1.009,8.738,3.752,-5.292,9
-0.207,-0.319,1.078,10.449,13.535,2.099,9
-0.201,-0.235,1.066,11.462,29.216,6.072,9
-0.158,-0.223,0.962,17.084,32.166,7.004,9
-0.123,-0.153,0.900,13.522,24.900,7.488,9
-0.095,-0.167,0.845,10.379,17.779,1.340,9
-0.086,-0.196,0.871,10.728,8.356,-4.498,9
-0.102,-0.334,0.938,12.789,3.429,-2.322,9
-0.161,-0.245,1.077,8.109,8.644,4.241,9
-0.128,-0.312,0.993,-0.656,22.527,2.928,9
-0.095,-0.260,0.917,3.430,21.484,4.655,9
-0.081,-0.155,0.892,12.335,13.859,4.206,9
-0.106,-0.191,0.952,11.916,8.967,-1.078,9
-0.132,-0.308,1.016,6.328,7.421,0.580,9
-0.116,-0.298,1.000,-0.062,14.938,2.652,9
-0.093,-0.214,0.927,3.919,14.398,5.968,9
-0.058,-0.182,0.838,7.865,7.924,5.312,9
-0.111,-0.219,0.980,10.414,-0.672,-2.184,9
-0.114,-0.282,1.022,7.411,3.824,-2.011,9
-0.101,-0.310,0.983,4.582,9.291,-0.526,9
-0.116,-0.273,1.015,7.027,12.060,4.621,9
-0.097,-0.227,0.931,9.820,12.960,4.448,9
-0.085,-0.235,0.943,7.970,9.327,0.511,9
-0.091,-0.222,0.976,8.214,9.615,1.581,9
-0.099,-0.266,0.993,4.373,12.312,-1.251,9
-0.088,-0.322,0.986,6.049,18.283,0.372,9
-0.061,-0.274,0.942,8.913,19.218,4.414,9
-0.049,-0.243,0.945,16.874,21.124,2.134,9
-0.030,-0.257,0.868,18.097,18.283,3.032,9
-0.019,-0.278,0.871,7.865,6.989,0.234,9
-0.052,-0.235,0.940,1.125,-0.312,-3.496,9
-0.080,-0.418,1.049,0.916,2.817,-4.049,9
-0.067,-0.295,0.991,5.386,12.132,5.070,9
-0.021,-0.263,0.868,8.843,10.514,4.863,9
-0.005,-0.222,0.856,4.513,1.666,-0.664,9
-0.022,-0.292,0.908,-0.062,-5.995,-5.914,9
-0.066,-0.392,1.032,4.268,-3.117,-4.498,9
-0.079,-0.321,1.035,3.395,4.723,3.101,9
-0.046,-0.295,0.945,-2.367,9.327,2.410,9
-0.023,-0.274,0.879,2.941,2.601,2.756,9
-0.030,-0.240,0.916,2.697,-2.650,-2.287,9
-0.029,-0.308,0.947,-0.202,-4.664,-4.325,9
-0.060,-0.329,0.968,6.189,-5.851,-0.698,9
-0.091,-0.320,1.052,-1.808,1.594,0.718,9
-0.054,-0.313,0.960,-6.976,5.658,1.754,9
-0.042,-0.273,0.920,3.954,2.889,2.618,9
-0.035,-0.206,0.934,4.617,-0.420,-1.320,9
-0.054,-0.314,0.989,3.779,-1.067,-1.562,9
-0.061,-0.289,0.971,5.386,3.860,0.891,9
-0.042,-0.327,0.966,0.846,6.665,0.234,9
-0.028,-0.252,0.924,3.884,5.515,-0.526,9
-0.026,-0.354,0.951,1.963,2.134,-1.424,9
-0.042,-0.319,0.982,3.046,2.781,1.512,9
-0.034,-0.291,0.951,1.684,5.694,1.029,9
-0.029,-0.294,0.943,1.265,6.126,-1.320,9
-0.031,-0.309,0.950,3.535,4.328,-0.353,9
-0.025,-0.340,0.940,2.767,5.011,-0.526,9
-0.054,-0.294,0.979,5.805,4.076,0.718,9
-0.047,-0.349,1.003,-1.948,6.881,-1.182,9
-0.030,-0.317,0.965,0.217,9.723,4.690,9
-0.023,-0.265,0.942,5.909,13.355,2.756,9
0.006,-0.255,0.849,7.690,8.032,-1.320,9
0.011,-0.284,0.879,1.929,-1.283,-4.152,9
-0.048,-0.396,1.029,0.846,-1.607,-3.082,9
-0.051,-0.361,1.025,0.427,9.831,3.757,9
-0.013,-0.321,0.914,4.967,17.563,4.725,9
0.005,-0.267,0.890,3.535,8.500,3.827,9
0.000,-0.238,0.891,2.173,3.393,-0.456,9
-0.001,-0.322,0.936,1.370,0.983,-3.496,9
-0.015,-0.352,0.953,2.906,1.163,-1.527,9
-0.022,-0.332,0.951,1.998,3.177,0.372,9
-0.030,-0.302,0.970,-1.144,4.795,-0.318,9
-0.023,-0.306,0.959,1.684,7.205,-1.113,9
-0.009,-0.297,0.950,2.592,7.529,0.096,9
0.003,-0.297,0.920,3.814,5.802,0.062,9
0.288,-0.317,-1.106,12.509,-353.321,-99.173,10
-0.297,-0.287,-0.993,-17.941,-529.808,-111.089,10
-1.196,-0.337,0.116,-78.283,-614.581,-115.579,10
-1.622,0.458,0.558,-85.512,-536.929,-148.842,10
-1.582,-0.219,-0.442,-125.775,-601.309,-107.048,10
-2.045,-0.117,1.052,-61.487,-632.528,-45.912,10
-1.970,-0.104,1.640,-25.624,-505.711,3.239,10
-1.825,-0.206,1.738,-35.331,-329.368,-46.533,10
-1.577,-0.618,1.799,-23.458,-206.831,-56.239,10
-1.061,-0.721,0.854,-26.741,-122.957,-33.892,10
-0.661,-0.477,0.273,-53.001,-86.667,-17.968,10
-0.620,-0.212,-0.081,-90.645,-75.805,-20.593,10
-0.794,-0.095,0.080,-95.324,-82.243,-30.817,10
-0.985,-0.271,0.378,-79.540,-81.272,-45.566,10
-1.049,-0.461,0.424,-61.347,-60.268,-30.921,10
-0.999,-0.282,0.187,-42.560,-52.319,-8.850,10
-1.019,-0.014,0.087,-25.903,-42.393,-5.258,10
-1.036,0.058,0.039,-25.100,-36.710,-9.506,10
-1.040,-0.029,0.033,-19.722,-42.968,-14.376,10
-1.079,-0.063,0.121,-20.351,-40.163,-14.653,10
-1.047,-0.165,0.178,-15.392,-31.459,-14.204,10
-1.046,-0.144,0.206,-14.449,-18.187,-10.611,10
-1.022,-0.138,0.084,-19.582,-5.599,-6.743,10
-0.977,-0.025,-0.047,-23.808,-10.958,-12.477,10
-0.960,-0.076,-0.071,-15.113,-23.258,-14.756,10
-0.962,-0.190,0.014,-16.020,-29.373,-14.514,10
-1.025,-0.237,0.228,-17.522,-21.424,-6.708,10
-1.065,-0.174,0.312,-17.313,-1.427,3.723,10
-0.938,0.081,-0.250,-13.122,0.048,-3.531,10
-0.885,0.006,-0.226,-2.367,-29.696,-16.483,10
-0.969,-0.070,-0.021,-2.157,-36.314,-15.758,10
-1.070,-0.179,0.229,-0.481,-23.402,-8.263,10
-1.099,-0.254,0.348,-3.868,5.443,3.343,10
-1.027,0.042,-0.057,-14.135,14.902,8.800,10
-0.874,0.004,-0.378,0.427,-7.289,-8.470,10
-0.915,0.057,-0.139,2.522,-28.905,-10.197,10
-1.018,-0.090,0.084,1.475,-24.337,-6.570,10
-1.121,-0.181,0.309,-4.636,-8.261,-7.261,10
-1.146,-0.116,0.287,-6.173,19.829,-2.356,10
-1.008,-0.036,-0.108,-8.163,25.404,-3.669,10
-0.874,-0.067,-0.302,1.160,6.917,-3.565,10
-0.941,-0.043,-0.080,2.487,-6.031,0.511,10
-1.043,-0.045,0.117,-0.621,-4.268,-2.563,10
-1.041,-0.121,0.135,-2.611,4.723,-2.287,10
-1.005,-0.043,0.031,-1.075,12.384,0.545,10
-0.986,-0.034,-0.046,-3.379,10.945,-2.702,10
-0.957,-0.093,-0.073,-0.097,2.493,-1.942,10
-1.000,-0.096,0.009,0.357,0.263,-0.215,10
-1.038,-0.132,0.128,-0.306,6.018,1.063,10
-1.054,-0.088,0.130,4.059,18.822,3.792,10
-1.012,-0.028,0.026,3.081,23.102,2.928,10
-0.971,-0.051,-0.038,3.116,23.642,0.718,10
-0.974,-0.038,-0.011,-0.306,13.067,-0.664,10
-1.025,0.009,0.094,-0.970,14.506,-3.012,10
-1.036,-0.105,0.159,3.046,25.907,-5.948,10
-0.995,-0.158,0.152,3.081,31.662,-4.360,10
-0.945,-0.135,-0.070,1.684,38.064,5.070,10
-0.933,-0.050,-0.075,10.589,26.303,6.486,10
-0.991,0.029,0.068,8.005,15.369,3.965,10
-1.038,-0.044,0.193,3.290,17.024,-4.463,10
-1.059,-0.073,0.270,4.932,30.008,-4.601,10
-0.955,-0.131,0.052,1.509,37.309,-1.976,10
-0.897,-0.134,-0.087,9.716,31.770,3.654,10
-0.909,-0.042,-0.016,14.639,16.233,11.840,10
-1.015,0.036,0.156,12.928,10.334,5.968,10
-1.082,-0.063,0.334,10.624,20.333,-1.700,10
-1.085,-0.111,0.360,9.855,35.475,-3.254,10
-0.970,-0.120,0.044,4.582,45.545,-0.353,10
-0.895,-0.071,-0.060,11.881,33.424,1.927,10
-0.951,-0.074,0.137,9.716,19.649,5.795,10
-1.048,0.007,0.272,13.347,29.001,5.277,10
-1.085,-0.037,0.439,18.166,43.387,-1.942,10
-1.002,-0.145,0.255,14.989,54.465,-2.840,10
-0.884,-0.185,-0.028,9.786,45.725,1.720,10
-0.887,-0.110,0.091,9.925,27.130,8.628,10
-0.961,0.030,0.234,11.392,24.145,10.182,10
-1.015,-0.046,0.384,9.646,30.619,-0.111,10
-1.047,-0.114,0.455,14.430,50.652,-0.975,10
-1.000,-0.148,0.298,11.427,66.262,1.271,10
-0.872,-0.185,0.006,5.630,51.300,6.382,10
-0.886,-0.105,0.118,7.097,35.690,11.322,10
-0.949,-0.038,0.274,9.541,33.137,9.767,10
-0.997,-0.050,0.509,11.217,37.704,3.308,10
-1.042,-0.078,0.489,11.636,53.026,4.276,10
-0.993,-0.118,0.512,13.278,78.202,3.930,10
-0.862,-0.222,0.088,10.519,68.779,4.137,10
-0.852,-0.106,0.103,20.297,39.035,14.396,10
-0.916,-0.014,0.377,17.817,38.460,11.218,10
-0.975,-0.027,0.576,12.893,34.719,1.374,10
-0.994,-0.124,0.619,11.113,48.171,-1.942,10
-0.904,-0.223,0.403,10.065,62.737,-1.285,10
-0.818,-0.191,0.162,19.458,43.495,10.147,10
-0.838,-0.029,0.323,14.570,22.383,9.767,10
-0.887,-0.078,0.470,9.681,19.146,-0.422,10
-0.942,-0.145,0.621,11.043,27.958,-2.874,10
-0.945,-0.162,0.651,15.897,40.654,-1.562,10
-0.900,-0.178,0.509,18.166,49.969,2.549,10
-0.827,-0.220,0.336,15.443,45.006,7.039,10
-0.815,-0.110,0.344,15.687,33.352,9.146,10
-0.845,-0.038,0.453,9.297,27.418,1.236,10
-0.878,-0.136,0.621,6.503,27.058,-2.633,10
-0.880,-0.172,0.643,10.519,41.265,-1.044,10
-0.834,-0.209,0.554,12.055,49.393,3.170,10
-0.803,-0.215,0.445,8.528,52.738,7.350,10
-0.767,-0.125,0.393,10.309,38.819,8.213,10
-0.771,-0.066,0.458,7.970,25.548,0.718,10
-0.784,-0.174,0.570,3.640,25.152,-3.358,10
-0.799,-0.258,0.631,2.662,27.814,0.165,10
-0.811,-0.225,0.655,5.770,35.798,6.659,10
-0.804,-0.173,0.624,3.430,38.028,8.282,10
-0.780,-0.111,0.509,3.884,34.000,6.797,10
-0.789,-0.154,0.605,5.176,33.532,2.549,10
-0.777,-0.222,0.619,5.351,35.906,1.063,10
-0.760,-0.256,0.602,5.001,39.503,8.144,10
-0.801,-0.083,0.619,7.271,38.028,14.085,10
-0.785,-0.078,0.716,1.998,35.079,-4.083,10
-0.747,-0.242,0.641,6.119,45.653,-1.216,10
-0.717,-0.267,0.576,10.274,45.509,7.902,10
-0.704,-0.149,0.559,14.639,37.884,10.458,10
-0.696,-0.120,0.598,10.484,31.770,6.348,10
-0.720,-0.124,0.722,5.316,29.288,-1.493,10
-0.754,-0.199,0.802,1.440,31.554,-1.216,10
-0.753,-0.210,0.781,-3.484,41.661,0.511,10
-0.707,-0.248,0.641,0.951,41.265,3.930,10
-0.671,-0.183,0.605,6.992,33.101,4.586,10
-0.677,-0.149,0.707,3.675,27.382,0.787,10
-0.694,-0.206,0.791,0.602,29.684,-0.146,10
-0.690,-0.211,0.768,2.068,39.287,2.445,10
-0.647,-0.170,0.657,4.722,40.078,5.001,10
-0.615,-0.118,0.617,8.354,29.037,2.376,10
-0.627,-0.139,0.688,5.525,22.347,-2.253,10
-0.645,-0.223,0.746,3.779,21.232,-3.565,10
-0.653,-0.272,0.821,0.532,25.008,-0.698,10
-0.649,-0.224,0.833,2.138,31.734,4.517,10
-0.626,-0.173,0.718,6.084,36.338,3.136,10
-0.595,-0.202,0.707,5.630,31.123,3.343,10
-0.596,-0.214,0.736,3.814,28.245,2.963,10
-0.596,-0.223,0.774,2.487,29.504,2.030,10
-0.600,-0.203,0.783,1.265,27.274,2.479,10
-0.590,-0.212,0.766,-3.030,28.605,1.478,10
-0.590,-0.177,0.804,0.532,27.238,1.512,10
-0.574,-0.202,0.791,3.919,28.461,1.409,10
-0.543,-0.160,0.727,7.236,25.368,2.549,10
-0.545,-0.164,0.732,3.640,18.319,0.131,10
-0.572,-0.173,0.821,5.595,17.347,-2.149,10
-0.573,-0.260,0.860,3.884,20.297,-0.249,10
-0.578,-0.192,0.851,3.605,25.152,3.205,10
-0.620,-0.170,0.822,3.675,25.512,1.063,10
-0.526,-0.290,0.730,0.741,23.138,-2.149,10
-0.525,-0.230,0.818,5.665,20.656,3.723,10
-0.529,-0.190,0.840,9.192,18.894,5.035,10
-0.520,-0.208,0.824,5.909,20.692,2.272,10
-0.522,-0.213,0.861,2.871,19.362,0.960,10
-0.519,-0.234,0.875,0.986,26.231,0.476,10
-0.501,-0.259,0.826,0.043,28.101,2.618,10
-0.481,-0.244,0.816,1.125,26.771,4.241,10
-0.482,-0.195,0.831,1.230,24.721,4.103,10
-0.474,-0.195,0.838,-2.890,24.325,1.512,10
-0.467,-0.220,0.821,-0.202,23.318,2.928,10
-0.469,-0.209,0.887,1.125,26.015,3.170,10
-0.458,-0.245,0.884,4.478,29.252,3.447,10
-0.449,-0.244,0.838,5.106,34.503,7.764,10
-0.445,-0.223,0.899,3.954,32.274,7.868,10
-0.447,-0.225,0.886,0.148,35.475,3.205,10
-0.419,-0.217,0.828,2.313,34.072,3.585,10
-0.409,-0.243,0.833,4.198,31.266,6.659,10
-0.420,-0.157,0.885,4.478,29.360,4.794,10
-0.412,-0.254,0.920,0.462,31.734,-0.836,10
-0.403,-0.309,0.923,1.300,33.065,5.070,10
-0.397,-0.248,0.905,3.570,36.266,10.735,10
-0.382,-0.197,0.878,1.021,35.510,7.626,10
-0.364,-0.187,0.874,-2.751,32.094,6.452,10
-0.371,-0.221,0.939,-4.811,29.756,1.201,10
-0.370,-0.276,0.978,-6.138,35.007,2.479,10
-0.352,-0.304,0.959,-1.529,40.042,7.281,10
-0.286,-0.203,0.823,1.440,37.812,9.560,10
-0.263,-0.164,0.776,1.021,25.188,7.591,10
-0.285,-0.213,0.891,-1.913,17.312,1.063,10
-0.316,-0.283,0.969,-5.475,16.340,1.271,10
-0.329,-0.301,0.999,-6.313,25.728,5.692,10
-0.317,-0.264,0.982,-6.383,32.705,12.047,10
-0.274,-0.210,0.887,-7.675,34.935,10.458,10
-0.238,-0.151,0.840,0.497,28.677,6.624,10
-0.228,-0.176,0.829,0.392,19.110,2.307,10
-0.262,-0.240,0.975,-11.236,15.837,-0.698,10
-0.285,-0.250,1.017,-0.027,18.570,5.933,10
-0.256,-0.218,0.959,2.557,26.411,8.662,10
-0.218,-0.159,0.866,5.909,24.505,7.868,10
-0.208,-0.187,0.863,1.405,15.981,3.481,10
-0.224,-0.213,0.908,-3.344,11.341,0.856,10
-0.252,-0.270,1.004,-6.592,13.463,-1.424,10
-0.245,-0.301,1.011,-6.173,21.556,3.136,10
-0.206,-0.239,0.925,0.706,23.965,8.731,10
-0.174,-0.140,0.860,5.840,21.088,7.868,10
-0.150,-0.125,0.807,5.735,10.694,1.547,10
-0.164,-0.243,0.824,3.221,-0.168,-2.736,10
-0.213,-0.306,0.991,-0.656,-5.743,1.409,10
-0.245,-0.332,1.015,-6.033,0.839,9.664,10
-0.250,-0.090,1.080,-2.960,13.463,4.517,10
-0.210,-0.243,0.969,-0.551,16.628,-0.180,10
-0.237,-0.326,-1.209,-54.084,-474.923,-78.863,11
-1.176,-0.259,-1.552,-82.090,-692.052,-56.861,11
-2.278,0.255,-0.679,-162.720,-765.351,-60.798,11
-2.996,-0.054,1.916,-56.004,-711.114,-26.534,11
-2.687,0.485,2.901,8.703,-443.345,-48.917,11
-1.819,-0.424,1.883,-37.601,-285.525,-79.934,11
-1.330,-0.712,0.992,-76.747,-180.072,-73.647,11
-1.018,-0.770,0.304,-85.093,-144.105,-24.462,11
-1.000,-0.031,0.316,-96.023,-107.671,18.782,11
-1.002,0.438,0.235,-119.768,-95.910,-3.911,11
-1.008,0.034,0.474,-125.111,-76.561,-47.708,11
-0.864,-0.380,0.426,-107.896,-58.074,-34.410,11
-0.734,-0.295,0.179,-85.512,-33.940,-2.736,11
-0.732,-0.020,0.004,-44.515,-29.696,2.030,11
-0.810,0.069,-0.003,-20.909,-33.329,-9.541,11
-0.852,-0.104,0.108,-4.008,-37.249,-14.653,11
-0.926,-0.130,0.162,8.563,-26.747,-7.123,11
-0.952,-0.084,0.155,15.338,-15.670,-4.152,11
-0.957,-0.019,-0.030,17.817,-6.750,-4.912,11
-0.974,-0.027,-0.004,19.703,-5.959,-3.496,11
-0.975,-0.060,0.006,28.468,-12.505,-2.771,11
-1.015,-0.052,0.057,26.512,-8.440,1.201,11
-1.047,-0.030,0.078,20.052,-1.535,0.891,11
-1.016,-0.049,0.045,15.163,10.514,-3.323,11
-0.988,-0.099,0.012,7.551,5.838,-0.422,11
-1.015,-0.104,0.073,5.455,5.730,4.379,11
-1.022,-0.087,0.083,7.795,9.579,6.417,11
-1.047,0.034,0.076,8.144,16.484,7.108,11
-1.062,0.095,0.078,5.840,21.663,-0.767,11
-1.005,-0.056,0.008,7.760,20.441,-7.226,11
-0.985,-0.097,0.026,11.881,14.039,-1.976,11
-0.977,-0.113,0.015,7.411,16.520,0.096,11
-1.010,-0.055,0.072,8.494,14.326,1.063,11
-1.067,0.043,0.175,7.690,17.743,-1.665,11
-1.059,-0.011,0.147,3.919,27.166,-12.269,11
-0.948,-0.172,-0.070,1.754,18.426,-7.261,11
-0.941,-0.085,-0.087,8.459,8.032,7.108,11
-1.011,0.010,0.115,6.538,3.932,5.208,11
-1.051,-0.026,0.260,1.335,8.608,-6.121,11
-1.084,-0.089,0.324,6.363,29.144,-2.460,11
-1.062,-0.039,0.216,7.132,48.674,-2.218,11
-0.941,-0.091,-0.109,5.211,44.250,0.994,11
-0.932,0.016,-0.040,7.586,22.706,2.756,11
-1.006,0.069,0.119,2.522,14.146,-2.322,11
-1.087,-0.072,0.431,4.443,22.814,-9.506,11
-1.058,-0.053,0.343,9.716,44.466,-5.983,11
-0.957,-0.095,0.046,5.840,50.904,-3.669,11
-0.898,-0.063,-0.014,9.646,31.986,1.789,11
-0.943,0.014,0.042,9.192,22.778,3.032,11
-1.001,-0.023,0.273,6.328,22.563,-2.563,11
-1.059,-0.106,0.443,7.201,38.532,0.891,11
-1.056,-0.019,0.419,4.303,54.537,0.165,11
-0.954,-0.021,0.166,1.929,70.686,-1.942,11
-0.844,-0.108,-0.051,2.138,55.040,-1.804,11
-0.914,0.007,0.140,13.976,49.250,2.479,11
-0.984,0.005,0.427,17.433,62.377,-1.734,11
-1.039,-0.035,0.550,14.116,61.514,-4.187,11
-1.104,-0.028,0.551,10.414,81.296,-9.679,11
-0.921,-0.084,0.221,17.503,76.980,-6.501,11
-0.824,-0.024,-0.083,26.408,50.832,1.581,11
-0.872,0.027,0.221,23.754,25.260,-1.182,11
-0.970,-0.042,0.547,15.233,27.382,-7.779,11
-1.106,-0.053,0.817,10.938,49.178,-8.919,11
-1.071,-0.070,0.892,4.443,88.201,-13.133,11
-0.919,-0.242,0.261,6.119,118.916,-8.194,11
-0.750,-0.213,-0.043,17.468,79.317,9.284,11
-0.813,0.101,0.307,17.678,50.544,14.534,11
-0.898,0.158,0.627,11.601,47.415,-1.113,11
-0.937,-0.021,0.806,6.922,69.283,-10.819,11
-0.923,-0.078,0.844,13.243,102.696,-7.641,11
-0.799,-0.196,0.321,13.243,109.781,-2.563,11
-0.715,-0.082,0.259,14.744,86.367,5.554,11
-0.746,0.052,0.324,12.370,63.960,3.067,11
-0.805,0.075,0.640,15.478,49.933,-8.815,11
-0.806,-0.109,0.891,11.532,67.341,-18.487,11
-0.793,-0.236,0.776,11.008,90.935,-9.748,11
-0.741,-0.194,0.563,27.211,89.640,5.864,11
-0.706,0.028,0.473,29.306,77.052,8.731,11
-0.721,0.047,0.582,16.001,63.169,-1.527,11
-0.771,-0.011,0.861,5.176,65.650,-8.470,11
-0.773,-0.109,0.968,4.443,88.813,-6.363,11
-0.725,-0.154,0.772,8.424,118.161,-0.975,11
-0.631,-0.082,0.504,22.462,99.818,7.730,11
-0.582,-0.007,0.455,17.224,79.821,0.096,11
-0.593,-0.038,0.657,14.360,56.299,-2.771,11
-0.638,-0.196,0.906,0.427,55.760,-4.325,11
-0.637,-0.173,0.967,2.627,73.994,4.379,11
-0.620,-0.132,0.792,12.125,82.806,12.911,11
-0.572,0.077,0.737,23.614,68.707,6.279,11
-0.544,0.075,0.734,20.192,56.946,-7.330,11
-0.503,-0.164,0.787,17.154,52.019,-9.402,11
-0.506,-0.155,0.773,35.801,48.530,6.003,11
-0.495,0.106,0.787,44.287,45.509,13.601,11
-0.542,-0.090,1.125,10.973,37.740,-11.406,11
-0.538,-0.287,1.073,-6.033,66.154,-11.889,11
-0.490,-0.369,0.900,7.446,67.197,6.555,11
-0.446,-0.050,0.826,27.979,60.867,18.575,11
-0.392,-0.009,0.727,25.569,40.941,4.759,11
-0.379,-0.008,0.769,13.243,30.475,-8.228,11
-0.400,-0.190,0.939,6.992,21.304,-11.060,11
-0.422,-0.257,1.016,3.570,28.497,-3.116,11
-0.389,-0.223,0.914,9.925,30.259,8.248,11
-0.345,-0.027,0.753,16.176,25.907,0.096,11
-0.309,-0.019,0.638,14.395,7.169,1.167,11
-0.375,-0.104,0.911,10.135,-19.698,-7.226,11
-0.432,-0.285,1.107,3.151,-5.635,-6.052,11
-0.426,-0.252,1.058,8.040,14.290,5.899,11
-0.385,-0.160,0.857,6.747,23.749,7.246,11
-0.341,-0.087,0.741,4.548,14.542,1.063,11
-0.371,-0.053,0.896,5.455,-1.463,-8.090,11
-0.403,-0.290,1.016,0.287,1.810,-10.991,11
-0.420,-0.283,1.063,2.173,12.276,0.718,11
-0.403,-0.215,1.017,11.462,24.181,9.906,11
-0.341,-0.174,0.825,8.109,24.505,8.351,11
-0.307,-0.090,0.764,7.167,15.333,5.208,11
-0.339,-0.113,0.840,6.363,2.062,-3.082,11
-0.390,-0.250,1.027,-1.738,3.141,-3.876,11
-0.389,-0.263,1.061,-5.475,17.851,2.928,11
-0.373,-0.167,0.982,1.824,29.037,11.080,11
-0.326,-0.119,0.841,2.348,28.353,9.146,11
-0.297,-0.077,0.788,3.360,19.973,2.238,11
-0.310,-0.151,0.926,4.932,12.852,0.338,11
-0.329,-0.238,0.959,-0.795,17.671,-0.111,11
-0.343,-0.223,1.056,-1.075,27.490,3.757,11
-0.324,-0.241,0.962,-4.392,38.711,8.938,11
-0.281,-0.148,0.909,-0.760,41.697,9.284,11
-0.250,-0.130,0.791,2.417,32.094,7.246,11
-0.243,-0.068,0.827,-0.446,20.800,0.683,11
-0.273,-0.267,0.995,-5.963,14.614,-4.774,11
-0.293,-0.264,1.083,-7.675,25.476,2.272,11
-0.269,-0.247,0.994,-3.659,37.273,9.146,11
-0.223,-0.144,0.891,-3.100,38.424,8.662,11
-0.190,-0.129,0.817,-0.970,29.648,5.381,11
-0.196,-0.163,0.885,-1.494,19.326,-0.526,11
-0.182,-0.180,0.905,0.043,14.794,-0.906,11
-0.198,-0.179,0.914,5.805,10.334,3.516,11
-0.228,-0.162,1.072,-1.494,13.679,-1.596,11
-0.200,-0.284,1.009,-9.700,25.260,-1.424,11
-0.175,-0.232,0.938,5.560,27.742,10.942,11
-0.188,-0.037,0.826,3.605,19.002,11.874,11
-0.201,-0.119,0.858,-7.814,9.075,-5.016,11
-0.192,-0.242,1.067,-5.963,7.097,0.649,11
-0.166,-0.205,0.969,6.678,12.024,9.146,11
-0.145,-0.087,0.845,10.554,11.629,8.662,11
-0.174,0.079,0.899,12.614,-2.470,4.966,11
-0.240,-0.173,1.016,-3.170,-6.750,-17.243,11
-0.203,-0.370,1.182,0.392,6.414,-3.358,11
-0.204,-0.224,1.059,11.706,13.463,9.077,11
-0.164,-0.125,0.855,10.624,17.635,7.660,11
-0.145,-0.110,0.866,7.341,3.788,-2.494,11
-0.151,-0.263,0.909,0.881,-2.362,-4.739,11
-0.180,-0.164,1.023,-2.017,-5.527,-1.631,11
-0.189,-0.230,0.967,-2.890,2.314,3.481,11
-0.159,-0.158,0.955,8.005,2.637,7.833,11
-0.147,-0.147,0.885,6.922,-1.319,1.547,11
-0.164,-0.166,0.917,6.224,-4.916,-1.458,11
-0.192,-0.142,1.050,5.001,-4.448,-4.670,11
-0.193,-0.296,1.036,-0.760,2.529,-1.942,11
-0.178,-0.201,0.992,3.011,9.039,4.517,11
-0.152,-0.169,0.916,3.325,4.364,1.512,11
-0.153,-0.131,0.887,5.176,-1.283,-0.871,11
-0.165,-0.187,0.907,6.957,-7.541,-0.836,11
-0.194,-0.250,1.071,3.605,-8.009,-5.154,11
-0.202,-0.378,1.096,0.671,5.407,4.137,11
-0.183,-0.205,1.019,2.627,15.190,8.489,11
-0.161,-0.166,0.902,-1.529,13.967,7.108,11
-0.139,-0.172,0.878,-3.554,6.989,1.927,11
-0.151,-0.157,0.968,1.789,1.163,1.685,11
-0.155,-0.197,0.974,0.078,4.867,-0.007,11
-0.169,-0.237,1.016,-2.157,7.457,2.169,11
-0.160,-0.212,0.985,-4.846,16.233,3.343,11
-0.145,-0.185,0.944,-2.681,16.844,3.481,11
-0.132,-0.169,0.890,1.125,13.535,3.481,11
-0.128,-0.128,0.910,2.452,7.888,-0.456,11
-0.134,-0.197,0.933,-0.062,0.947,-0.560,11
-0.151,-0.249,1.028,1.824,1.630,0.787,11
-0.156,-0.183,1.020,2.348,7.205,5.139,11
-0.136,-0.187,0.943,0.602,8.572,3.654,11
-0.122,-0.173,0.916,3.151,5.047,1.581,11
-0.123,-0.172,0.927,1.963,0.803,-1.389,11
-0.123,-0.297,0.962,-0.970,-1.211,-2.253,11
-0.155,-0.235,1.086,3.570,-0.096,1.996,11
-0.183,-0.220,1.074,0.008,9.147,3.308,11
-0.141,-0.198,1.004,-4.462,17.671,3.205,11
-0.113,-0.168,0.922,3.046,15.046,5.415,11
-0.100,-0.092,0.889,6.328,9.435,2.307,11
-0.095,-0.115,0.864,8.424,3.177,-6.397,11
-0.116,-0.196,0.935,7.446,-9.196,-6.674,11
-0.147,-0.289,1.046,1.440,-4.736,-2.287,11
-0.143,-0.263,1.056,1.265,7.421,-0.318,11
-0.129,-0.223,0.943,6.852,9.111,4.345,11
-0.099,-0.203,0.903,4.408,3.536,0.545,11
-0.100,-0.200,0.953,2.802,-3.729,-1.493,11
-0.114,-0.221,0.950,4.128,-2.254,0.096,11
-0.133,-0.200,1.021,3.011,-1.139,-1.147,11
-0.123,-0.230,0.982,-2.786,1.055,0.511,11
-0.116,-0.214,0.960,0.532,4.148,3.274,11
-0.119,-0.167,0.967,6.119,0.120,2.790,11
-0.107,-0.244,0.935,-0.935,2.242,-2.287,11
-0.133,-0.211,1.003,4.652,-2.254,1.340,11
-1.332,-0.010,0.353,-38.369,-530.060,2.169,12
-1.634,0.189,0.748,-21.538,-511.825,12.082,12
-1.705,0.274,1.408,-96.896,-414.716,-48.468,12
-1.598,-0.275,1.492,-89.982,-327.929,-72.473,12
-1.348,-0.585,1.383,-90.296,-249.846,-55.652,12
-1.145,-0.528,1.112,-94.102,-176.115,-39.003,12
-1.092,-0.270,0.798,-88.934,-109.470,-22.251,12
-1.058,0.119,0.480,-107.965,-60.412,-12.097,12
-0.980,0.237,0.052,-109.153,-41.565,-37.138,12
-0.895,-0.116,0.094,-78.353,-79.654,-42.527,12
-0.940,-0.211,0.325,-50.277,-69.943,-31.163,12
-0.980,-0.124,0.451,-47.169,-45.845,-14.204,12
-1.014,0.013,0.502,-39.242,-15.885,-16.863,12
-0.960,0.015,0.337,-47.903,6.558,-29.229,12
-0.877,-0.099,0.125,-43.677,7.709,-26.949,12
-0.827,-0.171,0.034,-31.770,-1.679,-14.653,12
-0.837,-0.135,0.165,-13.646,-6.067,0.131,12
-0.918,-0.002,0.295,-3.484,-2.002,4.345,12
-0.959,0.106,0.291,-5.579,1.378,1.305,12
-0.947,-0.025,0.276,4.024,2.889,-10.784,12
-0.893,-0.088,0.147,6.049,4.508,-3.772,12
-0.878,-0.173,0.091,8.040,-1.463,1.478,12
-0.952,0.010,0.227,8.494,-6.930,10.804,12
-1.023,0.129,0.272,4.827,-5.959,2.238,12
-1.053,0.005,0.296,3.535,-2.002,-6.190,12
-1.036,-0.043,0.292,8.249,5.119,-1.734,12
-1.008,-0.022,0.145,5.001,9.183,3.827,12
-0.977,0.054,0.007,10.309,2.493,-0.318,12
-0.995,0.065,0.156,9.960,-12.972,-5.327,12
-1.018,-0.043,0.365,2.173,-8.296,-8.332,12
-1.007,-0.077,0.347,0.322,9.651,-2.494,12
-0.980,-0.014,0.198,7.167,14.614,3.101,12
-0.959,0.062,0.073,9.786,6.809,6.175,12
-0.941,0.093,0.084,4.617,-6.966,-1.665,12
-0.973,-0.023,0.258,0.706,-6.354,-7.123,12
-0.991,-0.093,0.346,4.652,0.911,-2.667,12
-0.998,0.024,0.272,15.338,11.701,-0.007,12
-0.983,0.046,0.192,13.627,12.168,-6.259,12
-0.951,-0.013,0.171,11.671,9.039,-5.465,12
-0.980,0.005,0.235,13.173,5.694,-1.251,12
-0.992,0.017,0.283,11.462,11.485,-1.804,12
-1.003,-0.095,0.373,15.338,20.980,1.098,12
-1.016,0.029,0.318,16.909,32.705,3.274,12
-0.948,0.045,0.145,9.297,32.022,-3.600,12
-0.929,-0.027,0.156,3.395,24.649,-8.366,12
-0.947,-0.064,0.310,7.586,23.498,-4.912,12
-0.979,-0.032,0.299,10.170,34.360,3.274,12
-0.997,0.095,0.348,24.487,35.690,-2.253,12
-0.987,0.082,0.308,28.712,37.093,-10.888,12
-0.946,-0.063,0.316,33.496,39.575,-13.478,12
-0.894,-0.129,0.157,26.477,42.128,-2.011,12
-0.896,-0.039,0.207,22.741,32.993,5.208,12
-0.951,0.121,0.281,15.303,31.051,-0.698,12
-0.985,-0.020,0.451,8.598,22.347,-8.815,12
-0.997,-0.048,0.477,10.868,35.510,-7.192,12
-0.957,-0.061,0.355,10.309,37.561,-3.772,12
-0.911,-0.029,0.291,13.487,38.855,0.131,12
-0.900,0.021,0.263,10.798,24.793,-0.871,12
-0.933,0.026,0.361,6.154,24.397,-4.463,12
-0.979,0.009,0.548,8.773,31.159,-7.572,12
-0.966,-0.105,0.571,10.065,34.252,-3.185,12
-0.930,-0.066,0.402,11.811,44.394,2.618,12
-0.881,0.024,0.329,9.995,40.654,1.063,12
-0.871,0.011,0.337,1.824,30.979,-6.156,12
-0.887,-0.014,0.439,-1.005,30.044,-4.256,12
-0.917,0.017,0.554,-1.354,35.367,-5.327,12
-0.910,-0.018,0.504,1.998,44.178,-7.157,12
-0.876,-0.005,0.460,11.252,44.394,-2.598,12
-0.848,-0.013,0.384,10.693,39.575,-3.876,12
-0.824,-0.048,0.404,14.325,35.223,-2.702,12
-0.837,-0.088,0.477,17.049,32.885,2.410,12
-0.883,0.038,0.536,14.395,35.475,7.384,12
-0.886,0.151,0.536,14.011,35.367,-3.600,12
-0.862,0.039,0.505,16.630,30.871,-14.031,12
-0.824,-0.113,0.508,18.620,31.734,-11.958,12
-0.811,-0.105,0.453,23.789,31.626,0.269,12
-0.819,0.040,0.497,20.471,25.907,4.241,12
-0.853,-0.001,0.607,14.500,26.375,-4.636,12
-0.886,-0.102,0.731,10.589,36.769,-3.496,12
-0.872,-0.095,0.702,11.986,48.494,1.996,12
-0.817,-0.001,0.515,12.684,58.349,2.583,12
-0.781,0.050,0.438,11.357,49.142,-1.320,12
-0.799,0.025,0.574,10.519,41.049,-7.157,12
-0.825,-0.055,0.681,8.947,43.567,-7.088,12
-0.834,-0.060,0.810,11.147,51.623,-6.052,12
-0.801,-0.036,0.704,10.100,67.305,-5.189,12
-0.747,0.009,0.529,11.566,69.067,-3.047,12
-0.700,0.047,0.510,13.557,49.897,-7.123,12
-0.695,-0.005,0.567,7.935,42.884,-11.268,12
-0.696,-0.127,0.669,6.259,40.654,-7.986,12
-0.721,-0.093,0.738,8.319,43.063,3.032,12
-0.754,0.099,0.836,11.147,43.459,3.170,12
-0.716,-0.040,0.726,17.573,53.350,-7.295,12
-0.637,-0.098,0.609,21.833,52.271,-6.259,12
-0.610,-0.083,0.579,20.716,39.934,2.307,12
-0.651,0.020,0.698,16.839,31.914,0.200,12
-0.680,-0.018,0.858,17.363,33.784,-5.879,12
-0.688,-0.078,0.885,13.382,43.783,-5.603,12
-0.733,-0.098,0.830,9.855,53.206,-2.736,12
-0.625,-0.056,0.714,17.782,53.673,0.683,12
-0.592,-0.059,0.656,13.417,45.941,-0.111,12
-0.608,0.013,0.789,16.735,35.546,-1.285,12
-0.631,-0.085,0.877,6.957,37.417,-6.017,12
-0.640,-0.082,0.963,4.094,51.587,-1.355,12
-0.607,-0.065,0.820,7.830,54.069,2.790,12
-0.561,-0.031,0.742,5.805,53.206,0.303,12
-0.557,-0.052,0.761,5.316,42.308,-2.460,12
-0.550,-0.075,0.829,6.608,35.978,-2.702,12
-0.556,-0.066,0.907,6.922,39.107,0.752,12
-0.613,-0.079,0.927,6.119,46.912,0.476,12
-0.529,-0.081,0.848,12.300,49.214,-1.251,12
-0.475,-0.168,0.799,13.312,46.121,-2.874,12
-0.454,-0.113,0.791,12.719,39.143,-0.387,12
-0.470,-0.048,0.820,9.297,33.640,3.723,12
-0.468,-0.042,0.882,9.157,29.504,-1.285,12
-0.463,-0.118,0.904,5.874,31.770,-1.320,12
-0.455,-0.091,0.911,8.389,37.453,-0.284,12
-0.446,-0.071,0.826,11.566,38.568,0.994,12
-0.407,-0.063,0.808,16.805,27.130,-1.804,12
-0.413,-0.114,0.875,12.300,23.785,-3.772,12
-0.424,-0.142,0.923,7.725,26.375,-2.425,12
-0.486,-0.149,0.925,5.421,29.720,0.476,12
-0.423,-0.086,0.917,7.586,33.065,7.004,12
-0.400,-0.065,0.847,6.782,34.324,2.272,12
-0.391,-0.042,0.877,6.852,27.310,-1.182,12
-0.390,-0.099,0.904,6.957,25.008,-1.562,12
-0.389,-0.176,0.953,5.001,27.166,-1.596,12
-0.387,-0.091,0.973,9.471,31.626,3.861,12
-0.366,-0.092,0.962,5.944,37.381,-0.491,12
-0.350,-0.115,0.922,2.697,35.654,-1.182,12
-0.342,-0.115,0.907,3.186,35.834,-1.147,12
-0.330,-0.121,0.930,1.754,33.964,-1.838,12
-0.317,-0.121,0.900,3.535,32.741,-0.802,12
-0.328,-0.149,0.973,4.338,29.396,-1.078,12
-0.333,-0.120,1.032,-0.935,35.187,-1.078,12
-0.320,-0.121,0.970,-3.833,41.373,-1.907,12
-0.276,-0.112,0.901,-0.656,41.948,-1.044,12
-0.243,-0.118,0.878,7.516,32.849,-2.218,12
-0.248,-0.095,0.919,8.179,29.288,-1.734,12
-0.255,-0.105,0.968,1.370,26.627,-4.878,12
-0.238,-0.232,0.984,-3.659,33.101,-5.707,12
-0.209,-0.209,0.936,-0.481,35.007,4.483,12
-0.211,-0.061,0.900,2.767,28.281,6.452,12
-0.198,-0.127,0.937,3.884,19.290,-0.629,12
-0.194,-0.152,0.956,-0.306,21.016,1.478,12
-0.181,-0.112,0.918,4.303,19.326,3.343,12
-0.197,-0.117,0.959,5.525,14.434,0.649,12
-0.209,-0.136,0.997,0.741,13.463,4.345,12
-0.198,-0.245,0.985,-6.173,20.836,-1.355,12
-0.188,-0.168,1.023,-1.110,17.599,5.139,12
-0.171,-0.077,0.917,2.452,19.398,8.006,12
-0.153,-0.006,0.896,6.817,12.492,2.307,12
-0.143,-0.035,0.842,5.665,1.846,-3.807,12
-0.194,-0.195,1.036,-0.865,-4.916,-8.815,12
-0.225,-0.150,1.124,-4.008,3.824,0.614,12
-0.204,-0.168,1.082,0.671,17.024,1.581,12
-0.161,-0.130,0.946,8.005,19.685,6.382,12
-0.121,-0.041,0.808,9.332,11.449,3.067,12
-0.123,-0.005,0.844,4.024,-5.455,-4.360,12
-0.176,-0.173,1.001,1.754,-9.735,-8.504,12
-0.209,-0.240,1.158,0.986,0.192,1.858,12
-0.190,-0.205,1.028,-3.065,14.578,5.208,12
-0.159,-0.125,0.912,-0.970,12.564,7.350,12
-0.133,-0.123,0.902,-1.179,7.457,5.623,12
-0.145,-0.091,0.973,0.392,-0.708,5.450,12
-0.167,-0.062,1.064,-1.738,4.615,-1.976,12
-0.164,-0.203,1.018,-0.725,12.420,0.476,12
-0.162,-0.160,1.033,2.557,17.995,4.379,12
-0.131,-0.137,0.953,3.675,18.714,5.346,12
-0.095,-0.144,0.883,4.792,17.312,5.450,12
-0.109,-0.059,0.932,7.481,9.471,2.687,12
-0.140,-0.137,1.051,0.043,10.226,-5.914,12
-0.146,-0.218,1.076,-2.646,19.326,-1.769,12
-0.131,-0.150,1.045,-4.567,27.274,2.099,12
-0.096,-0.159,0.954,-9.455,32.957,1.512,12
-0.074,-0.124,0.886,-5.300,23.965,5.623,12
-0.066,-0.091,0.782,2.417,11.197,-2.460,12
-0.092,-0.115,0.995,-2.332,-0.995,0.165,12
-0.118,-0.282,1.114,-4.217,7.601,-0.664,12
-0.124,-0.060,1.060,-8.059,18.319,4.276,12
-0.085,-0.116,0.958,-6.976,23.678,-0.595,12
-0.041,-0.089,0.872,2.836,16.268,1.892,12
-0.048,-0.025,0.829,8.738,2.961,-0.871,12
-0.084,-0.166,1.019,3.290,-4.952,-5.465,12
-0.119,-0.187,1.087,0.182,1.055,2.307,12
-0.118,-0.072,1.065,0.287,11.485,2.479,12
-0.081,-0.148,1.005,3.465,13.679,2.583,12
-0.035,-0.106,0.916,6.852,14.075,2.065,12
-0.027,-0.053,0.876,10.030,5.910,-0.146,12
-0.032,-0.148,0.899,4.443,-5.167,-4.636,12
-0.059,-0.236,1.052,-0.656,-5.239,-3.427,12
-0.078,-0.124,1.040,2.976,-0.959,4.310,12
-0.086,-0.115,0.994,4.652,4.148,-0.249,12
-0.079,-0.117,0.990,6.608,0.587,-0.215,12
-0.060,-0.171,0.970,5.281,0.515,-0.940,12
-0.060,-0.150,0.977,4.513,-1.247,0.891,12
-0.067,-0.155,0.976,0.636,-0.096,0.131,12
-0.093,-0.095,1.021,4.687,-0.024,-1.078,12
-0.085,-0.156,1.055,1.614,7.349,0.234,12
-0.058,-0.130,0.953,3.744,14.506,-0.456,12
-0.178,-0.602,-1.211,86.470,-376.124,47.278,13
-0.774,0.051,-1.470,68.940,-597.173,36.536,13
-1.710,0.643,-0.752,-7.290,-752.547,-37.898,13
-2.592,0.238,1.284,-47.798,-714.243,-129.672,13
-2.596,-0.112,3.080,-32.608,-527.578,-117.030,13
-1.820,-0.663,2.074,-45.947,-279.698,-100.313,13
-1.186,-0.759,0.645,-73.674,-214.168,-70.504,13
-1.122,-0.257,0.609,-78.283,-211.434,-42.423,13
-1.208,0.044,0.532,-73.115,-152.593,-39.902,13
-1.220,0.044,0.588,-76.782,-119.145,-57.621,13
-1.063,-0.523,0.385,-83.731,-79.905,-55.065,13
-0.932,-0.607,0.561,-76.956,-66.958,-17.312,13
-0.867,-0.179,0.214,-63.128,-36.206,13.256,13
-0.781,0.250,-0.011,-53.071,-39.875,0.649,13
-0.777,0.168,0.106,-49.230,-42.141,-31.681,13
-0.839,-0.233,0.034,-33.446,-46.780,-28.607,13
-0.877,-0.217,0.148,-13.087,-46.565,-2.011,13
-0.907,-0.020,0.084,-12.249,-41.673,5.968,13
-0.923,0.066,-0.051,-8.792,-51.600,1.305,13
-0.951,0.024,-0.062,-0.970,-49.910,-9.092,13
-1.021,-0.207,0.231,-8.548,-39.947,-12.062,13
-1.034,-0.255,0.129,-9.141,-22.072,1.201,13
-1.002,-0.026,-0.007,-7.046,-9.196,11.045,13
-0.928,0.079,-0.183,4.059,-30.056,4.345,13
-0.957,0.004,-0.098,-1.878,-30.488,-7.744,13
-1.034,-0.070,0.067,-5.405,-30.883,-2.633,13
-1.076,-0.169,0.024,-2.960,-24.589,0.580,13
-1.107,-0.071,0.075,-1.459,-17.756,4.517,13
-1.088,0.028,-0.027,-4.811,-13.512,0.027,13
-1.072,-0.057,0.063,-5.160,-8.332,-10.715,13
-1.005,-0.161,-0.163,-5.929,-3.945,-6.570,13
-1.003,-0.058,-0.070,-4.986,-11.426,-0.629,13
-1.027,-0.016,0.030,-7.430,-6.750,-4.739,13
-1.055,-0.075,0.124,-7.221,0.551,-9.437,13
-1.029,-0.038,0.063,-4.252,13.355,-5.465,13
-0.978,-0.105,-0.078,-6.487,17.671,-3.565,13
-0.947,-0.079,-0.152,-5.684,13.931,-2.253,13
-0.975,-0.079,-0.066,-1.529,5.694,2.652,13
-1.029,-0.017,0.058,-3.519,10.766,0.096,13
-1.061,-0.062,0.158,-4.113,24.109,-0.526,13
-1.046,-0.042,0.118,0.043,44.466,0.062,13
-0.955,-0.076,-0.137,2.313,49.070,0.200,13
-0.925,-0.068,-0.174,-3.240,39.251,2.134,13
-0.995,-0.091,0.072,-7.151,39.790,6.037,13
-1.062,-0.050,0.312,-5.929,42.812,6.037,13
-1.075,0.058,0.355,2.662,72.987,2.687,13
-1.018,0.099,0.086,6.608,95.754,-3.565,13
-0.909,-0.081,-0.156,7.621,76.548,-6.501,13
-0.899,-0.191,-0.097,6.224,53.422,2.307,13
-0.998,-0.172,0.266,8.354,49.609,11.564,13
-1.092,-0.139,0.485,2.871,58.061,11.080,13
-1.153,0.027,0.672,-2.611,92.841,2.963,13
-1.122,-0.030,0.496,-12.109,126.218,-11.578,13
-0.987,-0.218,0.095,-1.424,123.484,-7.019,13
-0.873,-0.202,-0.141,0.113,109.313,9.940,13
-0.900,0.039,0.115,2.173,77.843,18.610,13
-0.969,0.118,0.483,-6.662,73.203,7.004,13
-0.988,0.124,0.620,-12.738,87.338,-12.856,13
-0.932,-0.164,0.340,-8.967,95.502,-14.342,13
-0.837,-0.181,0.266,15.722,69.427,0.752,13
-0.832,-0.157,0.264,24.243,66.082,11.771,13
-0.880,-0.065,0.492,24.801,62.341,14.396,13
-0.945,-0.048,0.760,16.420,73.887,11.253,13
-0.964,-0.058,0.772,14.884,99.602,5.519,13
-0.891,-0.129,0.467,31.192,99.387,8.662,13
-0.801,-0.073,0.285,49.595,88.201,13.152,13
-0.752,-0.127,0.292,37.582,61.802,6.486,13
-0.809,-0.103,0.587,25.430,48.458,6.106,13
-0.851,-0.069,0.836,26.233,59.068,2.030,13
-0.825,-0.051,0.774,19.598,85.432,3.585,13
-0.765,-0.052,0.456,27.490,95.898,2.514,13
-0.678,-0.194,0.348,28.887,76.980,-6.605,13
-0.678,-0.198,0.456,29.446,52.702,1.374,13
-0.737,-0.255,0.671,28.852,54.501,12.496,13
-0.770,-0.128,0.807,27.141,68.995,19.611,13
-0.738,-0.045,0.700,14.395,84.425,10.665,13
-0.688,-0.083,0.482,12.859,70.470,0.200,13
-0.651,-0.284,0.559,16.735,51.408,-3.185,13
-0.659,-0.370,0.657,28.014,42.848,17.574,13
-0.720,-0.170,0.902,30.877,44.538,30.664,13
-0.772,0.018,0.924,19.738,56.407,20.026,13
-0.752,0.021,0.847,-2.751,70.038,-0.560,13
-0.668,-0.242,0.720,1.544,60.399,-8.815,13
-0.613,-0.373,0.697,13.173,57.198,8.213,13
-0.622,-0.151,0.867,18.166,54.357,15.328,13
-0.669,0.022,0.862,-8.582,52.235,-2.322,13
-0.611,-0.059,0.888,-28.103,76.296,-33.892,13
-0.523,-0.460,0.657,2.836,63.960,-34.513,13
-0.455,-0.406,0.640,29.411,51.192,-1.734,13
-0.532,-0.166,0.950,26.373,43.999,9.975,13
-0.586,-0.199,0.968,-0.516,57.486,1.512,13
-0.569,-0.168,0.827,3.255,60.255,-10.542,13
-0.492,-0.229,0.725,21.728,50.113,-11.060,13
-0.469,-0.189,0.740,29.655,44.034,-2.874,13
-0.478,-0.095,0.828,23.020,45.006,-5.223,13
-0.492,-0.165,0.969,9.681,46.984,-13.305,13
-0.494,-0.204,0.911,7.097,60.795,-11.509,13
-0.427,-0.168,0.765,22.043,59.104,-5.430,13
-0.404,-0.091,0.760,21.135,50.724,-2.218,13
-0.395,-0.139,0.869,11.916,42.920,-14.307,13
-0.407,-0.246,0.948,10.833,42.308,-15.482,13
-0.433,-0.341,1.044,18.062,57.054,-11.095,13
-0.342,-0.329,0.747,37.757,56.443,-2.460,13
-0.295,-0.108,0.741,36.150,38.064,0.131,13
-0.302,-0.205,0.816,16.874,28.497,-13.236,13
-0.345,-0.451,0.975,3.290,28.029,-10.957,13
-0.404,-0.380,1.122,5.735,37.740,2.652,13
-0.398,-0.195,1.033,5.281,54.824,6.210,13
-0.311,-0.083,0.784,6.189,54.609,0.856,13
-0.267,-0.173,0.715,2.278,37.992,-5.050,13
-0.286,-0.273,0.905,2.208,30.044,-7.675,13
-0.323,-0.337,1.021,3.325,37.057,-1.562,13
-0.342,-0.288,1.107,9.646,51.623,5.346,13
-0.242,-0.213,1.024,11.671,64.715,3.308,13
-0.160,-0.342,0.641,4.862,61.226,-2.460,13
-0.096,-0.241,0.689,6.747,32.705,3.516,13
-0.153,-0.216,0.819,2.802,16.916,-0.491,13
-0.224,-0.240,1.012,-3.624,16.808,-2.909,13
-0.298,-0.331,1.244,-18.919,24.109,-9.921,13
-0.249,-0.245,1.004,-18.116,41.157,-10.059,13
-0.193,-0.200,0.916,-7.535,42.740,-8.263,13
-0.152,-0.261,0.821,-1.110,36.482,-2.011,13
-0.196,-0.213,1.002,-0.202,30.295,0.891,13
-0.192,-0.435,1.015,-3.205,40.762,-5.085,13
-0.136,-0.196,0.895,5.281,47.451,9.180,13
-0.076,-0.172,0.778,6.538,42.092,1.616,13
-0.048,-0.208,0.721,4.652,25.656,0.822,13
-0.073,-0.178,0.896,6.154,13.715,-1.458,13
-0.095,-0.249,0.963,0.287,12.780,-5.465,13
-0.112,-0.294,0.968,-2.541,10.766,-3.427,13
-0.154,-0.353,1.111,-5.544,18.642,-3.392,13
-0.134,-0.212,0.983,3.500,24.793,3.377,13
-0.074,-0.179,0.933,12.020,20.728,2.894,13
-0.028,-0.184,0.832,10.624,14.614,0.683,13
-0.030,-0.193,0.860,10.205,3.141,-2.805,13
-0.086,-0.286,0.991,9.367,-3.801,-5.499,13
-0.103,-0.348,1.095,-1.843,9.003,-6.397,13
-0.065,-0.357,0.988,-0.132,16.089,-2.494,13
-0.011,-0.313,0.827,1.370,10.766,3.447,13
0.002,-0.214,0.785,4.687,-4.160,4.310,13
-0.057,-0.211,0.974,2.278,-15.490,-4.567,13
-0.127,-0.325,1.158,-13.052,-4.916,-9.575,13
-0.119,-0.359,1.131,-20.106,9.363,-5.845,13
-0.100,-0.334,1.049,-6.243,17.563,6.866,13
-0.056,-0.206,0.879,7.306,16.664,14.396,13
-0.017,-0.050,0.788,10.100,3.069,9.008,13
-0.045,-0.185,0.913,3.675,-11.497,-2.184,13
-0.109,-0.285,1.113,3.151,-8.476,-2.287,13
-0.113,-0.317,1.098,-1.843,7.313,0.165,13
-0.075,-0.262,0.952,-2.471,15.154,4.137,13
-0.024,-0.216,0.809,4.163,7.277,4.552,13
-0.035,-0.190,0.841,4.932,-6.246,-1.769,13
-0.080,-0.292,1.034,1.929,-11.533,-6.708,13
-0.109,-0.367,1.120,-3.065,0.084,-0.698,13
-0.085,-0.244,1.012,-1.284,13.103,3.170,13
-0.043,-0.248,0.870,3.500,14.003,2.341,13
-0.026,-0.210,0.840,6.922,1.414,-0.733,13
-0.030,-0.240,0.886,5.525,-7.397,-1.251,13
-0.100,-0.207,1.068,4.094,-8.692,-1.527,13
-0.090,-0.326,1.056,-3.938,7.816,-3.461,13
-0.075,-0.310,0.999,-3.833,14.039,0.580,13
-0.037,-0.256,0.908,-0.481,13.355,-0.042,13
-0.007,-0.286,0.824,4.827,7.241,-0.491,13
-0.014,-0.217,0.858,9.401,-5.347,0.718,13
-0.061,-0.258,0.977,2.976,-8.225,-1.734,13
-0.107,-0.302,1.142,-4.811,2.601,-2.771,13
-0.076,-0.307,1.017,-6.208,13.823,-2.114,13
-0.038,-0.324,0.898,-2.192,12.492,0.683,13
-0.011,-0.260,0.860,2.382,-0.887,3.999,13
-0.018,-0.234,0.902,2.906,-5.995,1.650,13
-0.076,-0.266,1.074,0.043,-8.512,0.752,13
-0.084,-0.286,1.053,-5.614,7.025,-1.527,13
-0.054,-0.288,0.967,-5.789,12.852,1.305,13
-0.017,-0.236,0.870,-3.484,7.816,2.238,13
-0.001,-0.237,0.875,-2.017,-1.139,2.065,13
-0.040,-0.287,1.019,-0.237,-4.196,0.614,13
-0.068,-0.287,1.064,-4.846,3.249,0.856,13
-0.064,-0.288,0.977,-5.056,8.284,4.379,13
-0.068,-0.215,0.979,-6.103,5.982,2.790,13
-0.054,-0.259,0.991,-7.500,9.219,0.407,13
-0.032,-0.253,0.942,2.313,9.183,6.072,13
-0.052,-0.154,0.934,-2.122,2.098,3.896,13
-0.071,-0.309,1.032,-12.144,1.522,-3.738,13
-0.074,-0.318,1.042,-14.309,10.190,4.276,13
-0.052,-0.156,0.994,-9.595,14.506,4.068,13
-0.017,-0.244,0.918,-6.278,13.535,1.063,13
-0.012,-0.162,0.906,1.335,9.399,4.034,13
0.015,-0.188,0.895,-3.903,-0.096,-4.532,13
0.002,-0.245,0.927,-2.890,-6.067,-4.567,13
-0.032,-0.233,0.993,-0.481,-3.837,-1.389,13
-0.068,-0.257,1.068,-0.132,2.242,-0.180,13
-0.048,-0.295,1.074,-2.856,14.578,-0.318,13
-0.015,-0.240,0.945,1.929,18.966,1.720,13
0.029,-0.262,0.816,2.522,16.017,1.443,13
0.036,-0.258,0.808,3.500,4.004,2.376,13
0.032,-0.197,0.899,3.570,-10.059,-1.942,13
0.001,-0.230,0.943,1.859,-9.591,-0.456,13
-0.023,-0.285,0.966,2.941,-5.491,0.407,13
-0.037,-0.191,0.949,4.548,-6.210,3.723,13
-0.035,-0.277,0.954,6.817,-7.721,-0.802,13
-0.646,-0.028,-1.125,-82.055,-524.053,3.101,14
-1.334,0.309,-0.684,-129.511,-679.572,-19.419,14
-2.081,0.375,0.402,-69.134,-672.558,-40.316,14
-2.414,0.735,1.298,-8.478,-589.404,-71.333,14
-2.322,0.192,1.665,-29.639,-466.867,-135.026,14
-1.962,-0.193,1.801,-25.728,-354.832,-134.715,14
-1.347,-0.970,1.378,-39.277,-254.306,-96.030,14
-1.032,-0.774,0.737,-63.233,-179.892,-25.395,14
-1.066,0.068,0.375,-74.617,-128.927,-4.981,14
-1.111,0.197,0.478,-90.435,-94.544,-24.255,14
-1.064,-0.152,0.152,-83.032,-68.972,-46.361,14
-0.958,-0.324,0.191,-57.401,-69.439,-22.355,14
-0.942,-0.102,0.074,-44.480,-50.413,-1.216,14
-0.955,0.096,0.098,-44.166,-34.012,-1.700,14
-0.994,0.092,0.202,-56.772,-20.921,-17.899,14
-1.004,-0.047,0.241,-68.017,4.220,-29.643,14
-0.897,-0.231,-0.036,-38.858,-5.131,-8.470,14
-0.868,-0.044,-0.125,-24.262,-4.448,8.628,14
-0.921,0.191,-0.020,-13.681,-6.067,2.756,14
-0.971,0.156,0.135,-15.916,-4.160,-12.856,14
-0.965,-0.086,0.200,-9.490,6.773,-18.107,14
-0.894,-0.291,-0.070,12.614,4.831,-7.814,14
-0.913,-0.092,-0.039,15.093,-2.973,12.945,14
-0.991,0.133,0.061,7.516,-3.837,12.185,14
-1.048,0.065,0.134,0.462,-0.564,-6.087,14
-1.046,-0.120,0.125,2.557,2.817,-10.093,14
-1.045,-0.135,0.110,8.144,11.593,6.279,14
-1.033,-0.040,0.030,7.411,14.722,10.735,14
-1.025,0.072,-0.037,5.595,12.348,9.975,14
-1.042,0.097,0.062,0.217,7.205,-2.287,14
-1.050,-0.043,0.196,0.078,14.398,-6.052,14
-0.998,-0.193,0.056,0.287,26.843,2.169,14
-0.988,-0.128,0.123,4.722,24.289,18.023,14
-1.008,0.174,-0.005,3.605,27.490,9.767,14
-1.009,0.187,-0.005,7.132,17.240,-3.358,14
-1.005,-0.021,0.146,10.589,13.247,-10.404,14
-1.021,-0.091,0.197,12.614,26.915,-3.634,14
-1.027,-0.096,0.243,14.639,36.949,1.650,14
-0.986,-0.152,0.128,22.671,38.747,11.184,14
-1.027,0.012,0.160,16.944,39.071,11.115,14
-1.018,0.054,0.110,6.503,42.272,0.580,14
-0.984,-0.073,0.045,-1.424,40.582,-5.050,14
-0.985,0.029,0.045,1.579,36.230,0.442,14
-0.994,0.133,0.032,0.182,29.108,-3.669,14
-1.051,0.123,0.273,0.217,28.137,-15.240,14
-1.053,-0.010,0.339,6.922,44.322,-19.246,14
-1.010,-0.035,0.187,8.494,56.946,-11.993,14
-0.941,-0.103,-0.005,8.947,52.882,-6.708,14
-0.933,-0.027,0.109,8.703,39.575,0.649,14
-0.996,0.200,0.238,5.211,35.834,-2.771,14
-1.039,0.115,0.409,3.186,41.301,-19.557,14
-1.028,0.003,0.403,10.274,54.788,-22.459,14
-0.957,-0.164,0.296,8.773,68.204,-14.100,14
-0.916,-0.223,0.166,17.573,69.786,3.861,14
-0.914,0.044,0.211,24.696,68.420,14.672,14
-0.943,0.257,0.231,19.214,55.220,1.271,14
-0.873,0.317,0.364,21.309,50.436,-24.358,14
-0.998,-0.023,0.600,15.512,68.779,-13.375,14
-0.927,-0.309,0.459,17.712,79.605,-5.707,14
-0.886,-0.413,0.442,18.795,89.172,23.791,14
-0.894,0.088,0.368,24.277,91.582,45.897,14
-0.884,0.383,0.226,9.436,80.181,17.366,14
-0.901,0.326,0.341,-2.681,59.572,-16.034,14
-0.887,-0.108,0.491,5.595,53.458,-32.095,14
-0.848,-0.239,0.514,18.411,54.393,-4.774,14
-0.828,-0.068,0.404,24.347,54.249,15.363,14
-0.823,0.269,0.348,22.566,42.416,12.427,14
-0.830,0.198,0.464,7.027,28.713,-18.003,14
-0.875,-0.094,0.658,9.506,32.993,-21.181,14
-0.870,-0.183,0.695,18.446,48.171,-7.537,14
-0.854,-0.115,0.625,21.658,60.471,9.249,14
-0.833,0.101,0.480,22.985,60.363,15.018,14
-0.804,0.075,0.450,9.227,44.754,-6.190,14
-0.814,-0.026,0.570,6.887,35.834,-11.717,14
-0.826,-0.088,0.659,19.738,43.531,-3.427,14
-0.814,-0.089,0.715,24.766,46.480,5.864,14
-0.809,0.033,0.703,21.658,59.356,11.771,14
-0.789,0.150,0.590,18.725,59.248,4.241,14
-0.758,0.007,0.547,22.252,52.523,-4.981,14
-0.723,-0.147,0.584,27.769,43.891,-5.189,14
-0.693,-0.101,0.564,27.769,45.042,5.415,14
-0.693,-0.071,0.674,24.033,39.611,11.011,14
-0.715,-0.054,0.792,16.106,42.308,4.932,14
-0.697,-0.106,0.726,12.998,50.580,-1.320,14
-0.672,-0.133,0.624,15.338,45.185,0.614,14
-0.671,-0.139,0.637,14.814,33.892,5.899,14
-0.698,-0.052,0.715,15.512,30.979,6.797,14
-0.729,-0.004,0.840,13.627,37.237,3.930,14
-0.722,-0.070,0.860,5.874,49.465,-0.284,14
-0.678,-0.119,0.749,10.798,54.609,-1.527,14
-0.651,-0.165,0.696,14.849,53.386,3.999,14
-0.614,-0.068,0.703,18.865,46.588,11.287,14
-0.605,0.050,0.722,15.443,41.085,3.654,14
-0.597,-0.098,0.757,1.719,37.417,-12.511,14
-0.612,-0.215,0.861,1.684,38.424,-9.851,14
-0.606,-0.203,0.858,5.036,44.538,0.062,14
-0.584,-0.138,0.787,9.786,43.783,7.281,14
-0.560,-0.047,0.705,4.827,40.798,5.312,14
-0.562,-0.008,0.765,-0.516,31.806,-2.909,14
-0.587,-0.137,0.899,-2.437,30.331,-6.017,14
-0.609,-0.185,0.959,-1.703,39.431,-1.424,14
-0.592,-0.178,0.957,2.138,52.666,5.623,14
-0.538,-0.143,0.815,9.157,54.069,9.595,14
-0.489,-0.031,0.688,9.820,49.250,10.113,14
-0.476,0.045,0.688,2.836,34.072,-3.220,14
-0.494,-0.112,0.865,-2.367,24.828,-10.715,14
-0.514,-0.170,0.962,4.198,32.130,-2.080,14
-0.498,-0.096,0.948,3.290,45.113,1.271,14
-0.460,-0.107,0.850,9.401,42.560,2.514,14
-0.453,-0.068,0.821,9.157,36.877,0.269,14
-0.434,-0.100,0.843,2.592,34.719,-6.916,14
-0.445,-0.169,0.924,1.929,32.094,-6.777,14
-0.451,-0.155,0.968,4.862,38.028,-1.769,14
-0.450,-0.093,0.978,7.167,45.977,3.619,14
-0.440,-0.112,0.986,3.605,55.364,-0.940,14
-0.402,-0.087,0.955,4.443,57.018,-1.873,14
-0.359,-0.158,0.836,3.849,59.428,-5.016,14
-0.301,-0.163,0.821,8.598,50.652,-0.767,14
-0.289,-0.071,0.811,12.824,39.719,-1.285,14
-0.320,-0.125,0.934,7.725,34.935,-8.470,14
-0.334,-0.208,1.008,2.662,38.316,-5.223,14
-0.310,-0.188,0.967,8.144,45.329,3.585,14
-0.257,-0.119,0.862,17.258,42.704,9.353,14
-0.217,-0.057,0.734,21.274,30.008,5.381,14
-0.247,-0.110,0.846,9.890,11.593,-2.736,14
-0.315,-0.162,1.084,1.090,9.579,-5.810,14
-0.330,-0.187,1.142,5.176,28.533,-1.009,14
-0.297,-0.105,0.993,8.563,40.258,2.134,14
-0.240,-0.141,0.849,10.693,36.158,1.512,14
-0.224,-0.084,0.803,12.195,19.469,-1.424,14
-0.256,-0.106,0.932,4.198,7.709,-3.151,14
-0.294,-0.184,1.086,2.138,10.945,-3.047,14
-0.298,-0.133,1.118,7.970,25.224,1.063,14
-0.255,-0.131,1.016,8.808,35.870,2.134,14
-0.203,-0.068,0.846,10.903,35.259,-1.631,14
-0.173,-0.152,0.814,7.586,21.196,-4.981,14
-0.194,-0.185,0.956,4.548,12.384,-6.743,14
-0.221,-0.227,1.072,2.836,16.736,-2.494,14
-0.247,-0.157,1.144,3.640,28.245,-1.562,14
-0.226,-0.114,1.093,2.103,44.142,-5.223,14
-0.171,-0.157,0.907,0.567,51.480,-5.948,14
-0.124,-0.204,0.815,4.967,40.114,-4.601,14
-0.108,-0.183,0.803,5.979,21.735,-2.080,14
-0.128,-0.133,0.899,2.871,11.953,-1.251,14
-0.179,-0.124,1.086,6.538,12.204,-2.633,14
-0.183,-0.123,1.135,9.262,24.936,-3.392,14
-0.150,-0.182,1.039,3.779,40.150,-7.744,14
-0.081,-0.176,0.880,9.297,40.186,-3.531,14
-0.035,-0.178,0.792,11.357,27.814,-2.425,14
-0.040,-0.188,0.835,10.030,6.737,-1.700,14
-0.083,-0.184,0.967,-1.808,-1.067,-4.878,14
-0.125,-0.193,1.149,-4.916,2.673,-3.634,14
-0.113,-0.241,1.059,-0.481,19.002,0.752,14
-0.070,-0.159,0.917,6.678,17.527,4.345,14
-0.036,-0.133,0.810,9.890,5.299,4.276,14
-0.090,-0.119,0.891,5.386,-11.174,0.614,14
-0.162,-0.212,1.189,0.148,-8.548,-6.432,14
-0.166,-0.234,1.209,-1.703,13.571,-2.253,14
-0.126,-0.176,1.083,5.316,30.044,3.861,14
-0.053,-0.142,0.866,9.436,30.044,1.340,14
-0.001,-0.189,0.771,8.354,15.621,-0.975,14
0.000,-0.186,0.838,2.732,-1.894,-1.424,14
-0.071,-0.211,1.009,2.592,-8.908,-3.358,14
-0.105,-0.270,1.160,-2.925,6.306,1.616,14
-0.087,-0.220,1.023,-3.030,19.973,4.759,14
-0.065,-0.125,0.933,0.916,18.103,4.276,14
-0.036,-0.164,0.888,1.684,9.075,-1.113,14
-0.026,-0.204,0.924,1.754,2.889,-0.733,14
-0.028,-0.186,0.917,4.198,0.839,2.410,14
-0.069,-0.152,1.008,0.951,-2.254,0.994,14
-0.099,-0.204,1.093,-6.592,8.140,-1.734,14
-0.081,-0.220,1.127,-6.487,22.095,-1.216,14
-0.046,-0.184,0.934,-0.446,29.864,4.414,14
-0.006,-0.179,0.863,7.411,18.678,2.238,14
0.020,-0.193,0.858,7.586,7.601,2.272,14
0.013,-0.171,0.869,4.024,-2.290,-0.249,14
-0.027,-0.236,1.009,-1.110,-7.110,-3.600,14
-0.048,-0.223,1.098,-2.506,0.120,2.272,14
-0.043,-0.164,1.002,-1.075,9.938,2.928,14
-0.023,-0.186,0.954,0.392,9.291,0.511,14
-0.009,-0.154,0.913,-1.110,6.054,0.580,14
-0.009,-0.202,0.919,-0.795,0.156,-1.389,14
-0.038,-0.202,1.007,1.859,-4.484,-0.249,14
-0.073,-0.252,1.120,-0.481,2.601,-0.629,14
-0.071,-0.182,1.134,-2.227,16.988,1.754,14
-0.048,-0.157,0.994,-0.167,24.217,0.234,14
0.010,-0.150,0.907,3.255,19.829,-0.629,14
0.046,-0.161,0.804,6.154,10.046,-0.042,14
0.028,-0.130,0.878,11.217,-7.577,-4.152,14
-0.021,-0.296,1.030,4.373,-8.153,-1.700,14
-0.047,-0.222,1.158,0.392,4.759,2.859,14
-0.027,-0.204,1.018,-0.935,14.938,1.236,14
-0.006,-0.165,0.961,3.255,14.722,2.065,14
0.022,-0.206,0.890,4.687,10.550,0.338,14
0.017,-0.180,0.887,6.992,0.371,0.856,14
-0.016,-0.184,1.015,6.154,-5.095,-1.838,14
-0.016,-0.219,1.039,0.043,5.227,-2.529,14
0.001,-0.198,0.967,5.455,9.615,0.718,14
0.006,-0.163,0.929,7.062,7.493,0.545,14
0.020,-0.177,0.930,5.525,2.457,-4.912,14
-1.480,0.421,1.567,-70.112,-298.724,-56.343,15
-1.202,-0.084,1.243,-73.394,-230.101,-78.379,15
-0.990,-0.301,0.685,-68.401,-172.878,-74.407,15
-0.832,-0.357,0.457,-63.477,-149.141,-41.974,15
