ACC-X,ACC-Y,ACC-Z,GYRO-X,GYRO-Y,GYRO-Z,TEST
0.065,-1.561,0.416,-11.586,-92.745,109.796,1
-0.015,-3.109,1.185,-38.684,-118.138,316.382,1
-1.031,-3.224,0.605,-121.445,-73.396,698.812,1
-1.666,-1.151,0.177,-163.768,-38.976,825.299,1
-2.312,-1.215,0.009,-104.264,-60.735,797.770,1
-2.647,-0.207,0.672,-145.924,-56.455,790.931,1
-1.957,1.889,1.664,-205.323,41.409,722.196,1
-2.155,3.942,0.172,-92.426,-0.096,598.093,1
-1.174,3.533,1.707,-61.487,-178.237,156.909,1
-0.824,1.097,1.578,-3.763,-67.713,4.206,1
-0.355,-0.702,1.501,1.614,14.578,-13.651,1
-0.233,-0.329,0.651,-11.341,91.942,67.450,1
-0.149,0.603,0.624,-13.681,84.928,58.504,1
-0.107,0.607,0.598,-23.528,46.840,-3.185,1
-0.126,0.309,0.822,-5.894,13.715,-22.735,1
-0.191,-0.035,0.995,2.627,5.479,-27.294,1
-0.168,-0.180,0.937,8.738,13.139,-10.819,1
-0.179,-0.004,0.960,-1.913,23.138,0.856,1
-0.006,0.036,1.246,7.132,32.885,12.427,1
-0.041,0.846,0.191,24.801,32.381,0.649,1
-0.275,0.210,1.085,-9.246,-72.352,-24.497,1
-0.335,0.028,1.327,-1.040,-52.391,-40.316,1
-0.239,-0.208,1.332,13.801,-21.388,-1.009,1
-0.139,-0.050,0.960,12.614,24.721,-2.460,1
-0.088,0.194,0.665,1.859,5.155,7.073,1
-0.157,0.275,0.878,-10.852,-20.777,-10.853,1
-0.238,0.147,1.093,-5.963,-23.510,-16.587,1
-0.265,0.070,1.103,-2.017,-9.447,-16.069,1
-0.212,0.222,1.116,-1.319,6.989,-3.427,1
-0.178,0.206,0.854,2.767,7.169,-13.789,1
-0.158,0.141,0.896,-2.052,-7.110,-20.041,1
-0.183,0.171,0.946,-3.379,-11.210,-18.072,1
-0.212,0.156,0.985,3.221,-10.994,-24.531,1
-0.229,0.036,1.171,4.059,-0.887,-19.419,1
-0.189,0.017,1.024,14.674,20.405,-12.684,1
-0.151,0.123,0.794,9.646,22.994,-8.124,1
-0.171,0.147,0.758,-2.017,-3.477,-10.749,1
-0.203,0.223,0.882,-2.646,-15.885,-14.514,1
-0.242,0.150,1.083,-4.357,-23.690,-19.937,1
-0.265,0.213,1.239,2.103,-2.254,-17.036,1
-0.238,0.204,1.133,5.036,22.886,-21.906,1
-0.205,0.312,0.945,7.132,28.101,-28.952,1
-0.163,0.106,0.789,5.525,10.082,-39.556,1
-0.149,0.171,0.855,2.627,-6.426,-34.168,1
-0.197,0.135,0.932,3.081,-8.368,-41.041,1
-0.242,-0.003,1.114,0.986,-16.281,-31.577,1
-0.218,0.225,1.174,5.386,16.664,-24.082,1
-0.173,0.184,1.004,6.922,34.144,-34.582,1
-0.129,0.322,0.799,1.265,26.195,-34.824,1
-0.144,0.464,0.864,-3.170,9.579,-56.826,1
-0.116,0.098,0.848,-1.703,1.450,-74.615,1
-0.173,-0.136,0.994,-7.709,-12.397,-56.550,1
-0.147,0.219,1.218,-0.411,15.693,-35.826,1
-0.124,0.320,1.086,-0.621,44.286,-53.407,1
-0.177,0.337,0.621,18.585,51.695,-67.499,1
-0.181,0.174,1.107,24.382,-17.180,-69.952,1
-0.127,0.316,0.771,40.306,0.515,-64.011,1
-0.129,0.523,1.187,41.668,14.003,-72.818,1
-0.192,0.764,0.510,57.068,25.440,-122.798,1
-0.202,0.151,1.066,56.334,-20.345,-148.082,1
-0.167,0.145,0.917,51.864,8.464,-147.356,1
-0.218,-0.190,0.629,51.690,1.522,-159.307,1
-0.146,-0.525,1.298,46.312,-35.703,-100.036,1
-0.054,0.440,1.245,57.102,28.317,-86.220,1
-0.078,0.582,1.247,58.255,81.296,-135.924,1
-0.174,-0.165,0.098,40.795,20.225,-197.302,1
-0.106,-0.434,1.311,25.569,-43.579,-111.745,1
-0.082,0.000,1.067,25.814,-1.859,-109.569,1
-0.098,0.162,1.029,44.182,30.583,-110.675,1
-0.075,0.227,1.084,44.601,9.291,-116.132,1
-0.123,0.065,0.576,53.855,0.228,-159.066,1
-0.114,-0.729,0.955,33.042,-22.323,-124.042,1
-0.053,-0.510,1.101,-8.198,-19.122,-63.389,1
-0.057,0.020,1.040,-12.738,11.809,-43.977,1
-0.050,0.143,0.987,-3.240,21.196,-62.387,1
0.001,0.517,1.161,-6.836,37.093,-81.454,1
-0.079,-0.265,0.374,2.732,-12.181,-133.229,1
-0.060,-0.179,0.920,9.855,-22.108,-80.072,1
-0.040,0.010,1.167,2.906,-16.209,-80.797,1
-0.020,0.253,1.220,16.700,20.584,-87.015,1
-0.138,0.291,0.725,36.604,76.944,-125.492,1
-0.051,-0.367,0.873,34.195,-10.347,-129.154,1
0.020,-0.650,0.926,12.160,-15.166,-97.031,1
0.044,-0.203,1.097,-10.084,0.371,-48.571,1
0.013,0.117,1.200,-3.554,3.608,-60.073,1
0.032,0.410,1.251,2.557,34.324,-83.664,1
-0.075,0.027,0.657,3.500,48.279,-130.950,1
-0.022,-0.623,1.196,-9.351,-11.677,-98.447,1
-0.020,-0.033,1.239,-21.852,12.708,-46.568,1
0.003,0.099,1.033,-25.309,28.893,-79.174,1
-0.009,-0.064,0.901,-14.170,40.869,-85.667,1
0.002,-0.145,0.913,-9.211,4.364,-78.069,1
0.055,-0.076,0.972,-6.557,12.060,-71.506,1
0.026,-0.173,0.964,-21.712,21.951,-60.971,1
0.007,0.083,0.967,-8.198,-1.535,-50.471,1
0.027,0.049,0.979,18.970,7.457,-63.182,1
0.081,-0.099,0.969,17.363,0.263,-60.591,1
0.044,-0.151,0.981,-5.090,7.744,-49.158,1
0.012,-0.001,1.031,-17.836,-9.196,-39.073,1
-0.001,0.273,1.040,-9.944,-13.296,-47.984,1
0.034,-0.067,1.098,-3.449,-2.614,-63.216,1
0.034,-0.071,0.986,-1.424,11.989,-41.594,1
0.064,-0.194,0.918,10.065,-0.384,-29.574,1
0.076,-0.184,0.983,7.062,5.946,-9.022,1
0.065,-0.078,1.035,1.719,9.831,8.835,1
0.035,0.173,0.961,3.255,15.909,7.902,1
0.057,0.034,0.930,1.824,4.508,-3.669,1
0.046,0.049,0.978,3.186,3.536,-3.082,1
0.060,-0.143,1.032,2.627,4.256,2.030,1
0.052,-0.104,0.911,2.976,2.565,16.088,1
0.019,0.079,1.023,7.376,-2.542,24.792,1
0.029,0.201,0.952,7.132,4.256,8.351,1
0.028,0.032,1.039,-1.424,-0.564,-5.983,1
0.053,-0.056,0.977,-2.995,7.888,-3.634,1
0.067,-0.125,0.915,8.947,-3.693,4.448,1
0.067,-0.017,1.022,15.966,-3.765,8.697,1
0.063,-0.035,1.001,13.766,-0.276,6.728,1
0.050,-0.007,0.966,7.446,-1.643,7.108,1
0.055,0.055,1.011,-0.411,-3.045,0.476,1
0.064,-0.065,1.010,-6.452,-2.038,-5.430,1
0.051,-0.141,0.982,-6.767,-0.096,4.932,1
0.042,-0.055,1.013,1.684,-3.693,14.258,1
0.026,0.059,1.010,8.144,-0.995,0.476,1
0.020,0.130,1.018,5.211,1.019,7.902,1
0.035,-0.020,0.966,-2.890,0.983,-11.958,1
0.046,-0.114,0.970,-4.881,-1.319,-3.289,1
0.054,-0.138,0.967,-4.008,1.918,1.098,1
0.062,-0.071,0.971,0.916,-1.175,12.082,1
0.041,-0.006,0.993,1.824,0.587,11.598,1
0.033,0.002,0.976,-2.402,-2.542,8.144,1
0.035,-0.037,1.008,-4.078,-3.801,1.927,1
0.038,-0.047,1.018,-3.135,-1.715,1.512,1
0.049,-0.008,0.972,-0.411,0.839,6.970,1
0.038,0.049,1.052,-0.935,-2.470,5.174,1
0.029,0.058,0.969,4.268,0.479,-0.215,1
0.028,-0.059,0.971,4.548,-2.938,-1.182,1
0.034,0.038,1.009,6.189,-3.657,-0.111,1
0.041,-0.020,1.022,2.941,-0.060,-4.221,1
0.040,-0.055,0.997,-3.310,0.587,-4.670,1
0.040,-0.088,0.986,-3.554,-3.081,0.891,1
0.040,0.022,0.996,-0.271,-1.283,5.415,1
0.041,0.021,0.984,0.776,-2.002,0.994,1
0.035,-0.010,0.962,1.684,-0.456,-3.220,1
0.028,-0.062,1.058,-0.760,-2.002,0.269,1
0.023,-0.035,1.011,-4.776,3.680,2.099,1
0.042,-0.012,1.003,-4.846,6.162,1.650,1
0.033,-0.042,0.976,-3.763,3.429,0.407,1
0.018,0.060,1.022,2.173,3.752,3.239,1
0.014,0.023,0.996,4.233,3.932,-2.909,1
0.039,-0.013,0.991,-0.656,5.335,-3.703,1
0.064,-0.098,0.975,-5.859,4.687,-2.736,1
0.053,-0.064,0.968,-5.230,3.249,3.999,1
0.018,0.035,1.016,-4.148,0.803,4.966,1
0.031,0.058,0.982,1.160,0.515,-0.422,1
0.048,-0.010,1.016,-0.970,1.307,-2.633,1
0.064,-0.050,0.980,-3.763,2.314,-1.424,1
0.048,-0.039,0.970,-3.170,-1.103,2.721,1
0.024,0.046,1.009,0.881,-1.715,2.549,1
0.020,0.035,1.024,3.709,2.026,-1.734,1
0.025,-0.031,0.994,2.033,2.997,-2.287,1
0.046,0.009,1.013,3.221,5.155,-1.873,1
0.043,-0.074,0.943,3.360,6.270,-2.460,1
0.037,-0.051,0.968,0.287,-2.973,1.132,1
0.045,-0.025,0.994,0.252,-1.175,0.614,1
0.057,-0.049,0.961,-3.589,-0.923,2.998,1
0.059,-0.005,1.018,0.532,1.522,3.999,1
0.061,-0.036,0.951,2.417,1.954,3.412,1
0.055,-0.070,0.993,-2.297,-1.067,4.966,1
0.056,-0.006,0.999,-7.325,-0.744,8.420,1
0.039,0.043,1.037,-8.163,-2.362,6.624,1
0.025,0.065,1.046,-4.881,3.321,5.381,1
0.027,0.045,0.931,-0.935,5.443,-1.251,1
0.031,-0.027,0.999,1.405,0.192,-0.387,1
0.042,0.004,0.986,2.278,-0.312,2.928,1
0.029,0.053,1.023,3.360,2.889,0.683,1
0.056,0.016,1.001,4.478,2.997,-2.045,1
0.051,0.019,1.007,7.062,4.328,-1.285,1
0.062,-0.034,0.982,10.624,6.126,-1.804,1
0.069,-0.083,0.985,0.078,6.414,3.550,1
0.056,-0.010,0.951,-6.836,-0.024,7.522,1
0.059,0.030,0.993,-4.567,-1.139,5.035,1
0.050,0.039,1.000,-2.122,-0.492,2.756,1
0.060,0.014,0.969,2.941,4.723,-2.391,1
0.068,-0.045,0.956,4.059,1.594,-2.563,1
0.064,-0.031,0.964,1.021,-3.801,0.580,1
0.061,0.024,0.967,1.824,-2.182,-1.873,1
0.051,0.000,0.981,1.754,-4.412,-3.461,1
0.038,0.002,0.946,5.805,-7.110,-0.353,1
0.050,-0.046,0.958,13.417,-19.770,1.961,1
0.047,0.043,1.074,10.903,-8.656,3.377,1
0.052,-0.013,0.982,3.430,-2.686,-1.700,1
0.037,0.009,1.015,-2.890,-0.528,-3.565,1
0.029,-0.017,1.021,-3.344,0.012,-4.670,1
0.029,-0.075,0.970,1.929,-2.074,-3.461,1
0.030,-0.061,1.058,2.557,2.026,4.345,1
0.036,-0.028,0.982,5.560,0.479,2.652,1
0.040,-0.030,1.007,3.430,2.781,2.169,1
0.044,-0.026,1.006,-3.100,0.875,1.340,1
0.031,0.014,1.010,-5.544,8.644,0.994,1
0.027,-0.009,0.979,0.986,5.802,-0.146,1
0.251,-0.513,0.949,-23.389,-39.443,36.260,2
0.228,-1.474,0.966,-64.525,-82.063,113.561,2
-0.012,-2.486,0.365,-125.460,-209.600,293.343,2
-0.951,-1.382,0.407,-169.250,-105.909,488.289,2
-1.705,-2.613,0.881,-175.152,-176.079,675.428,2
-2.783,-1.718,1.379,-300.097,69.930,785.439,2
-2.978,0.256,0.537,-326.880,210.846,814.142,2
-2.531,2.184,0.096,-158.949,164.558,777.979,2
-1.505,3.235,0.763,-97.035,87.518,571.911,2
-0.719,3.970,0.209,-36.763,13.211,266.851,2
-0.368,0.930,0.518,-55.061,-70.662,26.589,2
-0.187,-0.316,0.699,-30.617,-68.037,75.360,2
-0.178,1.012,0.768,-10.468,-53.254,74.185,2
-0.222,0.461,1.426,-12.808,-47.967,2.169,2
-0.235,-0.029,1.037,13.732,0.084,-4.912,2
-0.195,0.117,1.066,19.249,-11.066,12.462,2
-0.181,0.108,0.813,-12.319,11.125,-0.042,2
-0.362,0.499,1.265,-47.623,16.125,-32.579,2
-0.274,-0.241,1.333,-18.465,-2.758,7.730,2
-0.204,0.109,1.122,-7.919,67.125,14.638,2
-0.226,0.491,0.520,8.389,38.316,35.949,2
-0.307,0.688,0.610,7.551,-29.732,-1.700,2
-0.370,0.230,1.149,13.522,-36.242,-32.372,2
-0.288,-0.093,1.270,0.113,-19.518,-13.444,2
-0.220,0.055,0.996,-14.624,17.024,-3.220,2
-0.196,0.240,0.865,-14.379,13.607,-1.320,2
-0.240,0.305,0.723,-13.262,-0.204,-8.953,2
-0.282,0.337,1.087,-2.087,-5.707,-18.659,2
-0.295,0.315,0.985,9.157,9.543,-14.894,2
-0.257,0.173,0.770,10.728,11.989,-27.053,2
-0.228,0.207,0.898,10.693,-12.181,-19.315,2
-0.237,0.419,1.003,10.309,-0.204,-28.054,2
-0.242,0.262,0.955,2.871,0.767,-44.426,2
-0.243,0.178,0.834,4.478,2.493,-34.479,2
-0.246,0.251,1.001,3.360,-13.008,-35.342,2
-0.259,0.438,0.982,12.509,-1.139,-41.836,2
-0.293,0.151,0.962,7.655,-2.506,-60.211,2
-0.291,-0.191,1.013,-4.043,2.206,-48.260,2
-0.254,0.343,1.083,-2.332,10.838,-11.648,2
-0.274,0.905,0.864,0.287,13.823,-53.130,2
-0.276,0.321,0.941,-0.132,0.515,-96.997,2
-0.251,-0.201,0.842,-0.935,-6.606,-70.435,2
-0.206,0.537,1.116,3.675,0.983,-46.015,2
-0.250,0.767,1.142,-0.097,24.289,-79.139,2
-0.316,0.849,0.616,35.068,34.036,-133.299,2
-0.288,-0.214,0.773,52.109,-41.673,-143.557,2
-0.180,0.198,0.920,60.734,-18.151,-94.268,2
-0.157,0.468,0.982,50.153,-17.288,-108.050,2
-0.138,1.082,1.183,36.325,24.757,-139.481,2
-0.191,0.794,0.772,37.442,58.673,-224.727,2
-0.477,-0.495,0.691,42.960,36.769,-272.323,2
-0.217,-1.296,0.728,34.963,-42.608,-141.934,2
0.009,0.078,1.207,37.687,-7.325,-48.018,2
0.055,0.818,1.026,16.036,23.929,-107.704,2
-0.141,0.849,1.166,-10.398,70.038,-173.780,2
-0.288,-0.360,0.025,-5.195,2.314,-252.670,2
-0.149,-1.107,1.292,16.700,-120.152,-66.325,2
-0.016,0.581,1.673,24.138,2.925,-9.955,2
-0.010,0.861,1.326,15.966,79.461,-74.062,2
-0.078,0.961,0.063,84.235,40.402,-146.113,2
-0.145,-0.798,0.924,34.614,-52.571,-214.641,2
-0.028,-0.468,0.852,47.884,-12.864,-53.200,2
0.006,0.524,1.188,30.808,-9.627,-62.698,2
-0.019,0.754,1.156,38.315,60.004,-95.235,2
-0.079,0.394,-0.005,77.251,5.479,-190.739,2
-0.054,-1.233,1.431,24.033,-56.851,-142.348,2
0.067,0.371,0.849,38.455,18.211,-48.537,2
0.079,0.213,1.142,19.947,14.146,-106.772,2
0.030,0.345,1.003,3.535,70.506,-103.248,2
0.012,0.428,0.579,5.036,52.127,-139.516,2
0.010,-0.403,0.532,-4.567,-23.330,-183.900,2
0.010,-1.291,1.178,-35.925,-63.109,-82.144,2
0.029,0.358,1.218,6.747,-35.415,29.075,2
0.041,0.565,1.404,24.976,-30.128,-65.220,2
0.041,-0.121,1.102,28.992,15.441,-87.256,2
0.062,0.128,0.986,15.233,5.047,-56.343,2
0.050,0.059,1.052,-14.868,4.400,-85.598,2
0.034,-0.366,1.157,-35.995,-0.600,-65.427,2
0.048,0.134,1.318,-12.459,10.730,-23.529,2
0.057,0.125,0.992,17.887,37.920,-44.426,2
0.055,0.001,0.726,32.204,13.427,-42.734,2
0.074,0.233,0.925,39.328,-26.388,-36.344,2
0.095,-0.224,1.162,-1.144,-18.727,-64.391,2
0.084,-0.284,1.073,-16.719,16.772,-6.294,2
0.061,0.172,0.859,3.884,16.700,7.281,2
0.029,0.033,0.851,23.823,-13.044,-6.121,2
0.059,0.139,1.092,28.538,-16.065,1.961,2
0.042,0.063,0.991,6.887,6.126,-16.656,2
0.039,-0.153,0.965,-13.925,-2.686,-6.190,2
0.036,0.042,1.086,-19.163,3.357,11.874,2
0.052,0.058,1.003,-1.668,13.211,2.376,2
0.064,-0.011,0.960,12.160,4.184,3.032,2
0.053,0.070,0.989,14.639,2.170,5.657,2
0.067,0.108,0.933,8.913,0.012,-2.494,2
0.084,0.020,0.992,4.478,-3.153,-10.128,2
0.079,-0.132,1.025,5.316,-1.031,-5.430,2
0.085,-0.064,0.990,8.005,9.507,10.078,2
0.074,0.027,0.945,6.049,6.773,11.149,2
0.054,0.117,0.974,2.313,9.759,6.521,2
0.063,0.025,0.857,2.906,-8.872,-4.912,2
0.060,-0.040,1.101,1.370,-11.354,-3.669,2
0.054,-0.097,1.027,-2.925,3.752,4.794,2
0.060,0.078,1.056,-1.878,4.112,12.980,2
0.064,0.121,0.976,-1.005,12.528,-2.805,2
0.065,-0.062,0.883,1.544,-1.067,-7.537,2
0.047,-0.019,1.024,4.094,-8.800,-0.042,2
0.058,-0.012,1.055,-1.598,1.666,-1.976,2
0.070,0.059,1.013,0.252,7.960,5.761,2
0.076,0.022,0.950,-2.856,13.859,-5.430,2
0.071,-0.043,0.938,-1.459,-0.132,-0.042,2
0.070,0.026,1.030,-0.586,-0.240,0.269,2
0.063,0.012,0.975,-1.598,2.781,2.272,2
0.068,0.042,0.969,-2.960,-1.607,0.925,2
0.075,-0.003,0.979,4.268,-5.024,-2.114,2
0.076,0.017,0.976,2.802,-0.851,0.165,2
0.065,0.006,0.956,-1.808,-0.132,1.132,2
0.063,0.006,0.995,-4.602,-8.512,3.447,2
0.068,0.040,1.014,-2.786,-3.441,0.787,2
0.003,0.022,1.023,3.081,0.012,2.203,2
0.049,0.054,0.940,2.243,1.235,-1.009,2
0.062,-0.056,0.977,-0.027,-6.174,0.269,2
0.068,0.032,1.023,-2.052,7.493,5.554,2
0.069,0.057,0.971,-2.122,-0.995,-1.769,2
0.048,0.017,1.042,-1.773,2.170,-1.562,2
0.057,-0.043,0.951,3.849,-3.801,-2.563,2
0.051,0.006,1.047,4.198,-1.247,5.899,2
0.057,0.056,1.007,3.605,-3.117,1.581,2
0.064,0.032,1.005,1.370,2.853,-1.251,2
0.069,0.035,0.948,0.008,1.882,-2.218,2
0.056,-0.021,0.972,0.357,-4.556,-4.636,2
0.050,-0.063,1.053,1.614,-2.542,4.966,2
0.054,0.056,0.946,3.290,1.810,5.968,2
0.046,0.023,1.007,-0.132,-3.297,1.685,2
0.060,0.066,0.984,-0.795,1.702,-0.146,2
0.060,0.031,0.985,-0.621,-0.096,-6.190,2
0.060,-0.033,0.932,1.055,-2.362,-2.425,2
0.061,-0.027,1.023,-1.110,-6.678,1.720,2
0.056,0.043,1.002,-1.633,2.457,3.896,2
0.061,0.033,0.985,-2.297,0.911,0.131,2
0.050,0.058,0.986,-4.322,0.983,-1.769,2
0.036,0.029,0.945,-5.579,-1.535,-6.570,2
0.010,-0.042,0.984,-4.183,-9.088,-2.425,2
0.060,0.096,1.013,7.132,-13.548,-1.631,2
0.071,-0.003,1.076,7.516,-5.275,-8.366,2
0.049,0.002,1.001,4.792,6.522,0.269,2
0.030,0.060,0.993,-1.738,5.011,1.271,2
0.033,0.015,0.993,-2.821,4.436,-2.598,2
0.030,0.011,0.984,0.986,2.817,-1.769,2
0.037,-0.023,0.988,4.268,0.048,-1.665,2
0.051,-0.014,0.977,7.097,3.357,-1.147,2
0.061,-0.032,0.978,3.081,1.163,-1.078,2
0.059,-0.003,0.974,-1.598,2.781,1.650,2
0.038,-0.011,0.953,-2.576,-2.290,0.994,2
0.056,0.023,0.982,4.967,-17.000,1.996,2
0.076,0.034,1.066,7.341,-9.519,2.203,2
0.047,-0.013,1.039,-0.062,0.192,-0.146,2
0.038,0.008,1.025,-5.754,3.572,3.585,2
0.027,0.043,0.999,-6.348,6.486,1.892,2
0.022,0.027,1.000,-4.741,4.795,-0.180,2
0.033,0.067,0.985,1.684,7.421,-1.355,2
0.050,-0.005,0.954,2.592,3.860,-3.082,2
0.058,-0.001,1.001,-1.249,5.551,-0.111,2
0.073,-0.064,0.904,-3.275,5.299,-2.322,2
0.072,-0.064,0.973,-4.532,-1.463,6.797,2
0.069,0.058,0.969,-4.287,-1.930,6.866,2
0.053,0.037,1.003,-6.278,-3.441,3.999,2
0.048,0.058,1.018,-3.275,-0.168,1.858,2
0.040,0.001,0.947,0.252,-2.182,0.303,2
0.032,0.026,1.040,2.348,-7.757,5.243,2
0.039,0.053,1.006,1.894,-1.643,1.512,2
0.042,0.047,1.007,-0.132,-2.002,1.098,2
0.041,0.060,1.011,0.357,0.659,-0.353,2
0.030,0.073,1.001,1.859,1.882,-2.702,2
0.031,0.010,0.953,4.722,-0.816,-6.916,2
0.037,-0.012,1.001,4.373,-1.283,-1.216,2
0.047,0.015,0.988,3.814,-0.564,-1.838,2
0.054,-0.025,0.992,0.357,-0.096,-2.114,2
0.046,-0.010,0.985,-3.763,0.407,-0.318,2
0.054,0.028,1.020,-5.859,-2.326,-0.284,2
0.050,0.025,1.010,-2.157,2.314,-2.253,2
0.048,0.004,1.013,0.636,2.565,1.063,2
0.046,0.014,0.962,1.055,3.572,1.167,2
0.035,0.017,0.969,-2.716,-0.672,1.340,2
0.029,0.011,1.010,-3.344,-4.196,1.236,2
0.035,0.079,1.017,1.055,0.911,2.928,2
0.034,0.047,1.019,1.055,1.307,-2.391,2
0.038,0.043,1.008,0.881,5.587,-1.700,2
0.043,0.025,1.008,-1.948,5.407,-3.047,2
0.044,0.033,0.989,-0.411,6.054,-2.011,2
0.044,0.011,0.980,-0.202,3.896,-2.771,2
0.053,0.037,0.984,2.941,2.745,-0.077,2
0.053,0.036,0.992,2.452,1.738,-3.427,2
0.057,0.011,0.981,1.440,3.680,-3.945,2
0.052,0.008,0.980,-1.075,-0.456,-3.254,2
0.054,0.014,0.997,0.846,2.206,-1.458,2
0.055,0.046,0.986,3.221,1.594,-1.562,2
0.057,0.014,0.975,3.954,2.853,-4.221,2
0.059,0.018,0.985,2.732,0.623,-1.804,2
0.056,0.031,0.969,0.741,1.307,-2.529,2
0.055,0.025,0.979,-0.551,-2.290,-3.323,2
-0.215,-1.079,0.686,-31.944,-179.316,127.343,3
-0.404,-2.552,0.971,-52.058,-240.747,281.289,3
-1.163,-2.667,1.627,-132.968,-166.225,587.212,3
-1.631,-1.039,1.674,-196.349,107.587,722.334,3
-1.986,-0.494,0.801,-266.818,301.409,662.234,3
-1.766,0.847,-0.202,-262.732,247.963,654.911,3
-1.465,3.118,1.454,-296.709,220.557,490.949,3
-0.751,1.526,-0.363,-205.567,214.191,269.200,3
-0.437,1.331,0.622,-135.937,20.584,205.369,3
-0.267,0.650,0.731,-121.724,36.985,174.559,3
-0.160,1.100,0.732,-96.861,13.823,166.857,3
-0.138,1.154,0.781,-22.900,-21.964,97.603,3
-0.128,0.380,0.993,11.392,-33.797,59.678,3
-0.044,0.219,0.772,16.316,-16.749,63.719,3
-0.013,0.371,0.685,-1.878,-38.364,68.002,3
-0.047,0.269,0.800,-7.535,-57.283,61.474,3
-0.119,0.490,1.162,-9.176,-48.435,60.542,3
-0.168,0.577,1.092,-1.040,-25.380,38.229,3
-0.181,0.054,0.969,16.909,-31.926,29.421,3
-0.156,0.409,1.044,23.195,-5.995,56.155,3
-0.183,0.477,0.657,7.970,-18.439,35.362,3
-0.239,0.551,0.874,1.300,-26.603,16.054,3
-0.281,0.712,1.170,-14.065,-22.791,-13.064,3
-0.318,0.200,1.302,-21.747,34.252,-38.209,3
-0.236,-0.030,0.745,-2.506,45.509,-6.605,3
-0.162,0.447,0.579,3.640,21.663,4.276,3
-0.167,0.452,0.613,3.290,-9.987,-12.684,3
-0.200,0.430,0.794,3.360,-26.891,-17.278,3
-0.243,0.488,0.952,11.951,-32.250,-31.405,3
-0.211,0.271,0.967,19.563,-1.355,-32.579,3
-0.188,0.317,0.754,27.176,-16.856,-19.143,3
-0.203,0.494,0.862,20.087,-21.928,-34.651,3
-0.253,0.673,0.954,20.541,-25.848,-45.186,3
-0.260,0.382,1.211,21.135,-21.244,-70.193,3
-0.213,0.134,1.017,17.293,15.513,-65.634,3
-0.172,0.463,0.758,22.846,14.758,-53.441,3
-0.187,0.842,0.750,28.992,-6.966,-72.542,3
-0.216,0.885,0.941,30.179,-13.584,-116.477,3
-0.277,0.839,0.906,15.547,18.355,-152.987,3
-0.390,0.355,0.578,56.299,6.630,-181.206,3
-0.314,0.113,1.298,50.468,-22.971,-162.969,3
-0.188,0.029,0.927,41.668,18.283,-157.304,3
-0.071,0.102,1.256,8.354,25.224,-144.351,3
-0.047,0.727,0.955,-3.973,70.757,-150.051,3
-0.152,0.813,0.565,6.049,31.266,-191.948,3
-0.285,0.547,0.731,31.296,0.012,-211.360,3
-0.268,-0.599,0.324,56.299,-123.353,-230.219,3
-0.060,-0.691,1.884,46.906,-98.212,-118.895,3
0.072,0.357,1.009,36.534,23.138,-77.378,3
0.114,0.758,1.203,38.839,27.526,-118.239,3
-0.051,0.940,0.839,56.509,72.412,-171.396,3
-0.186,0.161,0.507,73.969,-51.636,-224.589,3
-0.172,-0.518,1.180,98.308,-78.431,-159.515,3
-0.078,-0.074,1.482,80.394,2.637,-106.461,3
0.020,0.530,1.273,72.677,64.355,-117.928,3
-0.070,0.855,0.952,55.007,112.874,-171.086,3
-0.131,-0.141,-0.242,62.131,-28.186,-255.329,3
-0.043,-0.743,1.428,87.797,-92.278,-170.015,3
0.082,-0.134,0.774,92.966,1.127,-119.033,3
0.110,0.048,1.362,62.201,-3.693,-125.043,3
0.091,0.341,1.032,32.204,74.642,-149.498,3
-0.057,-0.263,0.446,40.201,40.798,-194.400,3
0.029,-0.551,1.059,72.467,-44.191,-135.233,3
0.130,-0.052,1.301,61.014,2.206,-112.954,3
0.142,-0.195,1.248,1.300,65.686,-143.902,3
0.046,0.126,1.072,-52.268,102.336,-134.093,3
-0.010,-0.125,0.389,-41.338,34.863,-201.343,3
0.048,-0.933,1.130,-3.344,-61.922,-159.825,3
0.144,-0.425,1.231,22.846,-12.612,-74.580,3
0.164,-0.111,1.149,11.357,19.326,-71.471,3
0.151,0.075,0.738,-12.459,45.221,-83.595,3
0.150,-0.016,0.933,-34.004,-6.246,-104.526,3
0.174,-0.455,1.013,-21.608,17.995,-101.211,3
0.230,-0.654,0.878,-6.278,3.249,-42.354,3
0.201,-0.187,0.995,-11.900,16.484,9.180,3
0.182,0.193,0.847,-15.951,11.557,-6.328,3
0.179,-0.063,0.886,-19.722,2.350,-28.434,3
0.170,-0.257,0.920,-3.659,-9.555,-5.568,3
0.167,-0.233,0.896,9.227,-0.456,11.909,3
0.127,-0.157,0.831,7.830,-10.886,29.974,3
0.115,0.163,0.986,3.954,-17.720,28.039,3
0.106,-0.023,0.951,-11.306,-13.655,-4.843,3
0.097,-0.167,1.015,-15.706,-14.842,4.690,3
0.100,-0.163,1.016,-17.662,-17.252,13.705,3
0.098,-0.010,1.079,-10.294,-11.102,23.135,3
0.102,0.025,1.044,-3.100,-5.527,10.493,3
0.097,-0.022,0.975,-7.290,-1.355,6.313,3
0.089,-0.060,1.034,-10.817,-6.210,2.376,3
0.086,-0.065,1.092,-12.075,2.853,5.519,3
0.091,-0.052,0.982,-6.417,0.695,7.315,3
0.091,-0.032,1.016,-0.027,5.658,7.108,3
0.092,-0.070,0.920,4.024,4.903,4.863,3
0.101,-0.116,0.933,4.513,-7.541,6.866,3
0.101,-0.103,1.028,2.522,-9.915,13.567,3
0.102,-0.039,0.983,-0.760,-4.412,11.736,3
0.104,-0.025,1.018,-3.240,-0.384,9.180,3
0.095,0.005,0.970,0.776,4.472,3.965,3
0.087,-0.023,0.976,3.081,4.364,-0.042,3
0.096,-0.104,0.972,1.230,-0.492,-1.389,3
0.103,-0.082,0.965,0.986,2.565,1.650,3
0.111,-0.100,0.957,3.221,-5.455,3.067,3
0.105,-0.017,0.986,4.094,-0.492,5.035,3
0.103,-0.039,1.005,3.535,-3.513,-1.113,3
0.111,-0.061,0.978,5.630,0.911,-1.355,3
0.100,-0.098,1.002,4.338,-1.930,-2.218,3
0.084,-0.118,1.020,0.741,-2.542,1.892,3
0.081,-0.048,1.016,-1.144,-0.600,5.864,3
0.093,-0.060,0.998,-2.856,-1.211,2.825,3
0.093,-0.068,1.008,-7.256,2.853,1.512,3
0.093,-0.042,0.963,-7.116,4.543,1.132,3
0.100,-0.031,0.970,-7.186,3.249,-0.940,3
0.106,-0.025,0.962,-0.167,2.961,-2.529,3
0.114,-0.071,0.950,15.198,0.335,-1.355,3
0.107,-0.067,0.969,6.817,-0.024,-1.527,3
0.101,-0.119,0.960,2.522,-1.859,-0.664,3
0.090,-0.067,1.020,-1.424,-1.535,4.932,3
0.081,-0.021,0.998,-1.110,-0.420,2.410,3
0.081,-0.023,1.002,0.148,1.666,-1.147,3
0.090,-0.071,0.981,2.906,1.846,-2.149,3
0.099,-0.075,1.002,2.662,1.271,-0.664,3
0.120,-0.064,0.921,2.802,2.134,-0.595,3
0.125,-0.070,0.978,1.055,-4.880,-0.318,3
0.123,-0.066,0.960,2.662,-2.362,0.511,3
0.113,-0.082,0.985,2.243,-4.952,-1.251,3
0.091,-0.068,1.014,0.497,-3.333,2.030,3
0.084,-0.097,1.040,-2.262,-5.815,1.340,3
0.074,-0.054,1.041,-3.344,-0.096,5.519,3
0.069,-0.044,1.021,-2.367,1.630,3.723,3
0.077,-0.012,0.999,-0.202,3.500,2.479,3
0.092,-0.014,0.966,2.906,2.493,-0.491,3
0.096,-0.055,0.962,2.732,1.342,-4.187,3
0.091,-0.089,0.956,4.338,0.839,-3.254,3
0.094,-0.111,0.976,4.792,-6.462,-0.802,3
0.093,-0.076,1.013,2.068,-0.132,1.063,3
0.091,-0.091,1.014,-0.027,-0.672,-0.284,3
0.085,-0.081,1.026,-1.249,2.853,3.067,3
0.084,-0.028,0.982,1.894,3.105,0.925,3
0.086,-0.072,0.992,1.894,1.378,-0.387,3
0.094,-0.015,0.969,3.325,4.256,0.096,3
0.110,-0.092,0.950,2.173,2.961,-3.738,3
0.118,-0.086,0.904,2.033,1.702,-0.767,3
0.122,-0.107,0.945,2.487,-4.268,0.338,3
0.111,-0.084,0.972,2.452,-4.772,2.169,3
0.102,-0.083,1.015,-1.214,-4.268,0.303,3
0.088,-0.109,1.025,-2.751,-4.052,1.547,3
0.076,-0.080,1.062,-2.262,-3.369,6.452,3
0.071,-0.027,1.039,-2.367,-1.211,4.586,3
0.064,-0.034,0.999,-1.808,2.457,3.101,3
0.064,-0.008,1.001,-2.227,1.846,1.201,3
0.074,-0.027,0.985,-0.586,3.572,-2.633,3
0.089,-0.089,0.956,0.462,2.673,-1.424,3
0.107,-0.076,0.943,3.325,0.551,-0.215,3
0.112,-0.073,0.955,2.767,-0.528,-0.077,3
0.101,-0.090,0.975,1.649,-3.189,-0.387,3
0.085,-0.079,0.998,-0.167,-1.247,1.098,3
0.070,-0.078,1.007,0.636,-0.312,1.271,3
0.073,-0.085,1.020,-0.132,-1.643,1.340,3
0.084,-0.073,1.014,1.440,2.026,3.723,3
0.091,-0.050,0.981,2.487,3.177,3.896,3
0.099,-0.033,0.968,1.160,0.551,2.583,3
0.097,-0.105,0.967,1.579,-0.492,-0.698,3
0.103,-0.066,0.977,-1.075,-1.391,-0.180,3
0.107,-0.068,0.982,0.287,-1.499,-0.111,3
0.105,-0.091,0.971,0.636,-1.499,0.062,3
0.095,-0.088,0.999,-0.202,-3.837,3.377,3
0.077,-0.065,1.004,-2.052,-2.110,3.757,3
0.060,-0.052,1.050,-2.576,-1.103,4.690,3
0.062,-0.016,1.023,-1.354,2.997,2.065,3
0.067,-0.069,1.001,-0.935,2.709,-0.871,3
0.134,-0.043,0.980,0.741,4.292,0.856,3
0.081,-0.045,0.975,3.011,4.256,-0.353,3
0.084,-0.037,0.968,4.338,3.141,-0.767,3
0.096,-0.047,0.999,3.709,4.220,-4.083,3
0.099,-0.095,0.946,4.094,4.112,-3.807,3
0.096,-0.092,0.991,4.513,0.875,-1.044,3
0.095,-0.090,0.973,3.884,2.853,-2.253,3
0.093,-0.116,0.979,1.090,-0.492,1.132,3
0.088,-0.065,0.987,0.916,1.702,1.443,3
0.095,-0.095,0.976,0.986,-0.204,1.512,3
0.115,-0.059,0.972,3.430,0.048,4.690,3
0.107,-0.038,0.950,2.348,1.055,-1.251,3
0.111,-0.093,0.961,2.871,-1.535,-1.147,3
0.143,-0.108,0.899,5.421,-8.225,-1.216,3
0.106,-0.122,1.025,0.113,-6.786,1.720,3
0.091,-0.072,1.000,-0.865,-6.174,3.619,3
0.072,-0.061,1.060,-3.763,-3.765,4.276,3
0.057,-0.037,1.049,-4.113,-2.002,2.134,3
0.049,-0.032,1.043,-1.668,3.177,0.511,3
0.056,-0.076,1.011,-0.551,3.968,-0.664,3
0.070,-0.034,0.991,0.846,7.493,0.131,3
0.090,-0.070,0.968,1.265,6.054,-3.254,3
0.107,-0.074,0.953,1.544,4.723,-1.389,3
0.109,-0.054,0.972,2.313,2.529,-0.318,3
0.106,-0.063,0.967,2.697,1.810,-2.840,3
0.097,-0.090,0.979,2.068,0.587,-1.631,3
0.086,-0.113,0.997,0.881,-0.492,-2.563,3
0.077,-0.090,0.977,1.195,2.062,0.752,3
0.085,-0.076,0.995,0.916,-0.887,-0.111,3
0.090,-0.056,0.991,-0.027,1.414,0.165,3
0.094,-0.048,0.972,1.649,0.515,-0.975,3
0.183,-0.438,1.219,-26.741,-44.622,-10.749,4
0.218,-1.284,1.447,-93.893,-14.591,12.496,4
0.057,-1.142,1.065,-133.283,1.918,140.364,4
-0.097,-1.425,0.224,-99.200,-75.302,194.316,4
-0.595,-2.289,0.765,-65.502,-79.726,380.938,4
-1.276,-1.491,1.091,-116.346,-111.808,635.120,4
-1.278,1.202,0.696,-153.990,43.243,602.272,4
-1.036,2.889,1.268,-138.171,64.499,441.349,4
-0.480,1.940,0.864,-173.511,89.280,152.212,4
-0.305,-0.060,0.292,-62.080,-97.529,139.225,4
-0.207,0.680,1.390,-12.284,18.391,202.502,4
-0.255,0.586,0.610,-1.948,1.486,148.240,4
-0.136,0.963,0.922,-29.360,37.704,121.505,4
-0.182,0.854,-0.037,-14.379,-11.318,28.212,4
-0.276,-0.565,1.085,-11.621,-123.497,40.508,4
-0.302,0.128,1.053,-1.494,-36.890,126.928,4
-0.291,0.516,1.027,0.322,-15.202,98.571,4
-0.269,0.589,0.829,4.373,-18.547,66.172,4
-0.239,0.291,0.890,-5.894,-43.292,48.798,4
-0.286,0.820,1.135,3.151,-30.919,33.151,4
-0.364,-0.347,0.886,-14.519,-36.027,-6.052,4
-0.296,-0.017,1.326,7.271,-48.759,97.327,4
-0.251,0.539,1.285,1.789,20.656,68.071,4
-0.241,0.676,1.241,-2.716,34.827,48.763,4
-0.163,1.066,1.218,-18.989,69.283,2.376,4
-0.246,0.989,0.515,5.036,55.508,-84.597,4
-0.345,-0.000,0.821,31.227,-19.806,-116.719,4
-0.177,-0.557,1.039,13.522,-5.671,-39.452,4
-0.152,0.253,0.977,2.802,15.693,3.619,4
-0.075,0.656,1.263,-8.059,26.375,-23.909,4
-0.165,0.837,1.209,-14.973,88.489,-67.776,4
-0.215,0.336,0.313,23.754,52.846,-122.453,4
-0.151,-0.253,0.923,33.846,-22.575,-76.411,4
-0.098,0.178,1.010,29.620,14.470,-42.354,4
-0.077,0.475,1.070,23.090,19.505,-55.997,4
-0.099,0.866,1.251,21.414,63.888,-83.250,4
-0.217,0.629,0.414,57.347,64.895,-154.299,4
-0.205,-0.387,0.792,75.645,-53.650,-156.061,4
-0.096,-0.231,1.174,76.099,-6.067,-80.486,4
-0.025,0.321,1.022,52.423,33.209,-77.827,4
-0.035,0.563,1.277,38.420,60.471,-99.864,4
-0.211,0.710,0.621,53.226,99.746,-155.646,4
-0.266,-0.210,0.450,46.033,-40.055,-206.662,4
-0.066,-0.518,1.494,46.661,-33.869,-114.163,4
0.006,0.031,0.971,35.382,54.537,-86.082,4
0.024,0.325,1.325,17.922,59.176,-91.919,4
-0.047,0.641,0.995,14.046,115.679,-124.284,4
-0.040,-0.025,0.215,20.227,13.859,-208.113,4
0.002,-0.972,1.268,18.166,-60.196,-152.330,4
0.062,-0.235,1.316,28.398,35.654,-44.979,4
0.055,0.330,1.078,34.404,40.474,-61.144,4
0.078,0.178,1.056,19.703,50.436,-116.063,4
0.132,-0.148,0.706,13.871,44.898,-125.527,4
0.123,-0.191,0.839,0.357,23.714,-98.931,4
0.155,-0.121,0.821,21.065,16.520,-77.654,4
0.150,-0.001,0.834,41.179,0.335,-67.879,4
0.149,0.070,0.884,40.096,-5.060,-73.924,4
0.141,-0.241,0.968,9.332,-2.218,-100.313,4
0.164,-0.633,1.144,-15.567,10.262,-66.981,4
0.121,-0.321,0.924,-5.440,14.506,-13.996,4
0.140,0.046,1.041,8.668,-4.412,-6.017,4
0.145,-0.047,0.980,7.411,3.249,-36.620,4
0.151,-0.155,1.037,9.262,-3.621,-27.156,4
0.155,-0.205,1.034,6.189,5.155,-24.531,4
0.144,-0.371,1.078,-3.798,5.730,-6.846,4
0.160,-0.078,0.962,0.602,15.082,13.947,4
0.168,-0.047,0.879,-0.167,6.845,3.308,4
0.169,-0.042,0.860,-1.284,-2.758,0.752,4
0.161,-0.029,1.004,-4.776,-7.829,-1.873,4
0.154,-0.082,0.980,-7.011,0.192,-3.669,4
0.144,-0.039,0.990,-2.437,-0.636,1.650,4
0.141,-0.026,0.946,2.487,-0.420,-1.147,4
0.136,-0.039,0.957,2.976,-4.017,-3.082,4
0.151,-0.046,0.937,3.605,-8.440,-4.360,4
0.136,-0.074,1.085,-2.716,-4.196,-7.019,4
0.141,-0.117,0.946,-5.405,3.213,-5.050,4
0.158,-0.071,0.999,1.021,-4.988,1.823,4
0.157,-0.074,0.977,0.462,3.069,-1.044,4
0.148,-0.042,0.988,4.024,-3.081,0.131,4
0.157,-0.058,1.020,1.195,3.752,-5.603,4
0.149,-0.116,0.939,0.182,4.759,-4.325,4
0.156,-0.084,0.956,0.043,-2.362,-0.595,4
0.147,-0.070,0.969,-2.262,-1.355,-0.906,4
0.120,-0.036,0.978,1.021,-1.571,0.511,4
0.134,0.018,1.010,6.852,-5.239,-3.738,4
0.125,-0.076,1.010,5.665,-0.060,-11.129,4
0.131,-0.117,1.002,5.630,-0.636,-5.707,4
0.127,-0.087,0.999,4.059,3.824,-1.355,4
0.136,-0.073,0.963,4.478,4.400,-1.596,4
0.144,-0.105,0.969,2.767,0.839,-1.113,4
0.151,-0.078,0.969,1.125,2.314,-1.044,4
0.157,-0.118,0.970,-1.110,-1.427,-1.044,4
0.153,-0.103,0.978,-5.440,0.048,0.062,4
0.146,-0.123,0.971,-4.881,-1.859,1.374,4
0.152,-0.072,0.983,-3.310,0.048,4.483,4
0.152,-0.067,0.951,-2.890,-1.067,2.169,4
0.143,-0.051,1.014,-1.668,-3.369,2.272,4
0.139,-0.042,0.997,-0.376,1.954,-0.422,4
0.128,-0.091,0.972,0.252,-1.139,-0.077,4
0.126,-0.087,0.984,-1.598,-2.002,1.547,4
0.121,-0.071,1.001,-1.878,-0.780,3.654,4
0.115,-0.048,0.986,1.021,-0.887,3.896,4
0.132,-0.043,1.004,-0.027,1.486,-0.975,4
0.132,-0.069,0.978,1.230,3.069,-1.596,4
0.144,-0.113,0.959,1.440,0.263,-1.976,4
0.150,-0.105,0.959,0.567,-1.139,3.377,4
0.153,-0.057,0.973,-1.214,-1.751,3.377,4
0.146,-0.085,0.977,-4.602,-1.859,1.650,4
0.139,-0.050,0.977,-4.217,-2.434,2.272,4
0.142,-0.069,1.012,-3.414,-2.254,-0.077,4
0.135,-0.058,0.997,-1.773,-0.384,2.376,4
0.127,-0.045,1.010,-1.110,0.587,2.272,4
0.132,-0.022,0.978,1.055,2.709,2.065,4
0.136,-0.060,0.985,1.440,0.911,-2.011,4
0.136,-0.062,0.977,0.497,0.443,0.822,4
0.138,-0.049,0.988,0.741,1.235,-1.285,4
0.139,-0.054,0.961,2.103,2.098,-1.596,4
0.137,-0.081,0.962,2.033,-0.995,-2.667,4
0.130,-0.070,0.979,2.173,-1.535,-1.527,4
0.126,-0.107,1.000,2.313,-1.139,-1.182,4
0.127,-0.093,1.001,1.579,0.551,1.132,4
0.129,-0.077,1.004,0.567,1.990,1.789,4
0.137,-0.052,0.991,1.335,1.738,2.894,4
0.147,-0.022,0.985,2.487,3.644,0.372,4
0.152,-0.063,0.940,1.824,3.033,-2.287,4
0.161,-0.090,0.950,1.789,-1.535,-2.598,4
0.156,-0.108,0.961,2.033,-1.031,0.856,4
0.143,-0.074,0.969,-0.586,-3.837,2.928,4
0.127,-0.036,1.022,-0.725,-3.873,1.581,4
0.110,-0.057,1.028,-1.459,-0.276,-1.458,4
0.105,-0.069,1.022,0.741,3.393,0.511,4
0.176,-0.053,0.886,-0.376,9.363,-1.734,4
0.163,-0.180,0.944,-7.884,-11.785,-0.180,4
0.104,0.047,1.251,3.884,0.803,9.077,4
0.148,0.012,0.929,-1.459,19.721,-7.641,4
0.147,-0.160,0.799,-2.995,-2.218,-5.258,4
0.127,-0.072,1.037,0.078,-5.275,1.581,4
0.131,-0.109,0.938,3.395,4.867,0.062,4
0.134,-0.021,0.939,1.719,-3.693,2.134,4
0.114,-0.057,1.040,2.417,-3.693,-3.082,4
0.119,-0.074,1.052,5.979,-0.096,-1.665,4
0.132,-0.087,1.009,3.360,5.874,-1.355,4
0.148,-0.072,0.956,1.998,4.831,-1.458,4
0.152,-0.132,0.978,0.986,2.745,-1.355,4
0.161,-0.075,0.947,3.430,3.572,2.479,4
0.160,-0.105,0.950,-0.725,-2.038,1.754,4
0.151,-0.044,0.996,-0.656,-2.182,5.623,4
0.143,-0.042,1.009,-0.271,-1.283,-1.251,4
0.132,-0.094,1.001,-0.935,1.307,-0.077,4
0.125,-0.060,0.995,-0.865,1.738,2.376,4
0.131,-0.051,0.961,0.392,2.637,0.511,4
0.135,-0.036,0.969,1.719,0.695,0.269,4
0.143,-0.056,0.952,2.068,-0.348,-3.427,4
0.147,-0.068,0.969,3.779,-0.528,-1.562,4
0.148,-0.073,0.960,3.011,-2.110,-3.496,4
0.135,-0.099,0.991,1.335,-1.211,-1.873,4
0.137,-0.081,0.973,1.265,-1.319,-1.458,4
0.126,-0.102,1.005,0.986,-1.823,-0.871,4
0.117,-0.060,1.019,0.916,0.299,1.029,4
0.122,-0.067,1.004,2.208,3.824,-2.080,4
0.125,-0.097,0.973,1.509,2.314,-1.700,4
0.147,-0.100,0.979,2.033,0.911,-0.595,4
0.161,-0.106,0.937,2.103,2.026,0.372,4
0.163,-0.090,0.939,1.055,-1.787,3.827,4
0.160,-0.062,0.940,0.916,-4.304,1.858,4
0.144,-0.074,0.986,-0.760,-5.419,0.165,4
0.135,-0.108,1.008,-2.332,-5.095,-0.595,4
0.118,-0.070,1.023,-1.564,-2.866,4.655,4
0.116,-0.060,1.001,-1.773,-0.636,-0.007,4
0.113,-0.072,0.986,0.113,-0.060,0.718,4
0.116,-0.075,0.982,2.138,-0.851,0.338,4
0.130,-0.093,0.969,1.125,-0.456,-0.802,4
0.132,-0.111,0.975,0.008,-1.499,1.063,4
0.129,-0.083,1.010,1.649,-1.787,3.377,4
0.129,-0.049,1.026,3.884,1.019,3.723,4
0.120,-0.042,1.015,4.338,2.098,0.234,4
0.123,-0.084,1.023,4.478,2.853,-0.318,4
0.111,-0.057,1.034,7.236,3.644,3.032,4
0.112,-0.042,1.010,8.074,8.536,1.305,4
0.123,-0.049,0.969,9.541,8.464,-1.044,4
0.149,-0.080,0.969,9.192,7.565,-1.147,4
0.163,-0.122,0.937,6.014,6.737,-2.943,4
0.148,-0.103,0.959,11.078,-0.456,8.317,4
0.137,-0.050,1.030,9.192,5.407,-1.251,4
0.123,-0.068,0.993,11.217,6.018,-0.284,4
0.123,-0.097,1.027,8.808,5.479,-5.983,4
0.129,-0.144,1.019,8.598,8.104,-2.667,4
0.144,-0.147,1.025,8.319,10.586,1.789,4
0.153,-0.057,0.993,11.811,14.398,4.103,4
0.160,-0.075,0.942,11.671,13.823,-3.185,4
0.177,-0.117,0.932,10.100,13.139,-3.254,4
0.183,-0.169,0.918,10.449,9.039,-4.394,4
0.186,-0.180,0.891,9.052,8.140,-0.077,4
0.191,-0.147,0.883,6.363,2.673,3.205,4
0.189,-0.109,0.959,4.862,-1.031,3.861,4
0.186,-0.128,0.927,5.141,-0.240,-0.767,4
0.168,-0.190,0.984,5.141,-4.484,-0.111,4
0.149,-0.191,1.013,9.751,-3.333,6.348,4
0.168,-0.153,1.010,5.001,-0.276,4.655,4
0.165,-0.170,1.023,3.779,0.911,6.210,4
0.225,-0.472,0.954,-1.598,-21.928,-6.363,5
0.269,-0.546,0.971,-12.948,-21.640,4.483,5
0.266,-0.793,1.056,-48.461,-23.654,24.240,5
0.223,-0.536,1.076,-46.785,-14.087,54.290,5
0.263,-0.656,0.970,-34.004,-21.316,50.145,5
0.230,-1.218,1.091,-52.303,-27.790,76.603,5
0.088,-1.674,1.310,-92.985,-1.930,187.132,5
0.010,-0.785,0.456,-133.248,28.101,275.831,5
-0.023,-0.666,-0.194,-142.746,7.960,252.862,5
-0.550,-2.069,0.267,-171.800,-132.704,337.106,5
-1.177,-2.009,0.497,-187.479,-211.650,540.617,5
-1.619,-0.234,0.711,-235.040,-7.182,664.065,5
-1.620,1.386,0.608,-241.465,76.944,641.579,5
-1.243,1.375,-0.084,-237.659,74.138,460.829,5
-1.354,1.200,-0.063,-235.180,-37.106,408.294,5
-1.333,1.205,0.931,-171.974,-125.726,397.137,5
-1.078,2.720,1.519,-53.036,-24.337,305.882,5
-0.748,1.390,0.853,-36.833,11.953,89.763,5
-0.597,0.689,0.577,-17.801,17.527,86.931,5
-0.457,0.610,0.376,2.522,-5.743,68.002,5
-0.455,0.212,0.704,-4.951,-36.206,51.250,5
-0.520,0.592,0.871,-1.110,-10.526,73.460,5
-0.543,1.293,1.241,16.385,4.400,23.894,5
-0.531,0.851,0.869,47.639,21.160,-58.933,5
-0.452,0.215,0.756,47.045,11.305,-65.945,5
-0.417,0.269,0.499,34.858,16.340,-58.312,5
-0.381,0.023,0.902,12.265,-33.401,-54.132,5
-0.444,0.266,1.131,14.989,17.060,-23.391,5
-0.477,0.500,0.957,23.579,30.116,-44.426,5
-0.465,0.543,0.770,29.655,35.007,-45.497,5
-0.428,0.604,0.777,22.846,11.665,-64.183,5
-0.400,0.768,0.971,27.630,16.412,-81.384,5
-0.419,1.002,0.969,17.363,52.091,-120.346,5
-0.451,0.910,0.827,22.043,33.964,-168.564,5
-0.467,0.588,0.819,49.839,13.967,-196.266,5
-0.451,0.027,0.341,95.166,-20.921,-209.149,5
-0.288,-0.061,1.264,79.277,-38.796,-149.083,5
-0.218,0.810,1.049,69.464,48.998,-142.590,5
-0.373,1.190,0.936,69.813,85.540,-218.717,5
-0.535,0.534,0.074,114.686,45.977,-294.671,5
-0.486,-0.981,0.420,104.943,-125.906,-257.816,5
-0.159,-0.307,1.571,93.420,-51.780,-95.201,5
-0.101,0.646,1.012,72.118,44.502,-115.510,5
-0.139,0.817,1.167,66.461,71.045,-161.034,5
-0.328,0.743,0.144,114.092,68.132,-240.097,5
-0.324,-0.812,0.960,75.785,-105.262,-248.214,5
-0.090,-0.295,1.351,87.553,-0.456,-116.961,5
-0.064,0.204,1.104,61.048,38.424,-127.738,5
-0.076,0.259,1.243,46.452,82.159,-132.988,5
-0.153,0.466,0.523,71.280,85.252,-165.905,5
-0.114,-0.226,0.602,77.705,-16.569,-215.712,5
-0.067,-0.615,1.094,91.359,-24.625,-154.092,5
0.013,-0.152,0.984,100.753,26.411,-106.392,5
0.046,0.143,1.058,79.766,35.151,-115.338,5
0.054,-0.023,0.872,56.264,93.488,-152.088,5
-0.030,-0.289,0.323,61.712,79.965,-161.967,5
0.078,-0.694,1.001,34.719,-16.928,-147.633,5
0.121,-0.697,1.017,42.436,48.530,-97.169,5
0.135,-0.496,0.760,41.772,35.295,-64.943,5
0.085,-0.107,1.152,32.868,26.123,-51.611,5
0.160,-0.156,0.940,27.700,30.619,-100.036,5
0.160,-0.756,0.964,17.643,27.598,-93.957,5
0.257,-0.649,0.899,29.236,22.814,-39.418,5
0.286,-0.593,0.655,34.963,1.199,-19.834,5
0.280,-0.606,0.822,11.881,-29.984,17.194,5
0.204,-0.286,1.020,-5.056,-31.926,39.887,5
0.173,-0.009,1.242,-6.662,-19.158,22.582,5
0.166,-0.148,1.111,-10.084,10.190,-2.978,5
0.169,-0.319,0.955,-6.033,10.550,-1.734,5
0.179,-0.204,0.978,-5.160,1.163,11.253,5
0.181,-0.152,0.970,-7.395,7.241,1.754,5
0.160,-0.215,0.900,-7.011,1.918,3.447,5
0.133,-0.121,0.969,-4.532,0.983,4.379,5
0.116,-0.282,0.910,-6.697,1.702,-4.981,5
0.121,-0.283,0.884,-5.056,-0.420,2.721,5
0.135,-0.278,0.916,-8.268,-6.246,8.628,5
0.139,-0.146,0.894,-7.570,-6.426,15.674,5
0.130,-0.100,0.962,-5.335,-10.886,8.179,5
0.119,-0.101,1.030,-4.916,-8.548,4.379,5
0.128,-0.150,1.007,-6.871,-2.650,-2.287,5
0.131,-0.236,1.016,-9.840,-4.160,8.282,5
0.125,-0.193,1.021,-9.455,0.012,6.382,5
0.117,-0.130,1.012,-5.335,0.983,6.382,5
0.135,-0.082,0.961,-0.446,2.170,2.652,5
0.132,-0.142,0.982,-3.589,-0.420,-2.736,5
0.139,-0.194,0.969,-3.659,1.307,-1.838,5
0.131,-0.194,0.977,-0.760,-0.492,3.516,5
0.150,-0.155,0.919,0.567,2.925,1.789,5
0.143,-0.197,0.927,-1.668,-0.636,2.963,5
0.135,-0.140,0.908,-2.262,-3.045,3.585,5
0.130,-0.164,0.966,-2.017,-7.721,0.891,5
0.129,-0.169,0.985,-1.529,-6.390,3.032,5
0.131,-0.158,0.993,-3.729,-4.592,2.065,5
0.117,-0.162,1.005,-4.322,-2.830,1.754,5
0.107,-0.129,1.026,-3.519,-0.887,4.345,5
0.107,-0.097,1.001,-1.564,-0.204,1.305,5
0.122,-0.152,0.999,-2.716,1.666,-3.358,5
0.120,-0.173,0.967,-1.633,2.673,-1.182,5
0.125,-0.179,0.946,-1.075,1.630,0.649,5
0.136,-0.151,0.968,-2.786,-1.211,3.619,5
0.134,-0.154,0.949,-4.636,-0.816,-1.458,5
0.128,-0.195,0.958,-3.379,-1.571,-0.111,5
0.141,-0.223,0.921,-6.941,-0.995,0.407,5
0.129,-0.198,0.928,-9.141,-3.369,3.861,5
0.118,-0.187,0.968,-9.665,-6.678,2.859,5
0.105,-0.190,1.009,-7.221,-6.210,6.210,5
0.102,-0.118,1.025,-3.868,-2.902,9.975,5
0.104,-0.070,0.987,-1.808,-1.499,5.554,5
0.110,-0.168,1.000,-4.217,-3.981,-1.769,5
0.106,-0.212,1.000,-7.290,-0.492,5.415,5
0.094,-0.090,0.975,-8.233,0.371,11.978,5
0.095,-0.007,0.984,-6.906,-0.024,6.175,5
0.101,-0.057,0.981,-6.662,-0.923,-1.596,5
0.113,-0.118,0.988,-7.395,0.192,-1.285,5
0.113,-0.163,0.968,-9.176,2.709,0.303,5
0.108,-0.079,0.936,-5.056,2.026,5.484,5
0.109,-0.053,0.932,-3.310,0.335,1.305,5
0.120,-0.097,0.938,-5.894,-2.326,-2.045,5
0.140,-0.077,0.962,-4.567,-3.513,-0.456,5
0.138,-0.092,0.959,-0.970,-5.060,-2.460,5
0.120,-0.103,1.018,3.500,-6.139,0.338,5
0.110,-0.114,1.012,4.617,-4.412,-1.838,5
0.100,-0.100,1.035,2.487,-2.254,0.683,5
0.088,-0.079,1.017,1.894,0.767,-4.360,5
0.086,-0.166,0.977,0.636,-0.276,-7.295,5
0.113,-0.205,1.010,2.243,-5.815,-1.147,5
0.113,-0.214,1.021,4.792,-0.060,3.896,5
0.109,-0.156,1.004,0.706,0.048,9.008,5
0.110,-0.077,1.008,-5.300,4.004,8.075,5
0.117,-0.089,0.947,-7.709,1.774,2.790,5
0.124,-0.132,0.952,-4.567,2.565,1.961,5
0.132,-0.156,0.920,-1.913,-0.096,4.448,5
0.123,-0.120,0.947,-0.202,-2.938,7.488,5
0.113,-0.128,0.980,-2.751,-5.779,6.417,5
0.103,-0.113,0.990,0.148,-3.801,8.317,5
0.101,-0.103,1.000,0.182,-5.527,7.660,5
0.105,-0.113,1.010,-0.516,-3.837,7.315,5
0.093,-0.133,1.010,-1.354,-2.794,7.660,5
0.077,-0.083,1.007,-2.611,-1.319,9.906,5
0.074,-0.101,0.972,-5.300,0.263,3.412,5
0.102,-0.182,0.968,-9.071,0.192,3.205,5
0.117,-0.204,0.951,-9.351,-1.031,12.220,5
0.102,-0.066,0.950,-6.871,-2.830,19.646,5
0.085,0.002,0.990,-8.059,-4.844,15.225,5
0.086,0.014,1.033,-8.792,-2.722,7.868,5
0.092,-0.081,1.018,-9.106,1.127,1.858,5
0.092,-0.101,1.001,-7.500,0.012,9.388,5
0.117,0.003,0.982,-6.697,3.644,11.460,5
0.117,-0.001,0.958,-5.963,0.587,5.968,5
0.097,0.043,1.019,-3.240,0.228,1.374,5
0.101,-0.080,0.982,-4.776,2.853,-6.294,5
0.102,-0.148,0.968,-5.230,1.594,-1.113,5
0.095,-0.077,1.004,-3.798,0.947,8.040,5
0.091,-0.004,0.971,-1.668,3.321,7.937,5
0.095,0.037,0.967,-1.773,0.443,3.723,5
0.105,0.044,0.991,-2.506,0.299,-2.253,5
0.115,-0.013,0.966,-1.878,2.242,-6.190,5
0.106,-0.071,0.968,-1.075,-0.168,-4.360,5
0.101,-0.024,0.956,1.859,-1.751,-1.355,5
0.087,-0.042,0.996,4.163,-3.225,-4.705,5
0.086,-0.055,1.036,4.792,-0.780,-4.774,5
0.078,-0.050,1.044,4.338,2.098,-3.945,5
0.067,-0.064,1.036,4.059,4.723,-4.221,5
0.075,-0.106,0.991,3.430,7.780,-5.741,5
0.108,-0.077,0.973,2.592,7.888,-6.639,5
0.121,-0.098,0.922,3.570,6.522,-6.190,5
0.105,-0.073,0.957,7.411,1.918,-3.669,5
0.096,-0.080,0.967,9.646,2.350,-8.401,5
0.098,-0.129,0.964,-1.738,0.156,-7.572,5
0.102,-0.115,1.000,2.697,-0.312,-5.741,5
0.115,-0.116,0.994,-0.865,4.328,-7.330,5
0.123,-0.145,0.966,-0.027,3.608,-5.707,5
0.134,-0.152,0.968,3.186,0.192,-3.323,5
0.135,-0.147,0.982,0.078,-0.024,-0.664,5
0.125,-0.122,0.965,-3.414,0.048,1.547,5
0.118,-0.069,0.967,-2.995,-1.139,0.269,5
0.121,-0.119,0.974,-1.633,-3.261,-3.945,5
0.104,-0.149,1.007,-2.192,-3.153,-0.836,5
0.149,-0.110,0.921,-4.252,2.206,0.683,5
0.102,-0.218,0.942,-10.852,-14.231,5.726,5
0.057,0.096,1.209,0.392,-6.750,16.572,5
0.106,0.058,0.972,1.090,11.809,-4.567,5
0.095,-0.162,0.858,-7.640,-5.743,-9.195,5
0.136,-0.169,1.136,-2.017,-8.548,5.795,5
0.071,-0.231,0.945,-1.843,-0.887,0.096,5
0.075,-0.025,0.979,-6.802,-2.506,7.833,5
0.066,0.007,1.061,-0.900,-2.326,6.935,5
0.077,-0.049,1.006,-2.122,-1.751,1.616,5
0.111,-0.015,1.030,-2.192,0.192,2.238,5
0.112,-0.048,1.027,-3.729,2.421,3.516,5
0.124,0.024,1.000,-2.157,2.529,1.029,5
0.120,-0.017,0.959,-1.808,-1.103,-1.355,5
0.097,0.020,0.994,3.186,-0.312,-1.665,5
0.085,-0.084,0.979,1.475,0.228,-6.777,5
0.080,-0.074,0.985,0.322,1.199,-1.631,5
0.080,-0.035,0.952,-0.271,0.695,-1.424,5
0.084,-0.021,0.987,2.452,0.947,-3.151,5
0.089,-0.044,0.957,3.605,1.594,-5.914,5
0.076,-0.046,0.985,4.757,0.084,-4.774,5
0.089,-0.060,0.969,2.452,1.630,-7.123,5
0.263,-0.402,0.983,5.141,-9.699,-33.304,6
0.301,-0.602,1.056,-5.370,-11.929,-36.102,6
0.300,-0.829,1.273,-34.773,-8.440,-21.733,6
0.278,-0.899,1.180,-44.830,4.256,6.313,6
0.261,-0.923,0.962,-42.525,8.859,35.051,6
0.256,-1.175,1.235,-49.474,-32.178,68.141,6
0.183,-1.365,1.188,-98.432,41.912,127.412,6
0.066,-1.814,0.924,-142.571,25.260,198.599,6
-0.207,-2.081,0.874,-165.200,30.008,350.093,6
-0.800,-1.319,-0.283,-151.127,69.930,468.428,6
-1.507,-1.319,0.415,-129.791,14.902,607.488,6
-2.029,-0.947,0.246,-154.374,9.651,685.480,6
-2.373,-0.170,-0.001,-156.190,21.124,731.833,6
-2.327,-0.461,0.055,-174.209,-80.373,725.305,6
-2.387,0.434,-0.051,-135.832,-23.654,722.023,6
-2.189,0.542,0.368,-73.360,-84.869,680.402,6
-1.778,2.149,1.232,-64.420,-7.757,626.727,6
-1.386,3.478,0.651,-14.868,-5.671,404.840,6
-1.295,1.386,0.659,-32.957,-86.595,148.447,6
-1.080,0.437,0.777,52.039,-92.530,133.871,6
-0.875,0.442,0.647,41.074,-49.838,100.954,6
-0.833,0.580,0.632,14.360,-40.450,48.487,6
-0.838,0.278,1.068,-19.024,-37.825,-7.779,6
-0.869,0.038,1.239,3.744,-11.174,-23.149,6
-0.894,-0.092,1.056,26.338,17.240,-11.993,6
-0.768,0.381,1.017,38.595,19.829,-15.378,6
-0.638,0.021,0.706,8.144,32.921,-50.229,6
-0.586,0.120,0.787,-5.649,4.436,-31.163,6
-0.630,0.611,1.033,-7.570,12.960,-58.001,6
-0.678,0.331,1.178,-11.481,12.816,-104.596,6
-0.639,0.019,0.942,-5.894,47.991,-103.179,6
-0.582,0.015,0.743,-13.052,31.446,-88.085,6
-0.511,0.557,0.919,-17.208,26.950,-85.426,6
-0.606,0.880,1.202,-21.992,32.669,-123.765,6
-0.747,1.285,1.142,-5.824,81.763,-180.515,6
-0.806,0.059,0.559,2.243,43.387,-269.249,6
-0.648,-0.355,0.863,31.646,1.666,-186.318,6
-0.488,0.591,1.126,26.303,47.667,-155.888,6
-0.437,1.110,0.969,10.833,86.223,-217.197,6
-0.673,1.291,0.729,-3.344,104.854,-297.883,6
-0.909,0.160,0.039,47.884,13.139,-370.383,6
-0.632,-0.954,0.835,99.496,-112.815,-267.108,6
-0.270,-0.027,1.663,105.886,-10.526,-154.610,6
-0.266,1.072,1.357,68.417,107.767,-186.318,6
-0.751,1.344,0.732,73.166,152.833,-277.884,6
-0.635,-0.568,-0.230,82.210,-16.065,-398.775,6
-0.274,-1.052,1.374,120.099,-41.278,-214.434,6
-0.053,0.445,1.128,87.832,89.136,-150.603,6
-0.198,0.751,0.936,60.350,122.153,-214.019,6
-0.298,0.469,-0.216,79.207,100.250,-294.325,6
-0.223,-0.967,0.684,50.118,-89.436,-270.354,6
-0.063,-0.376,1.303,65.658,-5.347,-149.982,6
-0.026,0.192,0.988,32.623,34.360,-178.961,6
-0.075,0.109,1.091,36.884,59.320,-178.995,6
-0.088,0.339,0.635,51.864,44.826,-234.398,6
-0.109,-0.837,0.519,33.881,17.491,-254.466,6
0.035,-1.096,0.663,48.722,-40.666,-152.123,6
0.133,-0.704,1.211,59.861,-30.991,-69.261,6
0.158,-0.235,0.835,62.550,45.905,-70.124,6
0.113,0.039,0.785,51.061,14.794,-93.923,6
0.183,-0.369,0.855,-7.849,37.597,-151.052,6
0.210,-1.392,0.622,-26.671,12.168,-111.504,6
0.307,-1.029,1.039,7.551,-12.648,22.167,6
0.341,-0.357,0.825,29.865,6.162,37.296,6
0.312,-0.339,0.774,26.757,-19.662,24.931,6
0.311,-0.173,1.025,3.989,-23.546,16.192,6
0.298,-0.183,1.106,-20.386,-0.959,1.305,6
0.315,-0.227,1.109,-21.049,1.271,4.725,6
0.306,-0.147,0.991,-7.535,9.147,5.105,6
0.275,-0.161,0.997,-6.348,1.450,2.825,6
0.279,-0.084,0.941,-4.671,2.314,-0.871,6
0.250,-0.140,1.008,-2.890,-12.541,-4.049,6
0.252,-0.175,1.092,0.252,2.134,-3.289,6
0.273,-0.246,1.015,-9.979,2.314,7.764,6
0.309,-0.036,0.760,-22.201,0.659,5.519,6
0.170,-0.192,1.117,-19.513,-28.725,15.570,6
0.098,0.147,1.272,-2.541,-4.484,11.909,6
0.076,0.030,1.089,10.240,7.888,-6.777,6
0.129,-0.108,0.932,13.382,7.169,-13.755,6
0.179,-0.329,0.955,-1.424,8.428,-5.465,6
0.174,-0.152,0.922,-8.548,5.694,11.253,6
0.170,0.016,0.940,-7.465,0.623,7.730,6
0.181,0.018,0.897,-3.414,2.997,-1.804,6
0.200,-0.067,0.914,0.916,-3.693,-6.708,6
0.207,-0.180,0.919,-2.856,-5.851,-7.330,6
0.181,-0.169,0.942,-7.290,-6.390,1.305,6
0.172,-0.070,0.955,-11.062,-9.555,-0.042,6
0.166,-0.088,1.038,-6.557,-6.966,-1.562,6
0.165,-0.088,0.946,1.894,-3.405,-1.700,6
0.145,-0.153,0.990,0.497,-9.375,1.029,6
0.148,-0.112,1.004,-3.624,-10.023,3.136,6
0.150,-0.118,1.020,-8.408,-9.052,2.790,6
0.148,-0.064,1.048,-2.960,-4.268,5.692,6
0.155,-0.044,1.019,0.252,-0.420,0.269,6
0.147,-0.103,0.978,-1.005,-0.096,-2.114,6
0.153,-0.139,1.007,-4.148,-1.355,-1.596,6
0.148,-0.189,0.944,-7.151,-0.528,0.096,6
0.124,-0.107,0.990,-5.335,-4.880,7.419,6
0.129,-0.079,0.974,0.671,0.983,3.205,6
0.131,-0.083,0.951,2.068,-0.492,4.172,6
0.143,-0.087,0.974,-1.144,-1.930,-0.318,6
0.133,-0.111,0.961,-11.132,-0.744,3.930,6
0.133,-0.099,0.967,-9.351,-1.894,3.481,6
0.135,-0.048,0.949,-5.963,-1.067,6.486,6
0.135,-0.028,0.994,-0.621,-2.146,3.792,6
0.144,-0.061,0.942,2.103,-1.787,0.442,6
0.140,-0.104,1.031,-1.564,-3.045,3.343,6
0.139,-0.052,0.967,-1.284,-0.096,5.070,6
0.132,-0.051,1.001,-2.716,-1.859,3.930,6
0.129,-0.020,0.984,1.265,-0.672,1.271,6
0.129,-0.058,1.015,1.370,-1.283,-1.389,6
0.130,-0.054,0.964,1.405,0.443,-2.391,6
0.132,-0.125,0.983,-1.983,-0.923,-3.496,6
0.129,-0.145,0.928,-4.217,-0.204,-0.595,6
0.133,-0.103,0.979,-3.519,-1.966,4.483,6
0.130,-0.078,0.938,-2.681,-0.851,2.790,6
0.133,-0.029,0.975,2.487,-3.117,3.516,6
0.124,-0.067,0.987,0.322,-2.110,-0.284,6
0.121,-0.087,0.968,-0.376,-3.873,-0.595,6
0.115,-0.085,1.038,-0.586,-3.297,3.412,6
0.126,-0.053,0.958,-0.097,-1.499,3.239,6
0.122,-0.021,1.020,0.602,-2.506,3.101,6
0.122,-0.042,0.962,2.033,0.587,-0.940,6
0.125,-0.072,1.000,0.567,-2.686,-0.456,6
0.143,-0.082,0.968,1.055,-0.456,-0.560,6
0.148,-0.068,1.005,1.335,-2.218,1.996,6
0.151,-0.043,1.008,-0.481,-0.744,0.960,6
0.135,-0.015,1.008,-0.795,2.601,-1.251,6
0.126,-0.085,0.995,-0.376,0.263,-3.565,6
0.132,-0.107,0.969,2.417,2.026,-2.702,6
0.130,-0.129,0.969,2.278,0.731,-1.078,6
0.127,-0.132,0.967,0.532,0.623,1.823,6
0.131,-0.089,0.963,-0.237,-0.456,2.998,6
0.130,-0.085,0.971,-1.144,-0.312,2.341,6
0.129,-0.062,0.978,-0.481,-0.708,2.307,6
0.113,-0.075,0.999,-0.411,-0.492,0.891,6
0.104,-0.082,1.003,0.113,-0.168,1.409,6
0.101,-0.089,1.001,0.706,1.774,1.961,6
0.113,-0.054,1.003,-0.481,2.386,3.723,6
0.124,-0.042,0.960,1.265,3.536,1.754,6
0.123,-0.034,0.969,2.941,0.156,2.652,6
0.127,-0.010,0.968,3.884,0.911,-0.836,6
0.128,-0.056,0.963,3.465,0.228,-2.080,6
0.135,-0.054,0.967,4.024,-0.276,-2.356,6
0.149,-0.093,0.968,1.370,0.263,-2.460,6
0.151,-0.090,0.986,0.602,-1.751,-0.284,6
0.144,-0.069,1.010,0.916,-1.211,0.372,6
0.136,-0.031,1.019,2.732,0.084,-0.664,6
0.127,-0.078,1.032,1.929,1.522,-4.947,6
0.117,-0.106,1.017,1.859,2.961,-3.980,6
0.116,-0.138,0.995,1.649,4.651,-1.976,6
0.112,-0.118,0.963,1.440,4.975,0.165,6
0.123,-0.113,0.961,1.789,3.177,1.271,6
0.139,-0.079,0.953,1.405,2.817,1.616,6
0.146,-0.094,0.960,1.789,2.062,0.545,6
0.142,-0.075,0.958,0.322,1.486,1.547,6
0.131,-0.056,0.966,0.602,-0.096,1.098,6
0.124,-0.059,0.974,1.614,0.120,-0.387,6
0.123,-0.064,1.001,3.186,-1.966,0.338,6
0.137,-0.061,0.989,2.173,1.127,-1.458,6
0.135,-0.095,0.975,0.776,-1.499,-1.493,6
0.134,-0.089,0.984,1.824,1.702,0.234,6
0.137,-0.084,0.948,2.313,0.299,0.925,6
0.162,-0.045,0.956,4.548,-0.312,-0.180,6
0.159,-0.092,0.951,1.824,-2.146,-3.151,6
0.142,-0.088,1.004,1.195,-3.405,-1.769,6
0.142,-0.125,0.995,-0.376,-2.973,-3.254,6
0.120,-0.097,1.034,1.509,-2.074,1.374,6
0.113,-0.081,1.039,2.173,0.947,0.407,6
0.106,-0.078,1.010,-1.389,4.651,-1.113,6
0.119,-0.112,0.968,-0.376,6.450,-2.391,6
0.132,-0.145,0.904,-0.062,2.134,-0.387,6
0.123,-0.099,0.988,2.348,0.120,5.726,6
0.150,-0.082,0.909,-0.970,1.738,-0.146,6
0.152,-0.107,0.953,-2.576,-1.031,-0.215,6
0.140,-0.092,0.965,0.392,-2.110,2.652,6
0.120,-0.052,0.993,1.265,-2.578,2.998,6
0.112,-0.045,1.015,-1.424,-1.894,-0.526,6
0.108,-0.094,1.007,-0.062,-1.067,8.351,6
0.113,-0.040,1.031,1.998,1.486,0.683,6
0.125,-0.068,0.986,1.440,2.421,-1.562,6
0.143,-0.039,0.979,3.290,3.141,-1.182,6
0.154,-0.066,0.944,4.268,2.529,-3.116,6
0.133,-0.062,0.970,4.094,0.228,-2.391,6
0.152,-0.053,0.955,3.186,1.342,-4.325,6
0.166,-0.089,0.956,3.186,-1.463,-6.259,6
0.155,-0.108,0.996,2.487,-1.319,-5.396,6
0.138,-0.101,1.018,1.475,0.120,-4.601,6
0.128,-0.123,0.999,1.370,-0.060,-5.603,6
0.117,-0.135,1.007,3.500,2.314,-2.771,6
0.113,-0.137,0.989,2.802,2.529,-2.011,6
0.117,-0.110,0.998,0.916,3.860,-2.563,6
0.124,-0.135,0.967,0.113,5.011,-3.082,6
0.139,-0.102,0.992,1.370,2.134,-1.389,6
0.139,-0.113,0.968,2.348,5.155,-1.458,6
0.137,-0.095,0.968,0.916,2.673,-0.802,6
0.133,-0.055,0.968,2.103,3.213,0.027,6
0.130,-0.035,0.972,1.370,3.141,-2.529,6
0.122,-0.011,1.004,1.475,2.062,-5.292,6
0.129,-0.052,0.971,3.360,6.234,-12.995,6
0.223,-0.388,1.007,10.728,13.355,-45.221,7
0.191,-0.165,0.902,9.786,13.499,-25.153,7
0.217,-0.305,0.936,-0.970,11.809,-43.079,7
0.206,-0.345,0.954,-1.529,6.630,-23.737,7
0.281,-0.258,1.147,3.151,2.278,-41.870,7
0.285,-0.520,0.946,11.951,16.197,-38.036,7
0.241,-0.725,0.638,28.154,-16.713,-28.814,7
0.366,-1.256,1.124,-1.598,-63.073,10.355,7
0.425,-1.284,0.841,-39.103,-10.526,73.943,7
0.443,-1.406,0.878,-66.515,-25.345,129.070,7
0.283,-1.735,0.349,-63.128,-7.361,204.333,7
-0.265,-2.257,1.073,-107.791,-53.758,376.413,7
-0.858,-1.484,0.546,-142.117,-139.358,518.201,7
-1.334,-0.055,0.349,-145.784,-72.496,566.177,7
-1.699,-1.422,-0.613,-100.772,-210.679,519.617,7
-2.370,-2.655,0.435,-247.681,-292.430,702.439,7
-2.905,0.158,0.505,-267.272,-73.252,840.186,7
-2.186,2.671,1.795,-198.514,-76.525,711.592,7
-1.329,3.552,1.267,-150.009,100.034,449.673,7
-0.812,2.183,-0.265,-125.321,-19.446,156.046,7
-0.712,1.127,0.919,-114.286,-92.781,75.601,7
-0.663,-0.107,0.880,-45.877,-103.212,74.047,7
-0.521,0.869,1.630,-2.890,-0.923,96.671,7
-0.529,0.715,0.617,1.125,51.336,43.755,7
-0.596,0.239,0.323,1.405,0.263,-4.083,7
-0.518,0.334,0.955,6.887,-39.695,12.634,7
-0.517,0.537,0.912,-0.341,18.750,-9.713,7
-0.511,0.222,0.821,8.982,17.959,-47.051,7
-0.484,0.242,0.993,30.109,22.670,-22.044,7
-0.491,0.590,0.930,33.147,27.490,-48.813,7
-0.490,0.770,0.906,42.820,46.049,-76.687,7
-0.527,0.138,0.498,32.169,10.010,-121.762,7
-0.470,0.276,1.132,43.763,-14.015,-85.598,7
-0.474,-0.254,0.946,20.087,8.068,-102.247,7
-0.355,0.290,1.097,31.715,10.370,-41.076,7
-0.430,0.918,1.179,29.027,25.728,-108.153,7
-0.503,0.806,1.263,51.376,57.810,-147.080,7
-0.496,0.298,0.414,81.058,63.888,-179.617,7
-0.390,-0.535,0.708,99.111,-34.552,-141.692,7
-0.217,0.314,1.328,84.375,10.406,-93.404,7
-0.071,1.085,1.289,68.172,71.549,-130.155,7
-0.425,1.116,-0.139,97.470,145.208,-230.288,7
-0.375,-1.823,0.580,49.560,-114.469,-244.553,7
-0.150,-0.060,1.264,48.966,10.442,-48.364,7
-0.131,0.472,1.359,47.080,39.287,-88.534,7
-0.125,1.066,1.334,45.474,128.483,-132.677,7
-0.226,-0.161,-0.425,62.620,49.034,-250.563,7
-0.067,-1.466,1.132,43.693,-76.704,-130.466,7
0.021,0.182,1.048,26.896,18.462,-37.104,7
0.019,0.272,1.458,29.620,40.114,-83.768,7
0.047,0.426,1.010,30.773,121.470,-107.773,7
-0.011,0.067,0.343,22.008,74.750,-142.797,7
0.042,-0.487,0.815,23.579,-10.167,-135.509,7
0.029,-0.369,1.169,32.519,14.146,-66.325,7
0.062,0.289,1.064,38.385,31.518,-73.095,7
0.133,0.225,1.220,33.008,49.501,-89.052,7
-0.043,0.341,1.035,14.709,112.802,-119.621,7
0.014,-0.655,0.506,18.970,-9.663,-144.904,7
0.097,-0.571,1.353,31.052,-5.599,-50.333,7
0.133,0.017,0.902,34.020,25.656,-38.727,7
0.119,0.047,1.056,33.601,18.750,-48.433,7
0.105,0.078,0.826,30.109,26.339,-65.565,7
0.117,0.005,0.885,29.027,4.220,-79.450,7
0.131,-0.342,1.100,14.430,12.564,-78.483,7
0.130,-0.297,0.868,13.382,26.483,-52.992,7
0.123,-0.222,0.905,16.525,13.247,-33.615,7
0.144,0.017,0.894,29.690,3.321,-32.579,7
0.154,0.010,0.940,20.471,-0.096,-57.552,7
0.162,-0.193,0.975,5.805,12.960,-60.764,7
0.131,-0.297,0.917,-2.157,19.865,-53.994,7
0.130,-0.361,0.887,5.106,4.831,-33.719,7
0.166,-0.085,0.969,16.909,0.875,-14.653,7
0.150,-0.131,0.901,16.246,-2.973,-27.329,7
0.137,-0.058,1.064,14.500,-7.397,-26.845,7
0.142,-0.270,1.075,2.906,7.565,-41.352,7
0.144,-0.519,1.003,-2.262,9.795,-17.899,7
0.154,-0.366,0.966,5.630,8.644,8.697,7
0.130,-0.272,0.910,9.157,2.493,21.338,7
0.136,0.023,1.076,7.411,-5.923,19.542,7
0.457,-0.018,0.970,4.373,2.997,-8.297,7
0.143,-0.255,1.073,-10.782,-27.359,-23.564,7
0.068,-0.370,1.328,-7.221,2.278,10.735,7
0.011,-0.158,1.212,-1.948,18.534,11.736,7
0.079,-0.082,1.004,8.179,25.836,7.142,7
0.125,-0.215,0.830,-2.995,17.599,-8.435,7
0.141,-0.276,0.945,-10.957,5.910,6.624,7
0.156,-0.136,0.893,-10.189,10.118,6.244,7
0.153,-0.105,0.944,-3.065,4.651,12.289,7
0.154,0.023,0.984,9.192,7.385,10.320,7
0.155,-0.005,0.930,9.227,8.032,-1.251,7
0.170,-0.037,0.916,-0.097,1.954,-8.228,7
0.164,-0.195,0.940,-7.500,0.947,-13.755,7
0.151,-0.212,0.950,-9.002,-1.535,-4.394,7
0.146,-0.143,0.945,-2.821,-3.549,1.201,7
0.156,-0.116,0.987,0.252,-1.751,-0.456,7
0.150,-0.140,0.941,-1.668,-2.146,-3.358,7
0.146,-0.113,0.956,-4.357,-4.124,-5.154,7
0.139,-0.142,0.993,-8.303,-4.304,-6.363,7
0.134,-0.170,0.989,-0.271,-2.434,-1.907,7
0.139,-0.172,0.950,6.433,-3.729,2.549,7
0.135,-0.132,0.984,4.932,-4.520,5.208,7
0.131,-0.139,0.978,-1.878,-3.117,2.169,7
0.128,-0.106,1.005,-2.925,-5.131,2.514,7
0.124,-0.128,0.999,-2.716,-3.477,0.131,7
0.130,-0.142,0.984,0.217,-2.038,0.787,7
0.134,-0.130,0.949,2.208,-1.283,2.203,7
0.124,-0.162,0.969,-1.948,-3.585,3.239,7
0.131,-0.104,0.962,-5.998,-4.017,3.965,7
0.127,-0.100,0.967,-7.779,-4.592,0.303,7
0.128,-0.094,0.974,-8.024,-4.808,-1.389,7
0.128,-0.132,0.988,-7.290,-8.404,-0.007,7
0.129,-0.076,1.011,1.370,-3.225,3.032,7
0.124,-0.116,0.962,3.255,-3.549,-0.767,7
0.106,-0.078,0.999,2.033,-4.124,2.790,7
0.105,-0.107,1.034,-0.446,-5.203,-1.631,7
0.105,-0.073,1.007,2.208,0.371,0.994,7
0.103,-0.127,0.998,1.370,0.659,-4.290,7
0.110,-0.138,1.005,1.789,2.062,-0.733,7
0.116,-0.134,0.972,1.405,2.134,-1.458,7
0.117,-0.141,0.995,-0.167,1.163,2.998,7
0.123,-0.076,0.975,-0.132,1.055,1.374,7
0.120,-0.093,0.982,1.859,1.630,-1.147,7
0.113,-0.114,0.969,2.487,2.062,-2.771,7
0.118,-0.153,0.993,1.405,1.378,-3.496,7
0.118,-0.186,0.947,-1.249,3.896,0.131,7
0.128,-0.123,0.959,-1.598,-0.168,3.377,7
0.126,-0.107,0.971,-0.376,1.019,2.721,7
0.124,-0.066,0.941,-1.843,-0.851,-1.113,7
0.123,-0.111,0.936,-0.481,-1.283,-5.223,7
0.133,-0.191,0.938,-1.005,-7.218,-3.772,7
0.135,-0.169,0.965,0.217,-7.325,2.479,7
0.136,-0.103,1.002,-0.341,-8.045,3.481,7
0.116,-0.119,1.057,-2.227,-5.671,3.170,7
0.113,-0.102,1.026,-6.068,0.228,0.891,7
0.102,-0.125,1.003,-6.941,-1.751,1.789,7
0.086,-0.110,1.054,-3.065,-1.930,0.752,7
0.080,-0.101,1.039,0.532,3.177,1.098,7
0.081,-0.131,1.031,-0.132,6.018,-0.940,7
0.099,-0.135,0.965,-2.681,8.212,3.101,7
0.112,-0.098,0.939,-2.856,3.033,4.068,7
0.123,-0.021,1.091,-1.773,0.947,4.863,7
0.124,-0.009,1.012,-4.636,7.709,-5.085,7
0.118,-0.064,0.954,-2.017,8.536,-6.225,7
0.114,-0.144,0.918,3.255,6.594,-6.777,7
0.112,-0.177,0.914,6.747,2.565,-0.249,7
0.122,-0.090,0.941,5.421,1.271,1.789,7
0.126,-0.129,0.891,0.252,0.084,-1.320,7
0.131,-0.114,0.933,0.113,-5.635,-0.526,7
0.132,-0.069,0.981,4.198,-7.397,0.442,7
0.137,-0.102,0.966,4.548,-6.498,-4.049,7
0.137,-0.127,1.006,2.522,-7.901,-0.353,7
0.128,-0.100,1.011,2.802,-3.225,-2.356,7
0.115,-0.183,0.994,-1.284,-4.556,-1.527,7
0.104,-0.092,1.002,-0.132,-2.973,2.065,7
0.094,-0.111,1.022,-1.389,-2.218,-1.355,7
0.084,-0.120,0.994,-3.903,-2.686,-3.047,7
0.073,-0.127,1.012,-2.192,-1.427,-0.975,7
0.080,-0.057,1.020,0.706,-1.751,-3.531,7
0.073,-0.122,1.038,0.008,7.493,-5.845,7
0.083,-0.108,0.953,-2.611,9.111,-6.397,7
0.106,-0.127,0.939,-1.598,3.860,-3.289,7
0.139,0.010,0.920,0.846,1.522,-1.424,7
0.125,0.123,0.927,0.636,-2.973,-18.487,7
0.117,-0.051,1.124,-5.859,-1.103,-38.900,7
0.110,-0.245,1.012,-0.481,13.967,-28.641,7
0.145,-0.154,0.953,5.735,11.017,-15.827,7
0.128,-0.202,0.942,2.348,7.601,-12.062,7
0.135,-0.173,0.991,8.703,3.680,-1.873,7
0.108,-0.077,1.073,15.268,6.881,-3.911,7
0.111,-0.104,0.973,13.068,19.721,-14.031,7
0.132,-0.222,0.896,8.563,8.068,-19.626,7
0.139,-0.300,0.912,4.408,-0.851,-0.802,7
0.129,-0.147,0.973,-3.379,-12.612,12.531,7
0.124,0.141,1.016,29.655,-6.498,-10.784,7
0.113,0.024,1.213,21.554,9.291,-23.115,7
0.101,-0.072,0.953,5.979,25.044,-30.679,7
0.066,-0.110,1.037,-3.798,37.273,-31.612,7
0.094,-0.263,0.821,6.014,7.025,-17.485,7
0.118,0.091,1.164,4.687,14.182,-8.504,7
0.155,-0.156,0.893,8.947,36.625,-35.031,7
0.155,-0.426,0.894,13.138,28.281,-27.881,7
0.170,-0.312,0.879,23.614,17.419,5.001,7
0.167,-0.338,0.896,22.531,11.737,24.516,7
0.160,-0.158,0.972,8.040,13.643,35.569,7
0.166,-0.173,0.945,-0.691,14.362,26.450,7
0.209,-0.213,0.827,8.109,-0.456,28.454,7
0.194,-0.224,0.906,17.852,-15.058,20.371,7
0.169,-0.202,0.921,18.062,-14.591,23.687,7
0.163,-0.321,0.985,-2.995,-27.610,15.467,7
0.177,-0.157,1.084,-5.230,-12.576,26.416,7
0.182,-0.132,0.949,-6.522,-4.484,18.368,7
0.140,-0.107,1.037,-13.925,-7.793,12.393,7
0.144,-0.146,1.009,-14.170,-4.412,13.049,7
0.139,-0.148,1.011,-10.643,-3.693,20.026,7
0.135,-0.200,0.991,-4.951,0.875,11.218,7
0.142,-0.198,0.954,-4.043,-10.958,13.152,7
0.146,-0.158,0.914,-1.249,-4.088,13.740,7
0.143,-0.129,0.869,-4.462,-15.058,15.536,7
0.151,0.010,1.062,-5.684,-13.260,3.827,7
0.127,-0.118,0.982,-10.049,-1.966,-8.332,7
0.267,-0.556,0.819,-8.827,-13.799,-10.473,8
0.323,-0.688,0.886,-3.310,-22.359,18.852,8
0.387,-0.846,1.157,-0.237,-34.983,70.040,8
0.369,-0.726,1.208,2.522,-31.279,111.316,8
0.348,-1.852,0.854,-14.240,-43.651,149.690,8
0.023,-3.117,0.914,-60.998,-119.109,382.699,8
-0.851,-2.003,-0.120,-123.749,-53.758,563.414,8
-1.870,-1.317,0.113,-51.709,-224.526,717.464,8
-2.113,-0.419,1.425,-15.392,-114.721,755.147,8
-1.847,0.991,1.513,-123.295,58.061,699.123,8
-1.456,0.980,-0.420,-144.632,-15.598,542.655,8
-1.202,1.270,2.054,-140.686,-117.131,527.492,8
-0.734,2.761,0.499,-50.592,-62.462,342.149,8
-0.492,1.476,1.516,-4.636,-67.713,167.409,8
-0.290,1.003,0.875,6.503,-17.108,74.116,8
-0.175,-0.104,0.237,0.532,-57.570,1.443,8
-0.144,-0.839,0.634,-5.859,-94.867,86.309,8
-0.281,-0.120,0.822,-19.897,-36.890,92.561,8
-0.429,-0.190,1.160,-25.065,-41.781,136.323,8
-0.445,0.495,1.044,-11.376,20.728,105.168,8
-0.438,0.447,0.845,-0.411,-9.735,84.962,8
-0.419,0.262,0.856,-8.967,4.364,43.030,8
-0.430,0.558,1.052,-1.878,-4.952,43.479,8
-0.465,0.968,1.291,-12.633,27.166,-9.022,8
-0.465,0.762,1.031,-3.624,51.659,-95.615,8
-0.323,-0.503,0.627,-6.697,25.907,-123.316,8
-0.272,-0.768,1.145,-2.192,-9.268,-35.273,8
-0.254,0.038,1.096,6.433,22.706,-2.563,8
-0.272,0.523,1.172,1.719,28.425,-23.322,8
-0.285,0.528,1.010,2.697,22.023,-69.606,8
-0.244,-0.120,0.790,15.059,-25.309,-101.625,8
-0.166,-0.241,1.191,17.189,4.076,-31.094,8
-0.155,0.357,1.061,9.436,23.498,-35.066,8
-0.135,0.593,1.419,8.074,50.544,-49.193,8
-0.345,1.235,0.653,35.941,104.062,-98.413,8
-0.328,0.073,0.463,24.941,-60.124,-207.629,8
-0.184,-0.419,1.317,37.128,-33.689,-125.769,8
-0.163,0.428,1.266,30.912,37.381,-106.288,8
-0.231,1.096,1.398,41.877,118.880,-137.961,8
-0.460,0.806,0.094,49.141,44.034,-266.072,8
-0.374,-0.805,0.512,70.337,-77.352,-284.516,8
-0.151,-1.009,1.423,32.833,-11.426,-156.993,8
-0.106,0.126,1.183,24.347,38.064,-96.340,8
-0.188,0.915,1.247,31.192,110.824,-155.197,8
-0.217,0.365,0.401,35.138,45.833,-250.356,8
-0.123,-0.813,0.321,74.458,-45.162,-229.148,8
0.021,-0.718,1.423,70.652,-38.940,-116.270,8
-0.012,0.295,1.269,70.477,47.487,-93.715,8
-0.080,0.930,1.247,61.956,108.126,-152.296,8
-0.179,-0.011,0.574,31.436,56.371,-256.158,8
-0.033,-1.214,0.498,12.125,-50.161,-213.467,8
0.018,-0.488,1.232,30.354,-21.640,-83.215,8
0.022,0.217,1.249,39.957,15.082,-96.582,8
0.000,0.243,1.107,38.106,66.801,-123.455,8
0.031,-0.144,0.505,17.189,46.372,-169.635,8
0.094,-0.641,0.882,-3.973,11.449,-130.535,8
0.123,-0.648,0.949,-5.056,12.744,-94.199,8
0.111,-0.186,1.091,20.890,28.317,-41.732,8
0.089,0.142,1.063,18.062,45.042,-69.468,8
0.123,-0.163,0.729,-2.751,35.762,-96.444,8
0.135,-0.514,0.969,-13.297,-11.174,-72.749,8
0.177,-0.434,1.102,-1.249,12.420,-41.698,8
0.196,-0.313,0.954,13.592,26.051,-21.215,8
0.165,-0.159,0.837,16.351,15.981,-9.679,8
0.457,0.042,0.711,21.624,-18.835,-23.149,8
0.093,-0.556,1.340,-14.449,-19.554,-48.260,8
-0.016,-0.191,1.136,-6.278,-7.973,8.904,8
-0.031,-0.094,1.037,17.084,10.658,2.583,8
0.028,-0.065,1.000,22.950,2.853,-0.077,8
0.107,-0.470,0.940,-13.576,-7.937,-18.383,8
0.101,-0.222,0.803,-21.049,12.168,14.223,8
0.078,-0.234,0.976,-23.912,-9.411,7.868,8
0.052,-0.044,0.915,-4.776,-0.024,20.095,8
0.060,-0.013,0.987,-1.738,-0.024,4.552,8
0.078,-0.116,0.972,-5.894,-3.081,3.205,8
0.069,-0.107,1.036,-7.849,-10.419,-1.285,8
0.082,-0.260,0.909,-6.348,-11.246,-0.387,8
0.085,-0.128,1.057,1.894,-6.246,12.151,8
0.064,-0.062,0.986,2.313,0.911,7.315,8
0.064,-0.075,0.983,0.252,1.558,-1.769,8
0.064,-0.124,0.981,-0.760,4.867,-3.669,8
0.066,-0.172,0.949,-2.297,1.846,-1.147,8
0.058,-0.147,0.963,-1.389,-2.146,0.165,8
0.060,-0.098,1.003,-0.097,-0.744,3.205,8
0.052,-0.131,0.913,-2.681,-4.988,-2.045,8
0.058,-0.118,0.986,-1.494,-4.556,-1.734,8
0.066,-0.130,0.970,-3.379,-3.729,-2.494,8
0.060,-0.116,1.015,-4.846,-7.002,0.994,8
0.048,-0.080,1.022,-2.471,1.522,-1.458,8
0.059,-0.111,1.018,-1.110,-2.758,-2.978,8
0.060,-0.115,0.986,0.427,1.450,-2.391,8
0.072,-0.171,0.964,-1.598,-3.045,-1.527,8
0.059,-0.142,0.994,-3.519,0.803,1.271,8
0.048,-0.161,0.974,-4.252,-2.074,4.310,8
0.043,-0.042,0.912,1.055,1.522,5.554,8
0.046,-0.038,1.039,5.141,-0.420,-2.598,8
0.056,-0.133,0.977,6.014,2.997,-6.121,8
0.061,-0.187,0.983,0.811,0.048,-3.669,8
0.068,-0.199,0.952,-3.030,-0.708,0.994,8
0.042,-0.084,1.009,-2.192,-1.894,7.522,8
0.039,-0.053,0.989,1.649,3.285,1.927,8
0.045,-0.073,0.969,1.649,0.407,-1.907,8
0.067,-0.127,0.968,0.846,-0.312,-4.705,8
0.074,-0.173,0.955,-0.446,-1.391,-1.216,8
0.078,-0.174,0.974,-2.541,-5.779,2.687,8
0.067,-0.097,0.979,-0.202,-3.081,5.899,8
0.047,-0.081,1.012,1.055,-3.801,3.377,8
0.042,-0.080,1.091,2.452,0.551,-1.355,8
0.043,-0.110,0.936,3.954,-8.045,-1.355,8
0.030,-0.089,1.095,-0.586,-0.384,-1.320,8
0.036,-0.127,0.981,1.475,4.543,-3.461,8
0.045,-0.169,0.967,-1.459,-1.355,2.618,8
0.047,-0.087,0.982,0.148,2.961,0.649,8
0.050,-0.083,0.986,3.116,0.192,2.203,8
0.046,-0.084,0.977,2.452,2.242,0.511,8
0.041,-0.094,0.976,3.081,1.199,-1.458,8
0.032,-0.166,1.003,1.195,0.120,-0.215,8
0.043,-0.100,0.984,1.929,3.572,2.065,8
0.064,-0.129,0.964,2.103,2.062,0.303,8
0.065,-0.096,0.948,4.303,3.285,-1.458,8
0.076,-0.110,0.995,8.633,4.328,-1.216,8
0.070,-0.126,0.944,10.763,2.350,-3.392,8
0.075,-0.191,0.958,10.973,1.846,-0.215,8
0.076,-0.148,0.997,6.713,-2.074,2.065,8
0.074,-0.129,0.977,0.217,-0.168,-0.318,8
0.059,-0.097,0.988,-1.319,0.875,-2.391,8
0.053,-0.164,0.993,-0.795,-1.031,-4.360,8
0.049,-0.144,1.007,1.090,8.428,-0.111,8
0.040,-0.153,0.983,-0.865,-0.492,0.234,8
0.055,-0.099,0.968,-4.322,0.551,-9.057,8
0.052,-0.134,0.941,-14.973,-1.715,-3.496,8
0.045,-0.125,1.031,-17.906,-3.693,-6.501,8
0.046,-0.135,1.007,-9.909,-1.463,-2.356,8
0.046,-0.121,1.026,-0.865,3.500,-0.975,8
0.048,-0.115,0.967,4.303,1.342,1.271,8
0.042,-0.106,1.036,2.941,4.472,0.718,8
0.048,-0.141,0.959,-1.005,3.716,0.269,8
0.057,-0.122,0.964,-0.795,2.745,0.545,8
0.059,-0.138,0.977,3.675,1.271,3.654,8
0.067,-0.142,0.953,10.344,4.759,3.377,8
0.067,-0.125,0.971,14.116,2.278,7.142,8
0.062,-0.116,0.970,14.849,1.342,4.690,8
0.066,-0.124,0.995,11.566,-0.887,5.346,8
0.077,-0.130,0.982,5.874,-1.139,3.377,8
0.067,-0.131,0.985,-0.446,-0.384,2.410,8
0.059,-0.128,0.991,-1.354,0.551,1.512,8
0.054,-0.133,1.014,-1.144,-0.528,3.688,8
0.049,-0.105,0.999,0.671,2.601,1.616,8
0.045,-0.126,0.984,1.021,2.062,0.683,8
0.057,-0.117,0.934,2.068,4.040,-0.733,8
0.066,-0.129,0.936,0.602,-0.420,-0.422,8
0.078,-0.152,0.970,0.008,-2.218,-1.182,8
0.063,-0.152,0.980,1.125,-1.930,1.201,8
0.060,-0.117,1.002,1.963,0.120,0.338,8
0.058,-0.125,1.006,-0.062,0.084,-1.562,8
0.043,-0.168,1.005,-0.830,-0.816,0.752,8
0.043,-0.118,1.011,0.951,0.228,0.614,8
0.049,-0.160,1.001,-0.795,0.515,-0.042,8
0.064,-0.152,0.961,-1.598,2.709,0.200,8
0.063,-0.140,0.996,-0.132,1.558,2.790,8
0.060,-0.093,0.963,1.475,0.192,2.410,8
0.063,-0.101,0.993,1.125,2.278,-0.422,8
0.074,-0.114,0.953,2.627,0.335,-0.180,8
0.071,-0.134,0.982,-0.097,0.012,-2.805,8
0.072,-0.159,0.968,-0.621,0.515,-1.355,8
0.056,-0.148,1.003,-0.341,-2.110,2.583,8
0.050,-0.115,0.974,2.068,1.235,0.752,8
0.057,-0.131,1.013,1.335,0.983,0.269,8
0.057,-0.150,0.969,1.195,1.954,-1.389,8
0.065,-0.170,0.982,-0.551,1.378,-0.249,8
0.069,-0.143,0.992,-1.878,0.623,1.927,8
0.068,-0.143,0.945,-0.586,1.630,0.511,8
0.061,-0.128,0.986,-0.237,0.731,2.583,8
0.052,-0.110,0.990,-0.271,-1.391,0.822,8
0.053,-0.111,0.994,0.217,1.630,0.407,8
0.048,-0.141,0.995,-2.821,1.666,0.718,8
0.053,-0.124,0.969,-1.948,0.911,0.096,8
0.061,-0.128,0.973,-0.027,1.666,0.649,8
0.067,-0.108,0.968,-0.725,1.486,-0.629,8
0.082,-0.103,0.937,-0.691,-0.060,-1.976,8
0.078,-0.144,1.015,-3.344,-0.636,-1.078,8
0.070,-0.163,0.969,-6.278,-3.909,0.027,8
0.064,-0.106,0.970,-1.005,1.091,0.856,8
0.058,-0.149,1.015,1.998,-0.528,1.201,8
0.042,-0.087,1.003,0.252,0.371,0.407,8
0.043,-0.139,1.014,-1.214,2.781,-1.804,8
0.051,-0.131,1.011,-11.306,1.235,-0.007,8
0.053,-0.108,0.995,-0.656,6.701,1.167,8
0.064,-0.116,0.969,-0.795,2.026,1.271,8
0.067,-0.101,0.961,0.113,4.723,0.718,8
0.073,-0.106,0.965,0.497,0.371,-0.698,8
0.069,-0.103,0.963,0.322,0.731,-1.976,8
0.064,-0.104,0.976,1.544,1.846,-2.011,8
0.068,-0.137,0.957,0.532,-0.204,-4.463,8
0.063,-0.138,1.014,0.916,-1.427,-1.527,8
0.061,-0.166,0.997,0.322,-0.384,-1.147,8
0.052,-0.111,1.009,1.789,1.055,1.996,8
0.048,-0.119,1.013,1.230,0.479,-0.422,8
0.052,-0.108,1.020,0.741,0.407,-0.422,8
0.059,-0.109,1.001,0.916,2.673,-1.424,8
0.230,-0.557,0.894,-13.401,-16.029,29.801,9
0.364,-1.101,0.819,-68.925,-21.280,47.658,9
0.225,-1.049,0.954,-100.981,-22.899,155.631,9
0.078,-1.258,-0.026,-83.766,-53.686,191.726,9
-0.408,-2.993,-0.035,-50.138,-244.020,350.369,9
-1.123,-2.326,0.267,-168.203,-157.125,586.003,9
-2.142,-0.970,0.615,-213.564,-131.805,752.522,9
-2.190,-0.224,0.869,-194.707,-20.777,722.990,9
-2.067,0.928,0.728,-213.215,17.635,680.851,9
-1.864,1.161,0.388,-233.329,-15.634,571.773,9
-1.519,2.270,1.023,-157.308,-14.950,488.323,9
-1.051,2.369,0.888,-142.886,-5.455,280.771,9
-0.747,1.212,1.104,-98.397,-45.558,144.820,9
-0.720,0.419,0.737,-37.741,-2.470,90.488,9
-0.620,0.098,1.189,-7.675,-13.332,107.896,9
-0.527,0.548,0.646,11.147,30.547,91.248,9
-0.456,0.230,0.757,2.906,-0.851,64.928,9
-0.446,0.273,0.612,8.249,-24.589,54.048,9
-0.502,0.152,1.037,8.144,-43.400,39.956,9
-0.522,0.076,1.200,16.176,-26.136,35.258,9
-0.492,0.083,1.202,9.646,-1.535,48.798,9
-0.466,0.672,1.180,9.367,19.469,40.025,9
-0.454,0.790,0.986,5.525,39.934,-15.551,9
-0.412,-0.004,0.821,-3.903,0.371,-47.915,9
-0.393,-0.153,1.031,-6.278,-0.312,-9.955,9
-0.399,0.379,1.144,-8.024,12.780,-7.883,9
-0.407,0.559,1.150,-12.948,14.003,-37.276,9
-0.411,0.187,1.227,-17.208,24.073,-61.247,9
-0.394,0.288,1.188,4.198,37.525,-53.130,9
-0.348,0.241,0.964,10.728,48.279,-69.779,9
-0.248,-0.225,0.687,-5.300,20.081,-48.986,9
-0.215,0.384,0.768,-3.519,9.615,-32.752,9
-0.300,0.660,0.940,-8.094,-2.758,-75.616,9
-0.345,0.422,1.210,0.078,-0.636,-93.750,9
-0.372,0.473,1.280,6.503,49.034,-111.849,9
-0.317,0.285,0.820,0.986,67.053,-118.273,9
-0.342,0.461,0.969,2.627,81.188,-117.168,9
-0.327,0.358,0.575,19.074,36.086,-142.832,9
-0.299,0.352,0.951,31.331,51.192,-141.415,9
-0.207,-0.140,0.794,10.589,14.614,-140.414,9
-0.176,0.207,0.991,20.297,34.467,-110.882,9
-0.176,0.586,1.145,18.900,51.372,-114.370,9
-0.252,1.105,1.190,37.373,93.992,-155.370,9
-0.338,0.325,0.331,37.792,87.050,-256.677,9
-0.157,-1.351,0.691,5.874,-38.868,-183.451,9
-0.001,0.058,1.091,32.833,35.510,-57.137,9
0.019,0.524,1.208,10.554,31.950,-91.263,9
0.045,1.098,1.235,19.144,83.454,-131.951,9
-0.153,0.484,0.333,33.915,93.308,-223.656,9
-0.073,-0.909,0.137,37.373,-63.181,-211.947,9
0.073,-0.416,1.462,50.572,-27.179,-85.944,9
0.094,0.534,1.166,42.296,46.049,-103.214,9
0.055,1.025,1.517,43.553,108.234,-147.184,9
-0.154,0.859,0.442,32.519,146.071,-249.043,9
-0.089,-0.492,0.430,36.080,25.620,-276.503,9
0.089,-0.757,0.940,45.614,-27.503,-189.150,9
0.152,-0.130,1.196,31.366,55.292,-148.047,9
0.118,0.145,1.002,19.668,82.806,-157.062,9
0.043,0.285,0.747,10.030,110.788,-187.907,9
0.068,-0.295,-0.004,5.036,8.823,-233.845,9
0.151,-0.798,1.268,11.008,-72.712,-177.130,9
0.213,-0.336,1.232,25.954,25.440,-109.051,9
0.193,-0.057,0.878,24.592,31.950,-113.645,9
0.182,-0.090,0.585,23.055,44.106,-129.188,9
0.166,-0.401,0.350,13.173,-43.939,-144.662,9
0.239,-0.566,1.246,17.922,-87.422,-112.505,9
0.288,-0.644,1.163,5.455,-14.159,-77.654,9
0.286,-0.259,0.971,0.008,6.773,-49.987,9
0.585,0.001,0.720,11.986,0.443,-59.417,9
0.215,-0.557,1.055,1.300,-61.203,-97.031,9
0.241,-0.799,1.354,3.605,-42.968,-27.640,9
0.169,-0.429,1.256,-8.687,23.318,-6.743,9
0.254,-0.247,0.911,3.116,18.211,3.481,9
0.229,-0.296,0.943,-7.814,13.787,-11.924,9
0.246,-0.327,0.893,-17.662,13.103,-4.463,9
0.263,-0.334,0.815,-22.446,8.823,0.683,9
0.254,-0.210,0.852,-16.474,5.335,10.458,9
0.259,-0.127,0.820,-9.141,1.486,6.037,9
0.249,-0.180,0.905,-4.671,-10.598,8.559,9
0.230,-0.032,0.857,-0.760,-12.972,2.583,9
0.192,-0.167,0.957,-5.265,-16.425,-0.664,9
0.205,-0.151,1.008,-8.582,-17.612,3.343,9
0.200,-0.182,0.912,-2.052,-7.110,4.586,9
0.186,-0.141,1.012,4.827,-12.361,9.906,9
0.163,-0.105,0.982,4.128,-9.196,7.419,9
0.163,-0.027,1.018,1.894,-4.916,1.581,9
0.166,-0.151,1.000,-0.446,-0.564,-4.739,9
0.173,-0.180,0.965,2.348,-3.513,-1.182,9
0.172,-0.178,0.980,4.059,0.371,3.999,9
0.173,-0.183,0.973,0.602,-2.290,2.894,9
0.175,-0.158,0.959,-1.110,-1.031,4.034,9
0.178,-0.156,0.975,0.532,1.918,1.961,9
0.176,-0.165,0.949,-1.424,-0.024,1.789,9
0.167,-0.185,0.993,-7.151,-1.319,2.134,9
0.182,-0.138,0.964,-2.402,-2.254,-0.180,9
0.181,-0.208,0.969,1.719,0.335,0.718,9
0.178,-0.208,0.968,2.243,-1.283,3.481,9
0.176,-0.170,0.955,0.916,-0.995,7.039,9
0.176,-0.138,0.986,-2.751,-0.276,4.863,9
0.176,-0.102,0.969,-3.030,0.731,3.205,9
0.179,-0.127,0.976,-5.579,0.695,-1.458,9
0.174,-0.134,0.962,-3.624,1.774,-1.216,9
0.178,-0.146,0.952,-3.240,1.127,-1.631,9
0.188,-0.184,0.915,-0.097,-1.715,-1.873,9
0.190,-0.202,0.992,3.849,-2.182,5.484,9
0.185,-0.153,0.954,5.106,-0.528,4.414,9
0.186,-0.163,0.977,-1.389,-4.088,4.483,9
0.183,-0.138,0.970,-1.110,-0.168,0.580,9
0.176,-0.138,0.986,1.475,1.127,1.754,9
0.183,-0.201,0.902,-0.237,-2.542,-0.456,9
0.171,-0.127,1.012,4.128,0.443,6.348,9
0.170,-0.163,0.937,2.068,0.371,2.445,9
0.174,-0.129,0.975,0.602,-0.887,4.655,9
0.178,-0.126,0.968,2.767,-2.938,2.928,9
0.181,-0.122,0.994,4.128,0.335,0.683,9
0.182,-0.149,0.974,2.138,2.062,0.096,9
0.175,-0.129,0.963,1.090,1.882,0.027,9
0.179,-0.174,0.922,-0.865,-0.348,-2.149,9
0.181,-0.188,0.965,-2.087,-1.679,1.167,9
0.176,-0.147,0.984,-1.738,-0.636,3.136,9
0.179,-0.152,0.935,-5.719,-2.290,-0.422,9
0.169,-0.128,0.974,-11.830,-2.038,-1.458,9
0.162,-0.152,0.968,-17.732,-3.477,-5.879,9
0.176,-0.154,0.964,-14.135,0.084,-2.356,9
0.176,-0.150,0.985,-2.332,-0.744,-0.249,9
0.195,-0.153,0.916,7.621,1.738,1.789,9
0.174,-0.101,1.004,3.640,-4.556,2.790,9
0.169,-0.145,0.974,-0.062,-1.283,-1.493,9
0.172,-0.092,1.002,0.392,-0.959,0.752,9
0.159,-0.113,0.993,1.370,1.271,-1.734,9
0.158,-0.073,1.000,1.859,2.817,-2.598,9
0.170,-0.107,1.031,3.465,2.853,-3.876,9
0.170,-0.158,1.014,1.021,7.169,-2.287,9
0.173,-0.126,0.962,0.357,7.133,-0.802,9
0.168,-0.143,0.958,2.592,5.443,-1.182,9
0.163,-0.183,0.934,3.675,3.932,-2.460,9
0.163,-0.165,0.998,3.919,4.040,-0.733,9
0.180,-0.183,0.966,3.255,5.982,-1.596,9
0.188,-0.191,0.942,0.951,6.378,1.236,9
0.185,-0.131,0.936,0.148,3.500,1.167,9
0.185,-0.155,0.931,0.462,3.069,-1.216,9
0.201,-0.129,0.983,1.719,3.608,-0.318,9
0.197,-0.183,0.841,3.605,0.623,-1.838,9
0.202,-0.146,0.990,4.024,1.702,-0.249,9
0.190,-0.187,0.995,0.741,-2.362,1.305,9
0.186,-0.116,0.966,1.265,3.896,1.167,9
0.181,-0.129,1.018,-0.167,2.997,-1.493,9
0.190,-0.191,0.936,-0.691,3.393,-3.151,9
0.185,-0.228,1.008,0.322,1.954,3.205,9
0.187,-0.125,0.957,2.802,4.759,5.933,9
0.196,-0.113,0.945,0.846,4.975,2.825,9
0.195,-0.083,0.931,1.824,3.285,1.167,9
0.195,-0.155,0.922,1.754,-1.427,-4.878,9
0.191,-0.168,0.964,4.478,0.695,-0.284,9
0.190,-0.208,0.964,0.846,-3.297,-0.353,9
0.198,-0.161,0.969,0.497,0.084,2.203,9
0.187,-0.182,0.974,-0.306,-2.218,3.930,9
0.185,-0.121,0.967,0.881,1.810,1.063,9
0.195,-0.183,0.922,-1.354,-1.283,-0.146,9
0.199,-0.137,0.988,0.113,0.192,0.718,9
0.204,-0.189,0.903,-0.027,-1.427,0.822,9
0.198,-0.161,0.965,-0.202,-1.679,3.757,9
0.190,-0.117,0.969,1.929,-2.074,3.377,9
0.189,-0.101,0.980,0.217,-1.031,1.340,9
0.179,-0.108,0.978,-2.786,-1.427,-1.078,9
0.171,-0.132,0.999,-1.808,-1.175,-1.182,9
0.174,-0.117,0.958,0.706,-9.196,-3.254,9
0.178,-0.146,1.017,0.986,-0.240,-2.874,9
0.178,-0.189,0.974,-0.237,-0.923,-1.251,9
0.188,-0.075,0.991,3.709,3.069,-0.077,9
0.189,-0.142,0.971,0.776,3.357,-6.743,9
0.186,-0.164,0.969,1.475,3.968,-4.670,9
0.190,-0.230,0.978,-1.529,2.098,-2.702,9
0.181,-0.165,0.961,-1.459,4.148,2.687,9
0.180,-0.167,0.968,-1.144,3.824,1.720,9
0.197,-0.192,0.926,-3.310,3.069,0.822,9
0.196,-0.163,0.972,-1.633,3.536,7.591,9
0.194,-0.142,0.935,-1.214,1.414,3.136,9
0.196,-0.104,0.911,-0.481,2.421,4.137,9
0.201,-0.108,0.936,-2.402,0.263,-2.184,9
0.206,-0.202,0.941,-3.344,-3.801,-2.702,9
0.202,-0.168,0.970,-3.205,-1.535,3.619,9
0.193,-0.133,0.995,-5.090,-2.362,1.996,9
0.192,-0.121,0.997,-5.370,0.731,-0.664,9
0.192,-0.136,0.956,-2.925,0.192,-0.871,9
0.193,-0.157,0.981,-0.830,-0.420,0.338,9
0.192,-0.165,0.942,-1.668,0.263,0.994,9
0.200,-0.137,0.965,-2.646,-2.146,3.930,9
0.197,-0.110,0.935,-1.913,-1.463,1.443,9
0.191,-0.125,0.953,-1.389,-2.290,2.825,9
0.184,-0.096,0.994,-1.110,-3.045,1.201,9
0.179,-0.103,0.982,1.090,-0.384,-1.320,9
0.174,-0.141,0.965,0.741,0.551,-1.873,9
0.177,-0.150,0.988,-1.040,-0.959,-0.698,9
0.178,-0.147,0.951,-0.970,0.407,0.891,9
0.184,-0.119,0.969,0.217,0.120,0.338,9
0.190,-0.115,0.971,0.916,-0.780,-0.456,9
0.196,-0.139,0.963,0.113,-1.679,-1.320,9
0.193,-0.156,0.993,-0.795,0.084,-0.111,9
0.191,-0.139,0.985,-0.481,-0.564,1.789,9
0.186,-0.451,1.018,-0.481,-9.519,-32.786,10
0.211,-0.691,0.955,8.598,-11.857,-17.519,10
0.245,-0.690,0.902,23.439,-13.296,13.981,10
0.283,-0.677,0.921,24.871,-26.172,35.327,10
0.305,-0.612,0.939,2.103,-29.804,44.308,10
0.312,-0.736,1.005,-36.554,-15.993,60.783,10
0.294,-0.929,0.713,-59.741,-25.956,80.920,10
0.211,-1.015,0.720,-62.360,-39.551,136.220,10
0.066,-0.963,0.815,-55.480,-49.226,193.073,10
-0.115,-1.296,0.796,-72.731,-37.681,234.798,10
-0.355,-1.182,0.802,-139.324,-43.975,319.490,10
-0.602,-0.399,0.459,-157.273,-10.526,358.728,10
-0.724,-0.081,0.795,-122.737,-76.273,368.710,10
-0.731,-0.398,0.446,-111.737,-137.308,345.188,10
-0.691,0.412,0.851,-138.381,-79.474,399.900,10
-0.578,0.778,0.789,-148.403,-66.886,320.423,10
-0.741,0.010,1.033,-136.251,-35.307,285.917,10
-0.905,-0.553,-0.188,-83.032,-52.751,295.381,10
-1.162,-0.963,0.957,-125.600,-93.285,431.297,10
-1.225,0.647,0.761,-147.076,1.882,479.067,10
-1.134,1.527,0.974,-121.165,40.905,389.953,10
-1.011,2.228,0.886,-48.426,28.677,282.463,10
-0.840,1.534,0.728,-11.062,-47.140,122.438,10
-0.763,0.896,0.826,19.982,-69.691,69.280,10
-0.733,0.738,1.107,-10.363,-20.525,40.197,10
-0.720,0.590,0.871,-9.455,-20.525,-6.052,10
-0.725,0.282,0.950,25.290,13.103,-2.840,10
-0.689,0.061,1.132,24.417,9.183,16.365,10
-0.614,0.291,0.788,19.284,4.975,16.019,10
-0.521,0.506,1.113,23.893,6.989,12.082,10
-0.466,0.471,0.900,11.671,15.190,-26.120,10
-0.462,0.442,0.969,12.090,10.981,-39.832,10
-0.516,0.084,0.911,4.373,-0.420,-70.711,10
-0.490,-0.149,1.471,10.833,1.271,-27.536,10
-0.421,0.279,1.210,17.922,43.639,-20.455,10
-0.304,0.566,1.123,15.059,61.011,-34.030,10
-0.402,0.578,0.791,-5.510,69.607,-86.151,10
-0.438,-0.444,0.791,-17.033,9.039,-91.505,10
-0.346,0.183,1.144,6.503,30.763,-25.809,10
-0.304,0.400,1.103,13.697,51.336,-43.908,10
-0.260,0.676,0.844,14.814,52.523,-64.460,10
-0.307,0.703,0.796,-1.913,49.358,-111.642,10
-0.371,-0.257,0.695,-9.944,16.844,-129.844,10
-0.309,0.004,0.984,6.084,0.479,-64.909,10
-0.286,0.519,1.308,15.478,35.762,-62.560,10
-0.263,0.957,1.245,37.582,72.951,-95.581,10
-0.304,0.831,0.397,49.699,110.284,-166.285,10
-0.241,-1.043,0.886,-8.932,-1.751,-169.877,10
-0.119,0.156,0.836,12.439,55.364,-48.433,10
-0.062,0.217,1.120,12.300,46.228,-80.866,10
-0.049,0.698,0.942,17.503,104.746,-71.886,10
-0.081,0.182,0.262,18.236,24.828,-144.144,10
-0.051,-0.108,1.069,22.322,-14.159,-102.523,10
-0.040,0.033,1.244,2.662,23.857,-74.062,10
0.025,0.477,1.066,21.484,57.666,-72.335,10
0.028,0.233,0.500,21.030,46.948,-104.043,10
0.040,0.319,0.918,31.855,6.450,-97.757,10
0.034,0.114,1.021,31.681,-2.938,-117.963,10
0.024,-0.062,1.132,11.706,34.755,-98.551,10
0.036,0.158,0.904,10.938,22.203,-93.370,10
0.059,0.079,0.887,28.433,16.592,-91.090,10
0.110,0.215,1.015,30.947,16.448,-90.365,10
0.122,0.142,0.772,18.166,26.591,-100.658,10
0.138,0.249,0.861,-3.903,4.651,-105.943,10
0.076,0.226,0.991,-23.214,11.485,-128.428,10
0.084,0.088,0.806,5.421,-15.094,-126.632,10
0.106,0.170,0.949,11.706,-12.217,-127.496,10
0.085,0.001,0.634,6.887,-37.501,-143.522,10
0.099,0.021,1.006,10.449,-67.929,-126.667,10
0.155,-0.023,1.224,4.233,-44.407,-130.294,10
0.108,-0.238,1.143,2.068,38.891,-105.494,10
0.001,-0.096,0.711,30.738,-8.189,-84.804,10
0.113,-0.038,1.045,49.001,-16.856,-83.906,10
0.185,-0.311,0.965,11.916,-9.663,-78.138,10
0.147,-0.116,0.961,-17.208,4.040,-59.762,10
0.148,-0.041,1.008,-11.655,-4.808,-66.256,10
0.126,-0.121,1.009,-0.481,8.068,-54.547,10
0.082,-0.303,0.810,11.182,0.623,-45.773,10
0.164,-0.120,1.035,25.919,-22.791,-13.582,10
0.179,-0.062,0.945,24.173,-7.325,-14.894,10
0.229,0.019,1.028,13.801,-5.131,-14.100,10
0.292,0.067,0.977,9.646,-5.851,-17.485,10
0.102,-0.168,1.087,1.963,-7.613,-22.528,10
0.080,-0.018,1.135,-12.109,-3.585,-9.472,10
0.084,0.003,1.067,-15.532,-4.088,-19.143,10
0.204,-0.232,0.918,-12.598,8.931,-20.766,10
0.173,-0.199,0.870,-20.979,2.421,-5.499,10
0.114,0.081,1.035,-4.252,2.421,4.068,10
0.111,0.059,0.983,8.249,3.752,-1.734,10
0.104,0.084,1.037,4.897,3.572,0.718,10
0.097,0.006,0.919,0.148,5.982,-5.845,10
0.109,-0.003,0.977,-5.265,-1.966,0.614,10
0.114,0.008,0.970,-11.725,-0.636,-0.318,10
0.123,0.138,0.967,2.732,-0.636,7.660,10
0.131,0.123,0.961,6.573,-0.024,6.175,10
0.114,0.174,1.027,5.560,-0.636,0.580,10
0.121,0.154,0.963,3.290,2.134,-12.995,10
0.127,-0.043,0.970,-0.341,-4.520,-15.792,10
0.134,-0.080,0.964,3.954,-1.103,-5.223,10
0.130,-0.061,0.983,12.859,-1.031,3.136,10
0.124,0.039,0.949,11.043,-2.794,5.243,10
0.108,0.041,1.036,-11.516,-6.822,-7.641,10
0.096,-0.044,1.029,-13.332,-2.542,-8.124,10
0.116,-0.025,1.022,3.116,2.925,-1.424,10
0.120,-0.011,0.923,5.979,-0.672,3.896,10
0.118,0.046,1.001,0.602,-1.211,3.999,10
0.114,0.011,0.978,-5.510,-1.859,-0.940,10
0.108,0.067,1.003,-6.452,-0.636,-0.456,10
0.114,0.056,1.045,4.548,3.932,-0.664,10
0.118,-0.001,0.968,9.506,12.348,-0.836,10
0.114,-0.041,0.918,12.265,1.307,7.108,10
0.096,0.137,1.071,5.525,3.896,11.011,10
0.081,0.112,1.013,12.789,7.888,4.241,10
0.099,0.128,1.039,16.246,7.205,-2.529,10
0.118,-0.021,0.950,19.563,5.766,-5.154,10
0.120,0.004,0.990,15.198,4.076,1.754,10
0.124,-0.010,0.992,6.782,0.192,-2.149,10
0.124,0.061,0.967,5.909,4.651,-0.387,10
0.121,0.033,1.016,6.887,5.047,-6.259,10
0.123,0.006,0.966,8.563,6.414,-10.646,10
0.137,-0.131,0.973,6.817,3.680,-5.707,10
0.140,-0.043,0.954,6.747,1.846,1.443,10
0.142,-0.013,0.961,4.617,2.350,-1.216,10
0.140,-0.014,0.970,0.532,1.738,-2.702,10
0.138,-0.040,0.999,2.487,1.342,-4.429,10
0.136,-0.093,0.975,4.024,-1.211,-0.595,10
0.132,-0.002,0.991,7.516,2.817,3.827,10
0.127,-0.035,0.967,7.795,-2.398,2.894,10
0.125,0.034,1.002,1.230,0.012,-0.111,10
0.128,-0.051,1.003,-2.821,-0.024,-2.253,10
0.131,-0.066,0.973,-0.202,0.084,0.027,10
0.137,-0.022,0.986,3.116,-0.744,5.070,10
0.127,-0.028,0.988,1.405,-1.247,2.618,10
0.130,0.016,0.981,-1.144,-0.240,2.756,10
0.139,0.015,0.984,-1.389,1.774,-0.526,10
0.144,-0.025,0.982,0.846,0.731,-0.318,10
0.148,-0.012,0.948,9.611,2.242,3.827,10
0.144,-0.030,0.981,18.062,0.479,7.799,10
0.144,0.023,0.930,25.535,1.199,8.869,10
0.143,0.053,0.931,18.131,-0.492,5.795,10
0.115,0.032,0.968,-3.484,-5.563,-7.365,10
0.112,-0.078,0.988,-11.621,-4.916,-10.749,10
0.110,-0.090,1.048,-0.027,-2.650,-1.044,10
0.121,-0.123,0.966,6.643,-5.815,1.063,10
0.113,-0.001,1.014,-5.894,-5.347,2.963,10
0.116,-0.009,0.981,-31.246,-6.570,-12.787,10
0.101,-0.040,1.095,-40.744,-4.196,-14.618,10
0.123,-0.167,1.013,-11.341,1.846,-7.641,10
0.133,-0.038,0.953,9.855,-0.923,12.047,10
0.121,0.053,1.007,0.741,0.659,6.141,10
0.121,0.020,0.963,-1.948,-0.240,-0.456,10
0.114,0.011,1.003,-4.706,-2.002,-0.284,10
0.112,0.005,1.011,-0.830,3.321,-0.042,10
0.112,0.017,0.975,12.754,2.493,5.243,10
0.112,-0.014,0.970,27.665,1.738,8.628,10
0.110,-0.012,0.994,26.512,1.702,9.906,10
0.112,0.054,0.971,2.592,1.630,-0.491,10
0.102,-0.027,1.044,-11.830,3.500,-4.290,10
0.103,-0.034,1.029,-5.894,1.666,-3.669,10
0.116,-0.044,0.963,6.189,5.551,1.789,10
0.107,-0.011,1.017,5.840,1.378,4.414,10
0.117,-0.004,0.979,2.522,4.975,-1.424,10
0.127,-0.025,0.971,-0.481,3.213,-0.249,10
0.138,-0.047,0.955,1.649,1.342,-0.698,10
0.141,-0.025,0.943,4.687,1.630,2.825,10
0.149,-0.006,0.970,4.268,0.839,0.891,10
0.148,-0.013,0.988,1.335,0.587,-0.249,10
0.137,0.010,1.010,1.090,0.551,-0.560,10
0.127,-0.051,0.979,3.151,0.263,-2.563,10
0.131,-0.060,1.010,11.287,1.702,4.103,10
0.131,-0.064,0.979,15.338,0.515,3.827,10
0.130,-0.041,1.003,11.182,3.069,4.276,10
0.112,-0.064,1.003,0.113,0.120,-0.007,10
0.124,-0.032,0.998,7.027,5.119,2.307,10
0.125,-0.071,0.968,10.693,3.105,3.792,10
0.137,-0.062,0.984,28.433,6.630,9.560,10
0.149,-0.051,0.832,24.731,1.666,8.559,10
0.127,0.008,0.977,-28.871,-11.354,-6.605,10
0.125,-0.054,0.968,-46.331,-6.858,-17.347,10
0.130,-0.116,1.038,-23.668,-4.700,-4.290,10
0.134,-0.092,0.964,8.982,-0.348,6.106,10
0.123,-0.056,0.983,19.738,-4.880,12.047,10
0.127,0.039,0.948,17.678,-4.160,6.244,10
0.118,-0.010,1.023,2.767,-7.973,4.137,10
0.113,0.015,1.010,-1.389,-0.995,-3.220,10
0.095,-0.055,1.058,16.036,0.048,2.549,10
0.088,-0.109,1.016,37.268,2.457,9.042,10
0.091,-0.082,1.049,33.357,2.170,13.843,10
0.104,0.014,1.057,14.465,6.522,6.659,10
0.105,-0.048,1.031,-1.843,6.270,-3.565,10
0.106,-0.096,1.037,-3.519,7.097,-4.083,10
0.119,-0.146,1.014,0.567,6.486,-1.078,10
0.127,-0.086,0.973,1.265,9.039,4.517,10
0.138,-0.081,0.958,-0.097,8.680,3.792,10
0.143,-0.070,0.954,0.182,6.450,3.101,10
0.155,-0.063,0.931,3.081,8.428,2.376,10
0.157,-0.080,0.925,9.471,3.249,5.070,10
0.163,-0.062,0.930,8.808,-0.887,5.588,10
0.149,-0.022,0.969,1.160,-0.851,3.205,10
0.146,-0.003,0.999,-3.310,-1.643,-1.009,10
0.251,-0.458,0.970,-9.176,-19.698,-33.408,11
0.302,-0.457,0.936,-10.468,0.623,-18.210,11
0.343,-0.546,0.915,-2.856,-5.779,-0.940,11
0.360,-0.686,0.988,8.808,-6.534,17.435,11
0.386,-0.775,0.956,27.735,-16.137,57.744,11
0.335,-0.800,0.927,7.516,-17.720,86.758,11
0.232,-0.712,1.006,-22.097,-13.440,104.719,11
0.140,-1.092,0.910,-72.102,-31.998,142.057,11
0.011,-0.770,1.049,-80.099,-12.864,215.731,11
-0.176,-0.917,0.819,-68.261,-17.432,254.382,11
-0.360,-0.938,0.902,-85.337,-34.552,345.603,11
-0.453,-0.709,0.494,-149.521,-14.231,377.069,11
-0.826,-0.366,-0.044,-152.209,-10.490,402.353,11
-1.237,-1.453,0.168,-94.416,-165.649,439.449,11
-1.564,-0.780,0.802,-124.343,-84.725,583.586,11
-1.422,1.800,0.907,-125.181,-34.732,596.297,11
-0.968,1.933,0.656,-135.552,-10.347,376.793,11
-1.000,0.678,0.043,-129.895,-76.632,249.443,11
-1.082,-0.520,0.484,-119.280,-143.818,289.648,11
-1.038,1.169,0.981,-81.775,-43.723,334.757,11
-0.978,1.155,0.820,-56.353,-4.880,228.891,11
-0.917,1.485,0.920,-46.401,-1.463,139.086,11
-0.907,1.492,0.666,-11.271,-1.679,38.332,11
-0.868,0.307,0.849,8.528,-45.809,-33.166,11
-0.747,-0.477,1.322,2.976,-40.163,12.254,11
-0.641,0.477,1.088,18.585,28.929,70.835,11
-0.565,0.902,1.270,11.427,51.300,19.646,11
-0.540,0.526,0.763,14.186,33.748,-47.846,11
-0.554,0.091,1.153,39.677,16.340,-48.606,11
-0.488,-0.028,1.020,41.563,-22.503,-43.701,11
-0.446,0.171,1.173,24.976,22.958,-15.516,11
-0.429,0.517,1.182,11.287,36.985,-36.966,11
-0.440,0.912,1.676,-7.884,75.433,-61.973,11
-0.547,0.349,0.019,8.738,31.770,-159.273,11
-0.436,-0.508,1.338,6.294,-2.074,-95.131,11
-0.351,0.236,0.761,-8.024,38.640,-47.120,11
-0.348,0.713,1.387,-15.427,51.228,-63.734,11
-0.367,1.092,1.359,-50.068,148.229,-122.246,11
-0.529,0.301,-0.173,-19.547,143.014,-211.740,11
-0.337,-0.498,0.744,22.427,-41.853,-143.557,11
-0.234,0.103,1.055,26.128,19.505,-85.149,11
-0.197,0.681,1.029,22.112,32.885,-93.508,11
-0.118,0.999,1.424,1.300,74.030,-137.305,11
-0.306,0.597,0.186,9.367,92.913,-226.039,11
-0.261,-0.512,0.500,31.401,-45.018,-191.050,11
-0.128,-0.121,1.081,52.493,-38.904,-112.056,11
-0.038,0.632,1.194,53.226,3.357,-115.510,11
-0.053,0.778,1.138,54.169,67.233,-165.525,11
-0.155,0.539,0.844,17.643,110.500,-207.940,11
-0.202,-0.535,-0.093,-33.306,-7.721,-254.777,11
-0.013,-0.583,1.377,-4.776,-82.027,-109.984,11
0.076,0.800,0.909,12.998,-14.267,-80.728,11
0.027,0.599,1.459,-7.884,-17.252,-171.535,11
-0.007,0.367,1.028,28.433,57.414,-171.984,11
-0.003,-0.023,0.271,45.020,5.730,-213.294,11
0.067,-0.851,1.136,25.220,-62.857,-141.277,11
0.138,0.085,1.144,30.808,23.606,-51.300,11
0.147,0.517,0.999,22.287,18.283,-84.735,11
0.155,0.418,0.898,14.849,35.367,-119.275,11
0.112,-0.062,0.561,-6.802,-4.952,-155.335,11
0.106,-0.111,1.154,15.233,-33.257,-108.395,11
0.127,0.118,1.073,39.049,-4.700,-109.051,11
0.169,0.009,1.051,73.445,14.974,-94.752,11
0.201,0.039,0.806,52.633,37.381,-94.821,11
0.161,-0.090,0.602,19.179,7.565,-94.648,11
0.197,-0.027,0.898,-9.141,-20.057,-81.592,11
0.187,0.058,0.885,-16.754,-26.639,-91.436,11
0.173,-0.051,1.087,-1.319,-25.345,-90.261,11
0.438,-0.271,0.725,22.043,-21.712,-85.737,11
0.348,-0.344,1.021,-10.294,-65.879,-51.749,11
0.156,-0.363,1.209,-61.556,-11.246,-11.820,11
0.083,0.202,1.152,-49.544,-19.014,14.465,11
0.166,0.154,1.211,-12.005,-7.901,-28.780,11
0.176,-0.142,0.969,7.795,13.607,-37.346,11
0.178,-0.175,1.023,13.732,4.148,-18.210,11
0.195,-0.058,0.933,22.217,22.131,-16.241,11
0.164,0.080,0.921,30.249,12.528,-6.846,11
0.210,0.093,0.924,35.661,19.721,-18.210,11
0.225,-0.023,0.863,33.392,11.737,-17.416,11
0.199,-0.113,0.890,14.814,5.730,-13.064,11
0.184,-0.058,0.962,8.843,-6.139,0.338,11
0.180,0.032,0.942,4.827,0.084,-4.360,11
0.175,0.047,0.999,6.049,-1.751,-3.012,11
0.174,0.084,0.992,8.214,9.795,-12.442,11
0.180,-0.133,0.887,5.630,1.522,-16.380,11
0.180,-0.105,0.948,4.094,-2.973,-2.667,11
0.159,-0.006,1.084,-2.122,-5.239,-1.251,11
0.159,0.111,0.994,10.693,6.414,-3.323,11
0.156,-0.054,1.023,9.227,9.615,-15.965,11
0.184,-0.063,1.003,7.097,9.723,-2.080,11
0.188,-0.029,0.950,4.513,13.535,-1.769,11
0.182,-0.077,0.962,2.452,8.140,0.891,11
0.187,0.013,0.983,2.976,4.436,1.996,11
0.189,0.066,0.913,1.021,4.148,-1.734,11
0.189,0.031,0.988,0.916,0.623,-10.300,11
0.190,0.012,0.935,3.255,2.062,-5.810,11
0.191,-0.050,0.866,0.986,-3.117,-8.228,11
0.178,-0.030,0.989,-0.411,-12.972,1.650,11
0.161,0.018,1.006,-2.576,-7.253,-1.216,11
0.150,0.102,1.026,-0.167,-3.369,0.407,11
0.154,-0.005,0.982,-2.157,-3.873,-9.955,11
0.164,-0.027,1.036,-0.097,-0.348,-2.460,11
0.178,-0.053,0.994,-2.402,-1.930,-1.804,11
0.181,-0.007,0.970,-1.843,-1.319,1.029,11
0.185,0.004,0.949,-0.621,-1.894,-1.942,11
0.191,-0.018,0.969,0.567,-6.678,0.787,11
0.180,-0.005,0.976,3.255,-2.578,-1.355,11
0.176,0.013,0.983,4.198,-2.254,0.960,11
0.172,-0.015,0.929,1.055,-2.650,-3.185,11
0.172,-0.048,0.971,1.300,-8.440,1.271,11
0.163,0.001,1.004,1.370,-6.318,3.308,11
0.151,0.026,0.998,0.846,-4.700,1.789,11
0.150,0.066,1.024,2.417,-0.672,-2.460,11
0.150,-0.098,0.962,1.230,-5.707,-5.810,11
0.149,0.010,1.021,3.605,-3.873,5.105,11
0.143,-0.011,0.987,3.954,-4.088,1.961,11
0.141,0.073,1.030,3.640,-0.887,-0.491,11
0.135,-0.012,1.003,1.719,1.702,-5.879,11
0.140,-0.037,0.973,4.373,3.644,-4.498,11
0.146,-0.105,0.986,2.871,-3.765,1.996,11
0.162,0.011,0.961,1.963,3.033,4.137,11
0.159,-0.012,0.996,0.357,-0.600,1.132,11
0.155,0.010,0.935,2.068,0.335,0.856,11
0.152,0.056,1.011,4.094,-1.463,-2.460,11
0.163,-0.024,0.963,3.081,0.371,-5.327,11
0.170,-0.071,0.969,1.859,-0.420,-2.943,11
0.176,-0.044,0.912,1.789,-0.024,1.098,11
0.166,-0.051,1.002,-1.354,-5.527,4.897,11
0.154,0.023,0.981,-0.621,-3.261,3.965,11
0.151,0.011,1.002,3.011,-1.966,-0.249,11
0.146,-0.027,1.008,3.989,-1.535,-1.596,11
0.143,-0.060,0.970,2.278,-1.283,-2.253,11
0.142,0.018,0.997,2.941,-2.254,1.167,11
0.139,-0.022,0.990,2.802,-1.535,3.965,11
0.138,-0.002,0.995,0.776,0.515,1.478,11
0.131,-0.003,1.016,-1.319,0.299,-0.318,11
0.129,0.010,0.966,0.741,2.529,-1.596,11
0.128,-0.034,1.017,1.195,-0.276,-1.044,11
0.145,-0.034,0.979,2.278,-0.024,-0.906,11
0.155,-0.042,0.939,1.894,-0.492,1.409,11
0.163,-0.014,0.952,0.322,-0.312,0.131,11
0.166,-0.021,0.972,0.497,-2.110,1.961,11
0.163,-0.034,0.969,-1.110,-2.002,0.303,11
0.162,0.009,0.979,0.008,-1.859,1.892,11
0.150,-0.045,0.992,-0.551,-2.758,-1.424,11
0.139,-0.031,0.996,0.916,-2.470,1.201,11
0.129,-0.036,1.015,-0.725,-1.715,0.891,11
0.135,0.008,0.988,-0.097,0.911,1.512,11
0.136,-0.049,0.986,-2.611,-0.851,0.718,11
0.135,0.034,1.003,-0.516,1.666,2.410,11
0.134,-0.019,0.977,0.671,-1.499,-1.355,11
0.136,-0.006,0.980,0.846,0.012,-0.767,11
0.139,-0.038,0.970,0.322,-1.823,-0.767,11
0.131,-0.013,0.969,0.602,-0.851,0.234,11
0.132,-0.002,0.989,0.148,-1.715,0.683,11
0.135,0.021,1.003,-1.075,0.084,-3.082,11
0.138,-0.076,0.985,-0.097,-1.067,-3.012,11
0.146,-0.050,0.977,1.055,-1.894,0.822,11
0.152,-0.003,0.963,0.532,-0.024,1.823,11
0.146,0.020,1.004,-0.306,-2.002,0.718,11
0.149,0.007,0.970,1.440,0.371,-3.807,11
0.143,-0.058,0.977,0.881,-1.643,-1.838,11
0.144,-0.068,0.978,0.602,-1.751,-0.664,11
0.136,-0.071,0.973,-1.075,-0.816,2.169,11
0.131,0.011,1.009,-2.332,-0.887,3.205,11
0.129,-0.005,0.987,-1.424,-0.024,-0.767,11
0.126,0.002,1.005,0.008,-1.139,1.305,11
0.128,-0.011,0.979,0.392,0.299,-1.320,11
0.132,-0.020,0.980,-1.075,-0.851,0.269,11
0.130,-0.010,0.974,0.636,-1.715,-1.182,11
0.129,-0.028,0.999,1.929,-0.204,0.787,11
0.125,0.001,1.008,-0.027,-1.535,0.096,11
0.119,-0.016,1.019,0.916,1.091,-0.526,11
0.128,-0.028,0.981,-0.097,0.803,-0.077,11
0.133,-0.027,0.983,6.398,-0.420,1.443,11
0.140,-0.005,0.971,0.182,0.875,0.649,11
0.140,0.002,0.986,1.090,-1.823,0.511,11
0.141,0.028,0.960,2.802,0.983,-2.667,11
0.137,-0.064,0.996,1.475,-2.506,-1.976,11
0.135,-0.028,0.963,2.487,0.443,-0.215,11
0.134,-0.024,1.000,0.776,-0.528,0.200,11
0.127,-0.034,0.988,-1.214,-1.067,0.096,11
0.129,0.010,0.998,0.252,1.774,0.234,11
0.134,-0.024,0.971,1.021,-1.715,-0.284,11
0.137,-0.017,0.965,0.392,-0.744,-0.456,11
0.138,-0.013,1.002,0.043,-0.672,0.683,11
0.135,-0.017,0.971,0.357,-0.600,0.165,11
0.132,-0.010,0.954,-0.097,-0.384,0.131,11
0.127,-0.038,0.983,-1.878,-3.369,0.476,11
0.126,-0.040,0.968,-1.773,-2.506,3.412,11
0.117,-0.013,1.029,1.195,-4.520,5.657,11
0.116,0.005,1.010,1.998,-0.636,2.376,11
0.121,0.041,1.001,1.370,2.386,-1.285,11
0.125,-0.028,0.938,0.008,-0.204,-3.980,11
0.123,-0.016,1.008,3.325,-0.995,-1.458,11
0.124,-0.021,0.969,2.592,0.731,-1.216,11
0.117,0.025,1.003,2.836,0.299,-1.216,11
0.125,-0.029,0.986,1.824,1.199,-6.466,11
0.127,-0.042,0.992,2.138,-0.564,-1.285,11
0.123,-0.042,1.041,1.859,1.235,0.234,11
0.255,-0.319,1.048,15.303,15.549,5.346,12
0.266,-0.399,1.025,6.119,17.707,19.301,12
0.330,-0.353,0.896,-9.700,15.082,30.250,12
0.384,-0.293,0.926,-18.535,2.745,36.640,12
0.323,-0.348,1.057,-3.659,6.486,49.731,12
0.378,-0.356,0.832,12.509,23.462,60.922,12
0.374,-0.718,0.846,-13.436,1.774,74.047,12
0.360,-0.664,0.697,-52.757,14.686,110.314,12
0.264,-0.827,0.685,-87.118,4.328,148.412,12
0.121,-0.591,0.697,-91.378,18.642,204.471,12
-0.082,-0.599,0.605,-51.709,-6.930,251.377,12
-0.221,-0.270,0.651,-34.633,-2.650,281.876,12
-0.364,-0.548,0.623,-89.667,-25.237,298.697,12
-0.496,-0.302,0.572,-130.105,-31.279,330.336,12
-0.875,-0.775,-0.281,-73.639,-128.424,336.450,12
-1.183,-1.359,1.538,-94.347,-138.926,459.379,12
-1.272,0.408,0.882,-99.654,-65.735,544.451,12
-1.009,1.452,1.200,-106.604,36.194,453.680,12
-0.816,1.355,0.509,-110.200,54.788,319.767,12
-0.826,0.614,0.498,-78.702,-86.487,251.619,12
-0.820,0.400,0.924,-42.106,-108.067,247.232,12
-0.835,0.981,1.302,-40.465,-43.292,222.052,12
-0.777,1.221,1.599,-36.030,-7.901,164.543,12
-0.724,1.243,0.975,-5.684,40.114,83.131,12
-0.642,0.520,0.685,-1.808,-15.957,25.414,12
-0.507,-0.147,0.751,1.090,-61.635,49.489,12
-0.503,0.364,1.006,-17.068,-21.388,73.253,12
-0.588,0.825,1.230,-14.903,-13.044,49.282,12
-0.578,1.433,1.596,-15.706,57.702,-1.527,12
-0.630,0.997,0.301,10.693,73.383,-103.387,12
-0.506,0.100,0.864,41.423,-36.818,-119.033,12
-0.441,0.026,0.949,26.617,5.551,-84.286,12
-0.380,0.526,1.105,20.052,17.347,-66.394,12
-0.476,0.939,0.748,25.814,98.128,-109.431,12
-0.622,-0.214,0.420,47.674,-30.020,-156.993,12
-0.418,-0.485,0.983,66.636,-54.369,-46.568,12
-0.387,0.231,1.123,21.204,-3.765,-29.988,12
-0.428,0.577,1.065,2.208,14.075,-28.883,12
-0.459,1.143,1.605,-4.078,48.135,-91.643,12
-0.591,1.116,1.174,12.998,139.129,-164.661,12
-0.669,-0.302,0.230,28.119,5.874,-247.765,12
-0.325,-0.379,1.424,55.706,18.211,-127.599,12
-0.259,0.577,1.032,42.750,70.686,-125.838,12
-0.276,1.169,1.668,47.814,142.618,-159.204,12
-0.378,0.378,-0.373,44.112,106.256,-282.858,12
-0.218,-0.873,0.636,54.239,-53.938,-220.202,12
-0.017,-0.361,0.967,47.185,-13.188,-121.520,12
-0.021,0.530,1.226,43.344,31.554,-108.637,12
0.047,1.045,1.372,46.591,89.712,-161.967,12
-0.142,0.161,-0.342,53.855,87.985,-261.512,12
-0.026,-0.875,0.862,31.436,-66.634,-182.898,12
0.106,-0.065,0.971,23.125,-8.548,-114.889,12
0.049,0.145,1.291,23.719,28.893,-117.168,12
0.002,0.592,0.845,36.290,66.693,-140.103,12
-0.034,-0.280,0.625,25.604,-5.491,-176.370,12
0.095,-0.170,0.984,22.706,-17.612,-140.587,12
0.113,-0.002,1.130,15.547,8.752,-125.562,12
0.112,0.253,1.075,17.328,45.509,-131.226,12
0.100,0.223,0.989,7.306,56.515,-170.257,12
0.103,-0.060,0.720,-2.157,57.702,-185.282,12
0.145,-0.380,0.656,-7.500,15.190,-164.868,12
0.162,-0.306,1.064,-0.271,-15.957,-122.591,12
0.196,0.160,0.983,20.541,12.528,-114.440,12
0.201,-0.099,1.000,23.055,17.204,-126.805,12
0.227,-0.190,0.871,26.652,30.116,-105.563,12
0.247,-0.321,0.780,14.849,7.385,-104.526,12
0.269,-0.414,0.977,8.144,-17.864,-80.314,12
0.281,-0.175,1.038,7.167,-1.607,-56.205,12
0.271,-0.162,1.016,16.944,0.120,-55.237,12
0.261,-0.110,0.898,22.462,8.140,-57.379,12
0.273,-0.283,1.002,9.087,-5.131,-57.621,12
0.275,-0.476,0.831,5.316,-4.017,-37.622,12
0.286,-0.361,1.175,2.068,-23.762,-5.465,12
0.259,-0.002,0.979,14.046,4.508,-1.942,12
0.248,-0.110,0.996,5.665,3.141,-17.968,12
0.252,-0.226,0.923,-1.633,-2.866,-9.541,12
0.256,-0.147,0.928,-4.497,-4.232,-2.218,12
0.260,-0.127,0.982,-5.056,-3.153,-0.042,12
0.206,-0.101,0.949,-9.770,-3.945,2.549,12
0.233,-0.046,0.940,-11.202,-6.067,-0.595,12
0.226,-0.147,1.005,-12.424,-14.303,3.965,12
0.229,0.011,0.980,-4.287,-4.304,9.077,12
0.210,-0.062,0.981,-0.167,-8.764,5.588,12
0.200,0.053,0.984,1.021,-4.017,3.827,12
0.193,-0.039,0.951,-1.948,-7.469,-1.596,12
0.191,-0.053,0.993,-6.662,-6.750,2.928,12
0.200,-0.041,1.030,-5.090,-12.181,0.718,12
0.195,-0.059,0.963,-1.214,1.127,3.274,12
0.174,-0.054,1.017,3.919,-0.851,5.174,12
0.185,0.008,0.951,8.459,-1.427,4.448,12
0.172,-0.019,1.001,5.665,2.062,2.272,12
0.172,-0.101,0.938,3.884,-1.067,-2.356,12
0.173,-0.104,1.032,5.001,1.271,5.277,12
0.170,-0.068,0.985,5.700,0.371,3.792,12
0.171,-0.042,1.032,5.595,6.665,4.206,12
0.184,-0.029,0.948,5.351,7.816,1.927,12
0.196,-0.072,0.964,1.824,1.450,-1.700,12
0.195,-0.045,0.974,3.954,7.241,4.448,12
0.206,-0.081,0.942,4.268,2.062,1.132,12
0.207,-0.055,0.965,4.408,4.292,3.274,12
0.213,-0.073,0.888,4.548,3.249,0.062,12
0.210,-0.077,0.980,1.160,-2.398,3.688,12
0.211,-0.048,0.956,2.627,1.810,-1.113,12
0.218,-0.157,0.912,-0.341,-1.499,-1.285,12
0.212,-0.080,0.999,-2.087,-1.751,6.348,12
0.212,-0.100,0.970,-1.738,-2.758,1.167,12
0.200,-0.043,0.994,-2.157,0.659,4.828,12
0.204,-0.019,0.971,-2.402,1.019,-1.665,12
0.203,-0.114,0.973,-1.564,-3.657,-0.802,12
0.201,-0.014,0.976,1.929,-1.427,2.134,12
0.194,-0.082,0.906,1.090,-0.636,-1.182,12
0.196,-0.073,1.001,-1.494,-2.506,3.619,12
0.196,-0.029,0.959,-0.132,1.307,1.547,12
0.191,-0.030,0.969,0.148,-0.600,0.372,12
0.184,-0.037,0.992,-0.237,1.738,-1.942,12
0.190,-0.082,0.965,1.125,2.314,-4.636,12
0.187,-0.123,0.969,-0.062,1.594,-0.698,12
0.190,-0.108,0.964,0.602,-0.060,2.618,12
0.193,-0.084,0.972,-0.586,-1.930,4.794,12
0.205,-0.040,0.965,1.475,-0.204,6.141,12
0.206,-0.053,0.960,-0.202,-1.499,1.098,12
0.205,-0.053,0.907,1.125,0.012,1.892,12
0.211,-0.049,0.953,1.405,-3.405,0.234,12
0.197,-0.072,0.982,0.217,-1.535,0.269,12
0.199,-0.051,0.972,0.916,-0.780,2.134,12
0.181,-0.064,1.030,-1.459,-4.556,-0.733,12
0.177,-0.075,0.982,1.090,2.170,0.062,12
0.197,-0.138,0.963,-2.297,-2.578,1.132,12
0.195,-0.039,0.991,-0.586,-0.420,6.659,12
0.190,-0.068,0.978,0.392,1.522,3.585,12
0.197,-0.014,0.960,0.427,3.177,3.861,12
0.200,-0.037,0.919,1.090,1.271,-1.320,12
0.138,-0.072,0.955,3.779,-2.218,-1.700,12
0.187,-0.130,0.973,1.614,-6.246,-0.318,12
0.183,-0.054,1.014,1.090,-4.340,3.481,12
0.172,-0.067,0.996,-0.411,-3.045,1.858,12
0.174,-0.048,0.985,0.252,-1.787,1.616,12
0.179,-0.073,0.985,1.929,-6.534,1.581,12
0.187,-0.022,0.989,3.779,0.839,-0.042,12
0.193,-0.060,0.975,3.744,0.875,-0.215,12
0.200,-0.050,0.932,4.617,2.997,-0.353,12
0.196,-0.053,0.972,2.173,0.012,-1.355,12
0.184,-0.064,0.964,2.906,3.069,-1.907,12
0.177,-0.098,1.004,1.195,-0.923,-1.942,12
0.176,-0.095,0.971,1.894,3.177,-1.044,12
0.182,-0.109,0.974,0.846,1.630,1.996,12
0.188,-0.025,1.008,0.043,0.803,2.618,12
0.194,-0.057,0.968,0.427,4.220,-1.285,12
0.205,-0.057,0.953,0.671,4.364,-1.942,12
0.198,-0.092,0.939,1.230,0.084,-0.456,12
0.193,-0.091,0.970,0.986,-0.636,0.683,12
0.184,-0.077,0.994,1.649,0.228,2.998,12
0.173,-0.048,0.981,1.405,2.026,-0.111,12
0.164,-0.063,1.010,1.230,3.213,-0.975,12
0.180,-0.096,0.963,0.113,3.069,-2.080,12
0.191,-0.085,0.981,0.951,3.860,1.098,12
0.201,-0.072,0.968,0.113,3.321,0.303,12
0.207,-0.033,0.951,0.392,3.896,1.132,12
0.210,-0.050,0.932,-0.132,1.666,-1.562,12
0.215,-0.031,0.926,1.195,0.515,-0.698,12
0.207,-0.049,0.968,2.452,-1.427,-3.116,12
0.198,-0.070,0.952,4.059,-2.002,-7.848,12
0.329,-0.045,1.086,3.884,0.048,-8.194,12
0.187,-0.165,0.915,4.617,1.918,-4.049,12
0.194,-0.087,1.026,1.929,1.307,-1.493,12
0.198,-0.098,0.974,-2.541,1.163,-0.146,12
0.192,-0.097,0.969,-3.868,-0.132,1.201,12
0.199,-0.082,0.968,-1.843,1.307,3.032,12
0.183,-0.068,0.988,-1.249,-1.175,2.998,12
0.192,-0.040,0.973,-0.551,1.271,2.030,12
0.176,-0.049,0.965,-1.144,2.961,-0.560,12
0.179,-0.070,0.978,0.811,1.846,-2.633,12
0.179,-0.081,0.990,-0.586,-1.319,2.721,12
0.184,-0.056,0.960,-1.424,3.069,-1.631,12
0.241,-0.054,0.889,-0.656,2.925,1.650,12
0.282,-0.002,0.930,1.160,-5.095,-1.804,12
0.137,-0.135,1.061,1.998,-2.290,-5.361,12
0.198,-0.080,0.962,1.160,0.084,-0.456,12
0.220,-0.112,0.971,-0.132,-4.880,-3.289,12
0.169,-0.139,1.041,1.370,0.120,-1.216,12
0.201,-0.072,0.967,-1.738,2.242,4.586,12
0.206,-0.073,0.963,-0.900,0.515,-1.838,12
0.175,-0.120,0.995,1.230,1.307,2.825,12
0.189,-0.023,0.967,0.113,3.464,1.754,12
0.197,-0.043,0.960,0.532,0.911,-1.458,12
0.186,-0.098,0.963,-0.341,1.127,-1.285,12
0.177,-0.080,0.996,0.392,-1.930,1.581,12
0.188,-0.042,0.969,2.313,1.378,0.096,12
0.184,-0.074,1.005,-0.132,0.587,0.718,12
0.191,-0.031,0.979,0.916,3.500,-1.147,12
0.196,-0.080,0.993,0.951,4.184,-1.596,12
0.205,-0.056,0.946,0.392,4.472,-2.287,12
0.204,-0.117,0.938,0.881,1.810,-1.700,12
0.223,-0.078,0.949,1.055,0.983,1.029,12
0.225,-0.071,0.935,2.103,-1.463,0.614,12
0.200,-0.076,0.990,0.392,-2.578,-0.560,12
0.191,-0.067,0.979,0.706,-0.168,-1.320,12
0.192,-0.114,1.015,-0.621,-2.470,-1.320,12
0.179,-0.108,0.997,0.811,1.738,0.062,12
0.186,-0.123,0.996,-1.808,-0.060,2.687,12
0.353,-0.416,0.876,-3.414,-11.929,5.519,13
0.371,-0.389,1.004,2.836,-12.936,27.210,13
0.360,-0.417,0.954,-0.306,-10.562,38.194,13
0.353,-0.322,0.952,0.776,-3.909,46.484,13
0.318,-0.464,0.944,-6.103,-13.655,57.986,13
0.345,-0.560,0.881,-10.084,-19.950,72.873,13
0.341,-0.723,0.968,-13.751,-13.440,97.500,13
0.282,-0.619,0.879,-16.370,-9.771,136.910,13
0.192,-0.695,0.805,-23.528,-22.431,159.569,13
0.069,-1.218,1.102,-52.442,-29.445,207.787,13
-0.086,-0.574,0.661,-48.671,-5.383,287.955,13
-0.278,-0.536,0.854,-57.960,-21.208,308.645,13
-0.442,-0.168,0.557,-50.801,-7.146,335.137,13
-0.541,-0.259,0.741,-55.515,-71.489,327.815,13
-0.626,-0.673,0.684,-75.629,-92.853,354.342,13
-0.848,-0.205,0.839,-96.372,-71.705,416.514,13
-0.917,0.096,0.615,-75.071,-66.166,404.874,13
-0.957,-0.212,0.960,-85.756,-93.860,400.867,13
-0.831,0.926,1.108,-93.299,-15.022,398.622,13
-0.741,0.557,0.145,-79.156,-42.716,294.172,13
-0.744,-0.091,0.367,-73.534,-113.858,285.434,13
-0.924,0.466,1.169,-87.013,-93.609,334.930,13
-0.899,1.797,1.201,-63.268,-48.039,268.751,13
-0.741,1.815,1.357,-39.417,-39.012,123.060,13
-0.599,1.168,0.909,6.259,9.759,17.366,13
-0.600,-0.319,0.435,18.935,-57.319,2.583,13
-0.632,0.022,1.039,5.455,-35.307,69.557,13
-0.693,0.540,1.041,-4.671,-22.719,57.295,13
-0.684,0.936,1.460,4.268,19.613,20.889,13
-0.625,0.596,0.910,15.512,27.706,-31.681,13
-0.562,0.216,0.862,20.576,30.403,-32.959,13
-0.524,0.321,0.855,15.268,8.859,-27.087,13
-0.509,0.629,1.194,16.455,21.879,-29.298,13
-0.585,0.918,1.195,10.693,84.029,-77.343,13
-0.525,0.165,0.959,25.709,11.377,-115.579,13
-0.400,-0.311,0.802,14.046,31.878,-92.437,13
-0.313,-0.183,0.993,-12.389,25.872,-47.328,13
-0.258,0.335,1.118,-12.738,35.978,-36.206,13
-0.257,0.713,1.518,-20.909,77.483,-51.818,13
-0.328,0.743,0.345,11.182,114.780,-114.923,13
-0.281,0.084,0.850,20.960,6.845,-123.904,13
-0.213,0.126,0.537,27.316,26.519,-101.280,13
-0.168,0.061,0.991,5.176,-12.145,-88.569,13
-0.198,0.557,1.114,12.614,21.412,-84.424,13
-0.271,0.846,1.424,12.300,58.637,-118.861,13
-0.306,0.585,0.425,46.871,60.507,-173.538,13
-0.298,-0.245,0.501,59.268,-43.148,-188.839,13
-0.189,-0.127,1.079,63.179,-44.119,-115.303,13
-0.149,0.463,1.285,41.179,6.630,-117.790,13
-0.208,0.711,1.255,46.138,54.788,-148.565,13
-0.295,0.146,0.585,52.179,8.931,-212.810,13
-0.179,-0.440,0.843,59.582,-20.777,-160.205,13
-0.132,-0.212,0.951,19.179,12.456,-102.730,13
-0.005,0.258,1.145,9.576,10.406,-87.878,13
-0.083,0.533,1.257,28.293,70.757,-108.084,13
-0.082,0.099,0.530,41.912,34.575,-159.376,13
-0.053,-0.375,0.838,39.293,-9.627,-131.779,13
0.005,-0.189,1.061,25.011,15.513,-87.705,13
0.041,0.155,0.976,18.516,42.344,-70.781,13
0.065,0.437,0.988,6.782,47.415,-88.362,13
-0.013,0.516,0.824,0.392,73.994,-136.822,13
-0.016,-0.117,0.353,-10.608,2.170,-178.892,13
0.052,-0.466,0.911,9.541,-70.302,-117.479,13
0.145,-0.097,1.329,14.220,-37.753,-74.166,13
0.038,0.054,1.261,10.135,16.089,-75.858,13
0.042,0.170,1.207,11.497,39.539,-75.582,13
0.038,0.236,0.810,22.916,55.328,-106.081,13
0.105,-0.297,0.666,7.062,1.846,-115.683,13
0.117,-0.206,1.002,19.354,-25.488,-68.743,13
0.110,0.116,1.240,18.411,-0.744,-69.054,13
0.101,0.063,1.058,10.589,30.259,-84.010,13
0.098,0.278,1.073,22.252,37.920,-86.842,13
0.117,0.233,0.882,26.408,47.056,-129.775,13
0.145,-0.287,0.905,14.011,33.065,-144.524,13
0.188,-0.462,0.948,8.074,44.250,-99.207,13
0.230,-0.197,0.861,8.947,36.949,-63.803,13
0.231,-0.005,0.927,24.696,31.770,-64.632,13
0.265,-0.086,0.855,34.509,31.087,-77.309,13
0.313,-0.259,0.899,27.246,17.419,-77.585,13
0.310,-0.407,0.868,9.541,17.240,-65.496,13
0.303,-0.364,0.909,-1.878,15.657,-34.271,13
0.305,-0.118,0.919,4.059,10.010,-10.370,13
0.282,-0.038,0.979,0.916,7.097,-25.844,13
0.272,-0.105,0.999,-1.005,9.327,-38.554,13
0.259,-0.155,1.050,3.046,15.118,-39.556,13
0.267,-0.260,1.079,0.741,22.059,-32.717,13
0.269,-0.222,0.913,16.211,31.302,-14.411,13
0.317,-0.186,0.836,10.938,11.989,-10.404,13
0.281,-0.130,0.954,-0.760,4.831,-6.328,13
0.276,-0.071,0.915,-3.554,14.866,-5.638,13
0.255,-0.080,0.915,-14.694,9.687,-11.268,13
0.238,-0.073,0.899,-5.195,1.414,-8.573,13
0.240,-0.034,1.071,-1.249,3.033,-21.008,13
0.267,-0.111,0.968,-4.008,24.037,-30.023,13
0.281,-0.067,0.876,5.630,9.075,-31.508,13
0.428,0.081,1.164,-32.363,14.794,-59.831,13
0.251,-0.237,0.961,-38.439,39.934,-58.104,13
0.230,-0.214,0.884,-4.567,22.419,-5.327,13
0.313,-0.035,0.867,9.262,14.866,9.975,13
0.324,-0.006,0.977,-15.287,20.189,-20.801,13
0.296,-0.041,0.939,1.754,17.455,-31.336,13
0.273,-0.141,0.965,21.449,18.966,-26.051,13
0.307,-0.151,0.911,30.947,11.917,-2.425,13
0.317,-0.041,0.982,17.712,5.622,-4.636,13
0.323,-0.048,0.973,4.513,27.670,-19.488,13
0.316,-0.171,0.844,8.808,28.281,-20.697,13
0.316,-0.298,0.898,11.741,10.910,-4.394,13
0.343,-0.200,0.948,23.020,15.261,21.062,13
0.342,-0.060,0.847,20.820,13.607,26.243,13
0.333,-0.051,0.924,4.233,5.766,11.011,13
0.328,-0.119,0.811,2.941,-2.542,4.448,13
0.356,-0.044,0.996,-3.903,-10.275,4.241,13
0.333,-0.139,0.934,-20.525,7.493,-11.129,13
0.314,-0.255,0.890,-5.265,-3.477,1.340,13
0.321,-0.175,0.878,9.017,-9.088,12.980,13
0.344,-0.194,0.986,2.208,-9.987,10.769,13
0.311,-0.137,0.931,0.671,-2.722,19.024,13
0.317,-0.075,0.948,6.259,-7.973,17.746,13
0.314,-0.146,0.904,1.614,-9.879,20.579,13
0.328,-0.050,1.027,3.640,-8.908,25.898,13
0.336,-0.115,0.918,1.544,1.091,10.769,13
0.328,-0.186,0.846,2.697,-0.600,14.569,13
0.313,-0.204,0.969,10.554,-12.505,26.416,13
0.333,-0.043,0.941,3.395,-2.110,34.084,13
0.337,0.022,0.909,-3.484,-0.780,18.852,13
0.330,-0.042,0.964,-1.110,-3.081,4.552,13
0.315,-0.082,0.924,3.221,-2.470,-4.221,13
0.281,-0.209,0.910,12.230,-11.857,0.683,13
0.326,-0.144,0.976,15.966,-6.462,13.394,13
0.320,-0.128,0.945,9.960,-10.383,7.453,13
0.325,-0.010,0.940,3.535,-0.456,11.840,13
0.317,-0.023,0.987,-9.490,4.759,-11.958,13
0.281,-0.272,0.904,-0.481,2.206,-11.302,13
0.288,-0.444,0.825,15.163,-11.569,17.746,13
0.300,-0.135,1.001,16.770,-3.081,47.278,13
0.314,0.141,0.945,8.354,1.019,32.599,13
0.314,0.172,0.969,0.008,1.486,-0.146,13
0.327,0.009,1.042,-18.151,4.256,-24.807,13
0.287,-0.487,0.937,-22.516,11.737,-0.456,13
0.314,-0.286,0.994,-15.916,15.513,43.064,13
0.327,-0.085,0.873,-28.277,25.800,52.356,13
0.343,0.068,0.883,-12.354,12.276,39.507,13
0.355,0.107,0.905,-15.392,11.305,14.776,13
0.337,-0.019,1.004,-20.141,-1.247,5.484,13
0.317,-0.129,0.831,-13.751,12.024,8.179,13
0.358,-0.228,0.932,6.573,-6.462,12.082,13
0.352,-0.069,0.961,-2.646,9.615,25.829,13
0.343,0.078,0.920,-13.157,14.326,23.273,13
0.327,0.121,0.978,-11.411,6.665,-0.698,13
0.238,-0.053,0.958,9.890,-8.440,-18.797,13
0.245,-0.403,0.732,-20.281,35.403,-21.906,13
0.435,-0.162,1.004,23.404,-16.821,29.075,13
0.277,0.070,0.918,-6.173,13.571,23.480,13
0.350,0.074,0.946,-4.008,1.918,1.271,13
0.444,0.005,0.908,-4.497,11.089,-3.565,13
0.355,0.018,0.916,4.582,-1.031,-11.544,13
0.318,-0.183,0.865,17.678,-13.404,-0.284,13
0.339,-0.042,0.924,23.125,-14.627,15.916,13
0.356,-0.077,0.925,15.966,-16.641,7.937,13
0.322,-0.087,0.939,8.738,-13.727,7.281,13
0.327,0.011,0.820,39.049,-53.326,3.688,13
0.295,-0.055,0.915,34.893,-58.865,-2.771,13
0.275,-0.021,1.045,33.566,-57.391,-7.744,13
0.288,-0.133,0.966,20.192,-35.199,-22.528,13
0.278,-0.245,0.916,20.122,-48.435,-6.052,13
0.272,-0.248,0.817,21.868,-73.647,-1.527,13
0.230,-0.146,1.026,15.408,-60.196,24.965,13
0.187,0.065,1.006,12.439,-54.873,6.037,13
0.163,-0.036,1.023,-1.214,-45.090,-15.412,13
0.190,-0.192,0.885,-10.084,-51.456,-11.371,13
0.148,-0.212,1.022,-14.449,-48.471,-13.582,13
0.166,-0.263,0.960,-8.897,-43.436,2.790,13
0.165,-0.064,1.018,-3.030,-34.624,9.111,13
0.112,-0.092,0.891,-8.198,-33.617,-1.251,13
0.083,-0.057,0.968,-11.621,-44.371,-1.424,13
0.092,-0.134,0.921,-22.760,-55.340,-4.429,13
0.125,-0.116,1.105,-21.992,-69.008,-3.254,13
0.089,-0.105,0.946,-16.195,-43.472,-9.161,13
0.073,-0.166,0.966,-13.786,-62.498,-5.914,13
0.064,-0.088,1.071,-6.662,-43.004,-2.114,13
0.020,-0.041,1.021,-6.941,-38.832,-1.734,13
-0.025,-0.028,1.017,-12.773,-38.436,-4.774,13
0.006,-0.031,0.973,-14.554,-33.221,-8.919,13
-0.020,-0.091,1.042,-11.132,-27.143,-9.057,13
-0.007,-0.082,1.024,-4.881,-26.316,-5.879,13
0.006,-0.048,1.080,4.303,-26.064,-9.782,13
-0.018,0.048,0.941,1.579,8.859,-14.204,13
-0.043,-0.111,1.052,-9.455,-17.144,-17.278,13
-0.018,-0.136,0.909,-18.046,-32.394,-18.521,13
-0.024,-0.059,1.056,-15.462,-13.691,-12.787,13
-0.049,-0.028,1.050,-7.360,0.731,-14.065,13
-0.043,0.002,1.016,-2.716,14.362,-22.286,13
-0.030,-0.129,0.933,0.287,-4.232,-22.873,13
-0.025,-0.039,0.969,-0.935,4.328,-19.523,13
-0.026,-0.048,0.984,-0.411,5.227,-12.235,13
-0.008,-0.109,0.965,-2.052,9.651,-16.034,13
-0.025,-0.049,1.024,2.976,7.277,-10.957,13
-0.027,-0.083,1.065,3.221,7.133,-10.888,13
-0.017,-0.209,0.953,-2.576,-3.765,-9.851,13
-0.025,-0.063,0.969,-4.602,-2.110,0.200,13
0.107,-0.507,1.070,-13.367,-16.281,18.748,14
0.136,-0.484,1.095,-25.205,-18.403,39.956,14
0.168,-0.629,1.092,-49.684,-22.072,62.061,14
0.248,-0.799,0.912,-70.182,-28.474,90.592,14
0.180,-0.812,0.790,-85.302,-38.796,150.416,14
0.073,-0.719,0.692,-88.445,-45.630,190.206,14
0.010,-0.566,0.866,-106.673,-53.686,228.373,14
-0.137,-0.660,0.639,-119.384,-71.489,257.283,14
-0.400,-0.141,0.661,-117.708,-50.125,277.731,14
-0.583,0.690,1.295,-71.090,-60.807,293.240,14
-0.411,0.238,0.643,-72.347,-47.536,193.591,14
-0.453,-0.224,0.293,-102.553,-123.928,189.066,14
-0.373,-0.147,1.161,-107.791,-104.363,235.281,14
-0.493,-0.363,0.968,-104.194,-40.558,259.010,14
-0.840,-0.930,0.359,-118.476,-46.744,280.702,14
-1.141,0.613,1.167,-94.626,-51.096,388.847,14
-1.013,1.391,0.972,-69.274,3.788,262.810,14
-0.768,0.781,0.326,-72.417,-12.684,145.615,14
-0.755,-0.156,0.954,-72.766,-69.799,141.435,14
-0.771,-0.174,0.982,-52.826,-24.553,157.876,14
-0.753,0.233,0.878,-26.671,19.865,181.536,14
-0.717,0.575,0.679,-19.757,44.862,155.769,14
-0.730,0.682,0.510,-21.154,-6.426,98.502,14
-0.719,0.315,0.662,-15.078,-33.833,63.788,14
-0.784,-0.042,0.921,-18.674,-51.600,62.787,14
-0.864,0.646,1.233,-4.043,-28.150,68.313,14
-0.818,0.542,1.134,9.855,14.938,22.755,14
-0.774,0.549,0.661,17.328,38.100,-19.799,14
-0.694,0.017,0.770,9.751,-12.648,-44.392,14
-0.747,0.187,0.921,11.497,-18.403,-35.998,14
-0.748,0.159,1.214,23.649,9.866,-41.767,14
-0.666,0.113,0.969,30.284,38.244,-45.290,14
-0.578,0.184,0.863,25.744,39.898,-48.778,14
-0.538,0.190,0.901,17.608,25.979,-69.364,14
-0.555,0.228,0.872,18.551,38.496,-80.210,14
-0.582,0.122,1.059,24.801,20.333,-83.526,14
-0.559,0.010,0.954,34.719,23.821,-91.816,14
-0.441,0.249,1.091,43.833,58.421,-75.651,14
-0.592,0.520,0.735,49.071,99.243,-102.419,14
-0.366,-0.289,0.739,36.849,11.413,-130.086,14
-0.343,0.236,0.958,32.938,17.887,-110.122,14
-0.448,0.069,0.914,35.452,39.179,-120.173,14
-0.576,-0.049,0.801,37.966,29.144,-120.277,14
-0.420,-0.058,1.169,49.734,37.453,-84.838,14
-0.360,0.383,1.057,61.223,82.123,-88.776,14
-0.346,0.098,0.451,47.534,55.831,-129.465,14
-0.297,-0.096,0.802,22.741,30.475,-108.637,14
-0.395,0.116,1.106,23.300,29.144,-95.650,14
-0.448,0.072,0.949,31.925,35.798,-113.265,14
-0.287,0.149,1.061,37.058,44.106,-102.730,14
-0.250,0.061,0.908,30.703,48.602,-118.826,14
-0.271,-0.114,0.743,14.465,31.266,-122.211,14
-0.260,0.013,1.027,16.246,30.331,-101.625,14
-0.278,0.110,1.165,36.255,52.846,-97.238,14
-0.181,0.215,1.218,56.718,87.841,-95.166,14
-0.163,-0.093,0.560,48.128,61.874,-123.040,14
-0.066,-0.169,0.712,23.230,35.295,-106.875,14
-0.082,-0.023,0.994,13.068,15.477,-92.576,14
-0.094,-0.068,1.075,26.268,33.604,-90.296,14
-0.063,0.013,0.838,41.004,49.322,-80.176,14
0.027,-0.231,0.835,33.461,10.910,-71.368,14
0.017,-0.036,0.914,27.665,17.276,-61.075,14
0.029,-0.099,0.963,31.017,22.706,-55.341,14
0.003,0.124,0.958,39.957,27.706,-47.190,14
-0.014,0.153,0.924,42.261,31.266,-71.402,14
0.022,-0.147,0.878,31.122,27.778,-80.348,14
0.042,-0.202,0.987,25.360,19.218,-61.213,14
0.064,-0.157,0.894,23.614,17.024,-54.892,14
0.057,-0.007,0.940,26.582,16.556,-46.810,14
0.059,0.108,0.977,30.284,22.275,-62.871,14
0.097,-0.098,0.902,27.490,24.433,-78.414,14
0.088,-0.243,0.718,21.763,15.369,-80.935,14
0.100,-0.353,0.951,21.309,-2.002,-57.172,14
0.089,-0.253,0.954,25.220,1.342,-35.411,14
0.032,0.037,1.055,24.382,-0.456,-41.041,14
0.014,-0.081,0.960,18.271,8.176,-69.606,14
0.054,-0.327,1.049,8.284,2.745,-71.886,14
0.044,-0.325,0.936,11.392,7.385,-50.264,14
0.047,-0.339,0.926,19.109,11.557,-30.058,14
0.055,-0.287,1.000,18.341,6.701,-20.283,14
0.042,-0.286,0.971,9.017,-0.276,-17.934,14
0.048,-0.240,0.998,-1.494,1.738,-10.646,14
0.038,-0.224,1.003,-4.811,8.428,-5.292,14
0.030,-0.122,1.009,-4.183,1.235,-1.251,14
0.052,-0.108,0.947,-2.052,0.048,-5.638,14
0.039,-0.144,0.907,-2.471,-2.650,-6.916,14
0.027,-0.136,0.978,-6.278,-5.887,-11.924,14
0.031,-0.181,0.992,-11.551,-7.002,-6.950,14
0.003,-0.162,1.015,-8.094,-5.131,0.476,14
-0.007,-0.114,1.039,2.173,-1.859,5.588,14
-0.004,-0.042,1.026,3.081,3.321,3.965,14
-0.010,-0.093,1.022,-2.437,6.342,-1.285,14
-0.002,-0.186,0.939,-6.208,-1.535,-5.845,14
-0.007,-0.077,1.056,-1.983,-1.679,4.655,14
-0.007,-0.078,1.003,3.186,0.084,1.201,14
0.008,-0.061,1.010,0.008,2.026,-2.045,14
-0.013,-0.037,1.009,0.776,5.083,-2.287,14
0.009,-0.123,0.973,-1.284,6.378,-9.644,14
0.011,-0.102,0.964,-1.564,3.824,-5.327,14
0.021,-0.130,0.966,4.128,5.838,-2.563,14
0.019,-0.075,0.959,7.236,5.371,-1.493,14
-0.016,-0.009,1.000,7.201,3.357,-5.672,14
0.011,-0.095,0.980,4.198,8.284,-23.253,14
0.031,-0.214,0.969,2.732,2.242,-17.347,14
0.045,-0.234,0.944,3.605,-0.959,-5.223,14
0.041,-0.163,0.983,4.408,-0.780,4.552,14
0.005,-0.063,1.033,6.468,2.457,5.519,14
0.013,-0.111,1.013,5.071,5.443,-2.356,14
0.016,-0.140,0.993,3.570,7.385,-2.460,14
0.030,-0.134,0.996,2.173,6.414,-4.843,14
0.023,-0.172,0.973,1.160,6.450,-0.664,14
0.041,-0.139,0.997,-0.551,0.551,0.234,14
0.037,-0.125,0.976,-1.878,3.788,-0.353,14
0.028,-0.069,0.991,-3.030,3.536,-3.876,14
0.041,-0.155,0.969,-4.252,6.486,-7.295,14
0.031,-0.125,0.966,0.602,5.730,-4.705,14
0.037,-0.137,0.946,2.522,4.112,-1.700,14
0.014,-0.098,1.022,1.719,2.457,-1.665,14
0.031,-0.165,0.961,0.497,5.407,-8.366,14
0.037,-0.171,0.981,-0.376,3.896,-3.254,14
0.038,-0.138,0.964,0.322,2.925,-1.976,14
0.039,-0.036,1.006,0.846,3.932,-5.430,14
0.065,-0.138,0.927,-0.865,4.975,-9.990,14
0.054,-0.114,0.928,-3.065,-0.672,-10.542,14
0.041,-0.106,1.012,-2.227,-0.204,-12.511,14
0.036,-0.149,1.024,-2.471,1.954,-10.439,14
0.015,-0.087,1.040,0.357,3.464,-9.333,14
0.022,-0.088,1.059,3.675,10.586,-12.062,14
0.057,-0.160,0.982,0.881,15.261,-19.765,14
0.057,-0.187,1.008,-3.903,19.326,-14.514,14
0.032,-0.168,0.929,-2.646,10.550,-4.981,14
0.055,-0.104,1.034,-0.271,6.630,-3.980,14
-0.000,0.032,0.981,6.852,16.017,-6.916,14
0.052,-0.082,0.987,11.497,2.853,-25.878,14
0.058,-0.225,0.972,7.935,5.838,-24.635,14
0.089,-0.146,0.942,12.265,3.105,-14.894,14
0.077,-0.179,0.969,12.230,7.780,-13.064,14
0.066,-0.046,1.029,9.681,14.902,-19.523,14
0.049,-0.043,0.981,4.617,23.246,-31.059,14
0.078,-0.268,0.903,-1.040,10.910,-26.880,14
0.091,-0.156,0.938,2.068,5.371,-15.689,14
0.079,-0.091,0.986,4.024,3.788,-17.243,14
0.082,-0.136,1.026,4.303,7.097,-30.783,14
0.058,-0.194,0.961,0.846,12.420,-26.396,14
0.055,-0.212,0.910,1.998,-11.066,-15.689,14
0.080,-0.085,1.043,3.640,-3.909,-19.937,14
0.052,-0.009,0.972,3.255,3.429,-28.780,14
0.085,-0.164,0.980,1.894,5.335,-33.546,14
0.038,-0.136,0.948,0.741,4.939,-15.032,14
0.007,-0.218,1.014,-0.586,-3.873,-18.866,14
0.068,-0.191,0.968,-9.805,-1.103,-21.319,14
0.062,-0.115,1.033,-14.100,-7.577,-16.138,14
-0.081,-0.272,1.124,-13.157,-0.887,-23.288,14
0.075,-0.112,1.036,-5.684,-5.419,-15.309,14
0.042,-0.131,0.981,-10.678,-7.829,-7.468,14
0.072,-0.177,0.995,-20.071,-2.686,-9.402,14
0.055,-0.151,0.970,-17.313,-6.822,-10.473,14
0.070,-0.164,0.969,-16.824,-7.469,-2.667,14
0.051,-0.148,0.993,-14.868,-8.656,-1.424,14
0.057,-0.015,0.997,-8.513,-5.959,3.827,14
0.020,-0.002,1.027,-8.373,3.177,-4.463,14
0.058,-0.106,1.012,-11.551,-4.304,-9.990,14
0.041,-0.107,1.032,-14.274,1.738,-8.332,14
0.051,-0.157,0.990,-11.062,1.882,-4.463,14
0.023,-0.121,0.976,-5.160,0.695,2.203,14
0.025,0.015,1.012,-0.376,2.421,-1.527,14
0.043,-0.048,0.994,1.021,3.716,-5.603,14
0.047,-0.076,0.994,-0.865,9.255,-11.648,14
0.037,-0.188,0.983,-11.551,-1.319,-9.230,14
0.058,-0.106,0.976,-17.767,3.213,-8.953,14
0.067,-0.149,0.992,-11.341,3.285,-4.705,14
0.028,-0.091,0.964,-1.284,6.665,3.170,14
0.060,-0.060,1.008,1.929,-0.780,0.614,14
0.069,-0.079,1.009,-3.240,4.759,-5.327,14
0.064,-0.131,0.928,-6.243,6.054,-2.702,14
0.057,-0.082,0.968,-4.217,-0.024,1.409,14
0.075,-0.086,0.945,-1.144,-2.290,-0.940,14
0.039,0.015,1.002,-0.621,-1.571,-2.287,14
0.040,-0.100,0.987,-2.960,-4.484,-11.164,14
0.094,-0.103,0.930,-6.208,-14.123,-11.302,14
0.081,-0.180,1.006,-9.421,-9.699,-5.189,14
0.064,-0.072,0.968,-6.313,-5.347,-2.771,14
0.054,-0.059,0.951,0.113,-1.751,-2.909,14
-0.001,-0.082,1.063,10.484,-7.793,2.169,14
0.009,-0.030,0.956,22.252,-6.390,-5.914,14
0.056,-0.165,1.053,22.112,-14.051,-0.906,14
0.049,-0.195,0.989,10.379,-4.988,-1.458,14
0.014,-0.060,1.042,2.487,-4.808,4.276,14
0.018,-0.051,0.970,3.186,-0.168,-4.360,14
0.023,-0.136,0.972,5.141,-0.995,-0.180,14
-0.002,0.050,1.028,12.405,-1.894,-3.911,14
0.001,-0.057,1.028,9.960,-0.060,-9.713,14
0.004,-0.085,1.007,3.430,1.810,-16.172,14
0.010,-0.095,0.991,2.976,1.235,-11.509,14
0.018,-0.152,0.961,2.138,-0.384,-8.435,14
0.023,-0.164,0.946,4.338,-1.894,-3.807,14
-0.002,-0.121,1.015,4.513,-5.239,2.307,14
-0.027,-0.067,1.032,2.278,-2.434,-1.355,14
-0.002,-0.104,0.984,-2.122,0.228,-6.916,14
0.005,-0.103,0.970,-2.716,-2.362,-4.290,14
0.086,-0.886,1.199,-5.544,4.220,80.057,15
0.138,-0.915,1.252,2.487,26.087,152.695,15
0.088,-0.664,0.802,-16.230,48.171,195.491,15
0.051,-0.604,0.713,-42.315,-6.642,216.180,15
-0.094,-0.424,0.744,-38.963,-12.648,236.041,15
-0.232,-1.099,0.890,-35.296,-66.382,272.412,15
-0.419,-0.930,0.944,-43.049,-70.015,364.151,15
-0.510,-0.663,0.482,-75.490,-108.571,398.139,15
-0.586,0.052,0.508,-100.458,-76.453,408.535,15
-0.714,0.041,0.008,-96.861,-86.415,368.054,15
-0.881,0.795,1.388,-95.010,-109.074,410.366,15
-0.743,0.931,1.136,-109.188,-68.756,248.165,15
-0.668,0.050,0.614,-101.645,-78.826,227.371,15
-0.656,-0.157,0.489,-80.728,-149.392,256.005,15
-0.574,1.080,1.406,-56.039,-84.113,262.499,15
-0.497,0.641,1.236,-46.157,-29.660,155.804,15
-0.621,0.728,1.135,-34.738,58.996,125.201,15
-0.570,-0.327,0.506,-33.166,-16.497,77.017,15
-0.447,-0.017,0.766,-30.477,-35.847,154.491,15
-0.460,0.400,0.859,-42.385,-36.386,115.115,15
-0.490,0.494,1.256,-34.039,-6.606,97.638,15
-0.515,0.433,0.980,-17.697,24.181,63.443,15
-0.480,0.569,0.810,-5.824,8.068,26.934,15
-0.445,0.159,0.776,-1.075,-6.426,-0.767,15
-0.436,0.037,0.858,-8.094,-23.115,1.029,15
-0.485,0.158,1.308,2.103,-3.729,13.118,15
-0.418,0.366,1.137,21.414,45.078,-5.016,15
-0.352,0.198,0.437,22.112,49.142,-26.534,15
-0.341,-0.225,0.587,12.719,3.752,-23.978,15
-0.266,-0.031,0.872,0.357,-22.971,-1.424,15
-0.329,0.105,1.049,-2.646,-20.741,-5.776,15
-0.342,0.333,1.318,9.401,19.218,-9.713,15
-0.302,0.136,0.976,16.316,37.525,-34.271,15
-0.315,-0.078,0.496,11.532,15.945,-42.803,15
-0.251,-0.313,0.785,-3.240,-22.251,2.410,15
-0.278,0.140,0.991,-5.579,-36.962,6.452,15
-0.349,0.236,1.166,2.208,-14.375,5.070,15
-0.357,0.277,1.236,11.008,19.002,-9.195,15
-0.312,-0.025,0.777,8.773,8.392,-31.025,15
-0.305,-0.068,0.842,1.684,-5.959,-2.425,15
