ACC-X,ACC-Y,ACC-Z,GYRO-X,GYRO-Y,GYRO-Z,TEST
0.178,0.548,0.962,17.817,-7.721,-17.347,1
0.186,0.688,1.1,34.893,-2.29,-49.366,1
0.18,0.816,1.116,36.465,10.334,-81.626,1
0.276,1.08,1.078,49.49,30.08,-136.787,1
0.135,1.298,1.007,57.801,51.659,-200.03,1
-0.064,1.414,0.856,80.953,63.348,-304.998,1
-0.395,0.649,0.505,109.972,72.556,-403.818,1
-0.534,-0.295,0.52,113.429,48.063,-389.38,1
-0.481,0.153,0.631,153.552,21.52,-342.302,1
-0.676,0.277,0.553,171.257,20.225,-398.534,1
-0.834,-0.001,0.745,173.946,40.366,-435.803,1
-0.871,-1.101,0.624,126.559,53.961,-416.08,1
-0.768,-1.365,0.663,62.62,61.442,-299.541,1
-0.709,0.336,1.075,70.442,94.243,-268.524,1
-0.843,-1.071,0.953,36.43,139.777,-319.678,1
-0.685,-1.167,0.64,23.998,142.582,-254.051,1
-0.519,-1.375,0.364,2.871,81.871,-223.103,1
-0.379,-1.236,0.644,-26.252,1.522,-89.467,1
-0.317,-1.026,0.993,-53.35,-31.171,-63.216,1
-0.387,-1.033,0.97,-56.737,-27.898,-10.439,1
-0.121,-0.093,1.232,-54.398,-15.13,33.013,1
-0.121,-0.721,1.059,-32.398,-3.297,-59.52,1
-0.121,-0.692,1.115,-10.538,-34.192,-11.924,1
-0.103,-0.782,1.324,8.424,-45.45,-4.187,1
-0.14,-0.736,1.412,15.897,-29.553,23.549,1
-0.091,-0.584,1.535,7.062,3.285,34.636,1
-0.095,-0.627,1.264,9.786,39.826,44.239,1
-0.177,-0.712,0.96,14.325,52.019,55.222,1
-0.232,-0.894,0.722,16.525,38.568,79.124,1
-0.214,-0.614,0.713,20.785,2.961,125.754,1
-0.165,-0.412,0.765,15.303,-13.835,123.509,1
-0.114,-0.403,0.8,3.709,-7.11,113.665,1
-0.124,-0.648,0.715,-9.525,-25.488,119.537,1
-0.147,-0.683,0.81,-7.989,-28.366,138.534,1
-0.144,-0.61,0.918,-12.319,-19.698,157.393,1
-0.072,-0.165,0.963,-7.779,-14.698,159.396,1
-0.018,-0.284,0.937,-15.811,-12.505,138.119,1
0.049,-0.323,0.93,-24.471,-16.245,135.978,1
0.022,-0.482,0.871,-24.751,-8.8,139.225,1
-0.013,-0.466,0.83,-19.862,-0.024,156.944,1
0.003,-0.232,0.758,-14.728,-13.476,163.23,1
0.08,-0.057,0.837,-11.725,-22.575,144.716,1
0.118,-0.155,0.922,-11.935,-22.215,123.923,1
0.091,-0.382,0.937,-17.347,-14.267,117.706,1
0.063,-0.482,0.83,-22.097,-11.318,130.797,1
0.078,-0.21,0.792,-15.881,-19.374,150.416,1
0.112,0.115,0.813,3.884,-33.185,133.215,1
0.136,-0.089,0.835,12.579,-45.63,105.306,1
0.107,-0.255,0.949,-0.551,-48.831,103.372,1
0.072,-0.363,1.006,-12.389,-40.091,109.796,1
0.05,-0.299,1.044,-17.871,-29.337,127.066,1
0.093,0.054,0.974,-13.506,-16.245,120.607,1
0.129,0.063,0.963,-5.754,-21.928,98.191,1
0.171,-0.015,0.899,-5.859,-23.438,83.753,1
0.126,-0.198,0.926,-13.925,-20.093,73.218,1
0.087,-0.326,0.938,-14.519,-21.244,78.365,1
0.195,-0.108,0.921,-16.719,-16.317,88.796,1
0.138,-0.045,0.934,-18.011,-17.684,83.373,1
0.18,0.051,0.923,-15.217,-17.971,71.871,1
0.176,-0.026,0.954,-26.601,-11.785,53.357,1
0.151,-0.193,0.951,-30.897,-9.627,52.39,1
0.116,-0.245,0.898,-29.046,-14.591,61.233,1
0.118,-0.107,0.85,-21.887,-21.496,67.657,1
0.145,0.057,0.943,-13.611,-34.372,56.673,1
0.148,-0.011,0.917,-14.24,-38.616,41.579,1
0.128,-0.1,0.986,-20.944,-31.171,34.049,1
0.11,-0.143,1.024,-29.919,-26.28,35.396,1
0.125,0.011,1.08,-29.29,-24.409,31.666,1
0.125,0.074,1.039,-21.259,-19.77,19.888,1
0.074,-0.073,1.014,-16.335,-34.156,10.665,1
0.082,-0.138,1.178,-15.846,-35.307,13.429,1
0.104,-0.063,1.11,-17.033,-16.245,14.499,1
0.134,0.069,1.048,-20.071,-4.16,12.669,1
0.087,0.064,0.953,-12.494,4.903,1.271,1
0.091,-0.029,0.984,-2.506,-4.916,0.2,1
0.072,-0.162,0.988,-3.624,-8.908,6.728,1
0.079,-0.091,0.902,-7.5,-7.937,19.024,1
0.1,-0.005,0.978,-6.662,-7.721,16.365,1
0.126,0.069,1.056,-10.887,-1.427,14.465,1
0.094,-0.002,0.973,-11.167,3.177,4.483,1
0.051,-0.133,0.916,-14.589,-6.139,11.46,1
0.064,-0.123,0.915,-16.928,-19.194,24.24,1
0.08,-0.075,0.99,-21.433,-20.885,33.911,1
0.094,0.061,1.015,-10.957,-5.707,22.858,1
0.078,0.087,0.985,-0.865,-0.995,6.106,1
0.037,-0.087,0.968,0.217,-2.29,0.683,1
0.029,-0.049,0.996,-1.389,-2.182,5.899,1
0.039,-0.105,1.021,-4.951,-0.492,11.633,1
0.062,0.034,1.034,-13.087,2.997,17.09,1
0.077,0.107,1.012,-11.376,5.155,8.144,1
0.057,0.03,0.963,-9.49,3.968,-2.736,1
0.06,-0.002,0.996,-10.817,-0.06,-0.353,1
0.063,-0.008,0.994,-1.773,-2.29,-0.353,1
0.073,0.017,0.99,5.56,-4.16,3.032,1
0.075,0.035,0.965,9.716,-3.441,-0.18,1
0.073,-0.055,0.973,10.659,-1.535,-5.016,1
0.066,-0.068,0.969,4.128,-0.816,-2.218,1
0.06,-0.051,1.016,-2.017,1.81,0.407,1
0.052,-0.034,1,-7.954,2.889,3.412,1
0.039,-0.009,0.982,-8.094,0.731,3.17,1
0.035,-0.015,1.014,-2.96,-1.463,1.927,1
0.024,-0.035,1.011,-0.551,-1.499,1.892,1
0.034,-0.034,1.053,-0.516,-1.175,5.139,1
0.05,0.044,1.015,0.322,2.601,2.134,1
0.054,0.064,1.025,4.967,4.328,-3.185,1
0.04,-0.026,1.017,3.884,3.932,-7.019,1
0.056,-0.063,1.006,3.395,6.018,-2.184,1
0.049,-0.058,0.921,1.684,5.011,0.58,1
0.063,-0.009,0.975,-2.157,0.012,4.31,1
0.049,0,0.932,-3.589,-0.168,3.447,1
0.063,-0.019,0.97,-4.846,-1.355,0.338,1
0.056,-0.029,0.968,-2.052,-0.312,0.683,1
0.063,-0.042,0.977,1.125,0.335,0.787,1
0.048,-0.013,0.984,3.849,-0.132,0.234,1
0.057,0.013,1.03,1.929,3.105,-0.215,1
0.049,0.008,1.037,0.916,3.86,-2.322,1
0.046,-0.026,1.032,-0.132,3.932,-0.664,1
0.046,-0.003,1.029,-1.075,1.594,2.721,1
0.052,-0.007,1.032,-0.691,2.925,3.412,1
0.052,0.014,1.02,0.986,6.054,1.098,1
0.059,-0.007,1.006,-0.097,6.701,0.234,1
0.057,-0.027,0.978,1.16,7.493,0.683,1
0.067,-0.025,0.962,1.44,5.191,3.55,1
0.071,-0.016,0.965,2.487,2.206,5.761,1
0.067,-0.019,0.969,-0.586,1.738,7.315,1
0.068,-0.039,0.989,-3.833,1.666,9.042,1
0.067,-0.023,0.97,-6.487,0.443,11.702,1
0.077,0.018,0.99,-1.738,-0.42,6.762,1
0.081,0.015,0.984,0.462,1.055,4.103,1
0.081,-0.012,0.982,-0.795,1.486,1.443,1
0.075,-0.034,1.007,-0.551,2.781,1.236,1
0.072,-0.044,0.97,-1.424,2.278,3.93,1
0.076,0.003,0.992,-1.389,0.048,5.795,1
0.066,-0.024,1.006,0.497,1.307,3.205,1
0.076,-0.017,1.01,-1.668,3.285,5.035,1
0.073,-0.015,1.005,-0.097,1.918,7.315,1
0.073,-0.002,0.995,1.754,1.235,7.004,1
0.08,-0.019,0.98,0.252,2.853,5.692,1
0.071,0,0.94,-2.471,1.486,6.003,1
0.079,0.059,0.971,-0.411,-0.923,4.483,1
0.073,-0.02,0.963,0.462,-0.204,2.065,1
0.086,-0.011,0.953,-0.76,-1.499,2.134,1
0.087,0.012,0.966,1.719,-1.211,2.859,1
0.09,0.028,0.986,2.522,-1.319,2.238,1
0.082,0.03,1.009,-0.271,-2.038,1.512,1
0.074,-0.006,1.007,-0.795,-3.009,-0.802,1
0.074,0.014,1.026,1.649,-1.427,-2.011,1
0.061,-0.051,0.99,1.894,-0.276,-2.184,1
0.068,-0.045,1,-1.144,-0.06,-0.18,1
0.064,0,0.987,0.602,-0.42,0.234,1
0.057,-0.049,1.002,1.021,-1.535,2.134,1
0.065,0.009,0.989,1.16,-0.24,3.55,1
0.072,0.022,1.005,2.278,-0.276,-0.042,1
0.062,-0.018,1.011,1.684,1.81,0.096,1
0.058,-0.023,0.99,-0.237,2.17,3.412,1
0.06,-0.003,0.993,-0.446,0.803,4.69,1
0.065,0.019,0.992,-0.586,1.594,4.897,1
0.057,0.034,0.982,-0.167,0.192,2.963,1
0.05,-0.031,1.023,0.148,0.228,2.479,1
0.058,0.022,0.988,-0.097,1.882,5.139,1
0.074,0.021,0.968,-0.167,2.17,3.654,1
0.076,0.057,0.974,0.776,3.572,0.58,1
0.069,-0.064,0.969,-1.529,-0.348,0.683,1
0.081,-0.037,0.99,-1.668,-0.564,4.828,1
0.096,-0.037,1.006,-4.113,2.493,7.557,1
0.104,0,1.003,-7.57,9.831,9.629,1
0.072,0.003,0.968,-11.725,9.363,12.289,1
0.074,-0.024,0.969,-9.77,2.637,15.432,1
0.064,-0.024,0.97,-3.275,1.558,17.85,1
0.045,-0.031,0.993,-0.795,-0.168,22.582,1
0.036,0.044,0.986,-1.633,-2.074,26.278,1
0.082,0.189,1.039,3.605,-3.549,15.985,1
0.081,0.144,1.015,4.233,-1.283,1.927,1
0.05,-0.028,0.981,-1.424,-2.074,-4.739,1
0.068,-0.059,0.996,-5.09,0.839,8.559,1
0.073,0.019,0.972,1.859,1.307,8.628,1
0.118,0.056,0.987,3.849,1.307,2.928,1
0.106,-0.008,0.969,-1.598,1.954,-1.734,1
0.069,-0.032,0.997,-7.046,2.997,2.825,1
0.077,0.024,0.989,-5.998,3.249,6.21,1
0.074,0.005,0.996,-2.96,-2.182,5.588,1
0.071,0.074,1.016,0.043,0.156,2.652,1
0.061,0.059,0.981,4.128,1.522,-0.353,1
0.05,-0.026,0.978,2.732,-1.463,-1.009,1
0.048,0.022,0.975,2.208,-0.276,1.236,1
0.054,0.021,1.008,4.163,-3.333,2.549,1
0.075,0.041,0.997,2.976,-1.103,-0.387,1
0.079,0.015,0.964,1.405,-1.607,-2.149,1
0.086,-0.02,0.993,-0.062,0.084,0.096,1
0.095,0.009,0.998,0.462,0.228,2.307,1
0.097,-0.014,1.02,-0.167,-0.06,3.101,1
0.097,0.046,0.984,0.532,2.242,2.169,1
0.082,-0.001,0.974,1.754,0.731,-1.044,1
0.06,-0.005,1.006,-0.865,1.307,2.134,1
0.046,0.026,0.955,0.532,2.134,0.822,1
0.051,0.025,0.979,1.265,-1.103,0.994,1
0.05,0.015,0.992,3.744,0.012,-0.249,1
0.058,0.002,0.967,2.871,0.192,-1.527,1
0.076,0.018,0.987,0.916,-0.204,-0.767,1
0.076,-0.023,0.996,1.475,-2.11,0.683,1
0.083,0.284,1.31,-12.773,21.987,42.201,2
0.115,0.704,1.282,-6.662,41.193,37.711,2
0.197,0.994,1.056,29.027,53.817,-1.285,2
0.234,0.991,0.91,51.655,58.817,-62.18,2
0.277,1.423,0.979,79.94,66.729,-135.44,2
0.146,1.5,0.964,93.385,106.652,-267.937,2
-0.166,1.86,0.926,119.959,126.038,-381.574,2
-0.741,1.833,0.589,154.914,148.912,-553.62,2
-1.233,0.705,0.113,155.962,113.593,-628.641,2
-1.146,0.729,0.482,177.507,53.206,-577.245,2
-1.564,-0.196,0.311,154.076,113.018,-688.569,2
-1.484,-1.436,0.551,52.982,137.763,-564.362,2
-1.158,-1.645,0.579,2.417,133.447,-416.46,2
-0.969,-1.158,0.457,7.062,126.253,-325.308,2
-0.97,-1.935,0.032,-39.906,51.731,-230.737,2
-0.656,-0.5,0.607,-33.83,-48.795,-110.295,2
-0.563,-0.712,1.268,-46.611,-45.162,-151.294,2
-0.382,-0.993,1.406,-37.496,-24.949,-97.169,2
-0.226,-0.56,1.382,-18.465,-6.39,-87.982,2
-0.269,-0.824,1.127,-2.087,-20.489,-68.605,2
-0.228,-0.534,1.249,11.217,-33.329,-63.216,2
-0.312,-0.952,1.341,14.57,-7.218,-54.996,2
-0.406,-1.2,1.202,11.601,21.879,-11.095,2
-0.315,-0.665,1.15,9.367,29.684,30.043,2
-0.203,-0.551,1.032,5.106,39.754,21.304,2
-0.21,-0.687,0.874,13.103,25.188,21.718,2
-0.257,-0.693,0.932,19.773,6.522,30.733,2
-0.325,-0.727,0.858,21.379,2.026,48.556,2
-0.341,-0.68,0.827,17.049,-2.182,69.971,2
-0.31,-0.66,0.806,9.646,-1.787,82.026,2
-0.243,-0.667,0.652,2.662,-10.67,100.125,2
-0.242,-0.844,0.512,1.998,-32.07,112.249,2
-0.264,-0.808,0.47,7.306,-67.065,151.348,2
-0.258,-0.505,0.687,7.76,-99.687,168.757,2
-0.077,0.274,1.128,8.389,-103.751,138.257,2
-0.075,-0.408,1.181,-14.065,-67.137,105.513,2
-0.09,-0.729,1.094,-12.284,-48.183,117.81,2
-0.134,-0.872,0.943,-7.605,-32.61,144.786,2
-0.172,-0.519,0.94,-19.024,-17.971,179.257,2
-0.11,0.036,0.922,-22.69,-13.188,156.909,2
-0.072,-0.07,0.846,-33.516,-17.684,120.884,2
-0.016,-0.521,0.96,-33.55,-22.791,112.663,2
-0.028,-0.798,0.95,-31.56,-12.037,134.078,2
-0.078,-0.622,0.846,-39.801,-3.369,167.928,2
0.013,0.255,0.809,-31.804,-7.685,151.245,2
0.071,0.163,0.872,-18.43,-16.389,102.957,2
0.08,-0.23,0.889,-14.17,-23.33,76.603,2
0.097,-0.552,0.986,-14.205,-26.819,79.677,2
0.04,-0.578,0.785,-17.487,-17,102.232,2
0.066,-0.072,0.806,-12.494,-20.957,117.81,2
0.098,-0.084,0.794,-2.157,-28.186,89.832,2
0.092,-0.174,0.836,-3.938,-38.76,72.458,2
0.103,-0.314,1.02,-17.382,-32.286,76.292,2
0.097,-0.382,0.959,-25.135,-19.338,83.753,2
0.118,-0.156,0.969,-25.17,-17,85.342,2
0.131,-0.058,0.937,-15.217,-14.519,58.849,2
0.128,-0.208,0.991,-12.424,-18.115,49.834,2
0.105,-0.321,0.937,-8.198,-16.353,51.25,2
0.09,-0.373,0.905,-8.198,-21.424,64.376,2
0.109,-0.23,0.962,-8.059,-23.798,71.94,2
0.133,-0.028,0.96,-7.605,-18.619,62.649,2
0.156,-0.015,0.999,-4.916,-14.519,41.234,2
0.134,-0.187,1.001,-2.332,-11.354,28.661,2
0.115,-0.295,0.907,-4.497,-11.749,31.562,2
0.103,-0.374,0.914,-13.262,-10.167,40.474,2
0.104,-0.223,0.903,-13.576,-7.038,43.064,2
0.124,-0.148,0.958,-12.982,-11.21,37.227,2
0.119,-0.229,0.972,-10.503,-11.533,29.663,2
0.119,-0.278,0.954,-12.459,-7.685,29.766,2
0.117,-0.309,0.949,-18.29,-6.067,34.326,2
0.097,-0.23,0.92,-16.579,-7.613,37.538,2
0.103,-0.216,0.919,-13.855,-10.275,37.745,2
0.109,-0.148,0.959,-14.309,-11.174,33.497,2
0.11,-0.211,0.974,-20.944,-12.217,30.63,2
0.105,-0.274,0.991,-22.9,-11.749,29.214,2
0.125,-0.191,1.005,-22.76,-6.75,32.737,2
0.114,-0.201,0.952,-22.306,-5.635,31.631,2
0.105,-0.21,0.931,-24.401,-6.786,31.044,2
0.12,-0.116,0.928,-27.719,-4.628,26.727,2
0.118,-0.138,0.907,-36.623,-9.375,29.559,2
0.114,-0.051,0.921,-35.506,-9.088,22.375,2
0.106,-0.161,0.968,-28.382,-12.972,16.468,2
0.086,-0.244,0.984,-32.643,-11.21,25.587,2
0.064,-0.27,0.977,-32.677,-9.627,33.289,2
0.066,-0.159,1.017,-28.801,-12.756,43.997,2
0.064,-0.128,1.026,-28.138,-17.36,47.451,2
0.082,-0.048,1.034,-24.751,-18.655,42.65,2
0.083,0.004,0.999,-21.922,-12.361,35.085,2
0.079,-0.074,0.996,-18.325,-14.95,30.112,2
0.1,-0.087,0.986,-14.903,-11.246,26.14,2
0.093,-0.064,0.974,-12.284,-10.886,26.278,2
0.076,-0.052,0.956,-5.859,-13.152,20.302,2
0.062,-0.056,0.98,-7.29,-13.727,19.922,2
0.056,-0.003,0.992,-13.786,-17.288,19.646,2
0.07,0.04,1.079,-11.516,-12.936,12.634,2
0.053,-0.019,1.053,-7.186,-4.736,5.657,2
0.037,-0.047,1.039,-6.802,-3.081,5.899,2
0.041,-0.041,1.046,-3.589,-2.038,9.353,2
0.038,0,1.007,-2.262,-1.93,14.05,2
0.044,0.018,1.006,0.916,-2.614,9.422,2
0.055,-0.003,1.022,-0.935,-2.65,4.172,2
0.056,-0.035,1.016,-1.284,2.421,-0.284,2
0.057,-0.007,1.01,-0.237,3.393,-0.698,2
0.051,-0.054,1.025,1.37,-0.456,0.787,2
0.038,-0.061,1.004,4.024,-0.024,-0.526,2
0.048,-0.044,1.017,5.49,1.019,-8.608,2
0.045,-0.074,0.995,2.382,2.853,0.131,2
0.041,-0.076,0.972,-1.04,5.479,0.476,2
0.047,-0.087,0.977,-4.671,4.687,2.169,2
0.055,-0.056,0.95,-2.332,4.903,4.552,2
0.073,-0.048,0.954,0.182,1.738,4.137,2
0.073,-0.062,0.965,2.103,-1.247,3.654,2
0.065,-0.068,0.994,4.617,-0.672,3.93,2
0.052,-0.065,1.001,4.198,-1.93,6.21,2
0.049,-0.045,1.016,4.582,-1.211,3.999,2
0.043,-0.004,1.02,5.63,-0.168,-0.318,2
0.039,-0.072,1.035,2.522,2.421,0.925,2
0.042,-0.022,0.988,1.719,3.608,0.822,2
0.045,-0.058,0.987,1.929,2.565,1.098,2
0.049,-0.052,0.973,1.16,1.63,0.925,2
0.052,-0.085,0.969,1.335,1.055,2.721,2
0.066,-0.075,0.979,0.287,1.163,3.723,2
0.07,-0.038,1.005,2.417,0.659,3.17,2
0.069,-0.055,0.991,0.497,2.098,1.271,2
0.065,-0.071,1.001,-0.83,2.242,-0.629,2
0.052,-0.07,0.967,0.182,-0.096,1.892,2
0.046,-0.061,1.014,-0.027,0.479,2.825,2
0.045,-0.054,1.002,1.125,3.429,0.442,2
0.049,-0.064,0.995,0.252,4.148,0.649,2
0.054,-0.099,0.988,-1.144,3.177,2.203,2
0.059,-0.066,0.958,-0.376,1.019,4.448,2
0.066,-0.054,0.978,1.37,-0.923,2.238,2
0.076,-0.039,0.974,-0.656,-0.492,1.65,2
0.082,-0.054,1.006,-1.04,0.551,-0.975,2
0.076,-0.077,1.008,0.741,1.342,-0.767,2
0.062,-0.062,1.011,2.348,2.062,0.683,2
0.049,-0.06,1.002,0.567,2.637,0.96,2
0.044,-0.055,0.988,-0.481,2.493,2.583,2
0.044,-0.044,0.992,-1.703,1.81,1.65,2
0.04,-0.063,0.987,-1.808,2.889,0.822,2
0.046,-0.054,0.987,0.951,1.486,0.822,2
0.061,-0.042,0.989,2.313,1.271,1.443,2
0.076,-0.04,0.971,1.37,0.551,0.476,2
0.086,-0.045,0.97,-2.017,0.048,-1.389,2
0.091,-0.074,0.965,-2.751,0.012,-1.251,2
0.094,-0.069,0.972,-1.249,0.407,1.201,2
0.085,-0.073,1.003,-0.376,-1.067,4.345,2
0.064,-0.036,0.987,1.824,-0.096,1.063,2
0.053,-0.027,1.003,1.649,0.084,-0.802,2
0.035,-0.046,0.993,0.392,0.371,-1.458,2
0.03,-0.064,1.004,-0.9,0.192,1.098,2
0.03,-0.071,0.994,2.836,0.12,-0.491,2
0.042,-0.049,1.016,2.417,0.587,-0.146,2
0.055,-0.074,1.01,-1.494,0.587,1.512,2
0.07,-0.057,0.991,-1.075,1.019,2.479,2
0.078,-0.053,1.002,1.824,0.299,1.409,2
0.089,-0.059,0.988,0.602,1.63,0.925,2
0.094,-0.067,1,-1.214,1.199,0.2,2
0.085,-0.057,0.988,0.532,1.45,0.891,2
0.067,-0.041,0.991,1.405,1.486,0.787,2
0.05,-0.061,1.003,0.008,1.882,0.234,2
0.045,-0.046,1.009,-0.167,1.45,1.858,2
0.051,-0.038,1.01,1.824,3.105,2.03,2
0.064,-0.008,0.969,3.57,2.961,0.372,2
0.058,-0.031,0.968,1.754,2.134,-1.285,2
0.059,-0.092,0.957,0.078,0.695,-1.7,2
0.078,-0.085,0.968,0.043,-1.355,2.272,2
0.097,-0.052,0.996,-0.97,-2.506,3.861,2
0.106,-0.029,1.017,-0.411,-1.283,0.891,2
0.093,-0.038,0.992,-0.621,1.235,-1.458,2
0.083,-0.065,1,-1.983,0.407,-1.804,2
0.063,-0.078,0.998,-2.017,0.299,-0.767,2
0.051,-0.05,0.996,0.986,1.378,-0.007,2
0.04,-0.058,0.981,0.671,0.659,-0.422,2
0.041,-0.035,0.967,-0.446,1.055,-1.216,2
0.043,-0.043,0.964,0.043,-1.319,0.165,2
0.053,-0.038,0.984,0.078,-2.146,0.994,2
0.062,-0.058,1,0.252,-2.902,-0.318,2
0.07,-0.072,1.023,-0.062,-2.002,0.269,2
0.079,-0.066,1.066,1.37,-0.528,0.822,2
0.086,-0.043,1.103,3.29,2.35,-0.836,2
0.077,-0.062,1.062,1.265,5.658,0.925,2
0.069,-0.047,1.019,-0.446,7.385,0.787,2
0.061,-0.032,0.976,1.754,7.637,0.683,2
0.052,-0.043,0.936,2.941,7.457,-1.216,2
0.05,-0.08,0.907,2.068,4.184,-1.769,2
0.056,-0.072,0.915,3.395,1.702,-0.353,2
0.078,-0.088,0.94,4.897,-1.247,1.581,2
0.091,-0.068,0.969,2.313,-0.959,2.307,2
0.089,-0.084,0.95,-0.376,-1.894,1.754,2
0.092,-0.084,0.994,-2.087,-2.434,3.55,2
0.089,-0.051,0.998,-1.773,-1.751,4.517,2
0.077,-0.031,1.028,0.986,-1.211,1.029,2
0.064,-0.033,1.03,1.475,0.659,0.994,2
0.053,-0.056,1,0.392,2.781,-0.215,2
0.052,-0.09,0.999,-1.424,3.141,1.029,2
0.056,-0.077,0.947,-1.773,1.738,3.239,2
0.078,-0.039,0.969,0.811,-0.204,1.72,2
0.08,-0.061,0.982,0.497,-1.787,1.789,2
0.087,-0.065,0.992,-2.576,-0.6,2.099,2
0.076,0.347,1.22,1.475,-8.584,11.218,3
0.1,0.591,1.313,17.852,5.191,-3.116,3
0.13,0.975,1.281,40.83,21.376,-37.76,3
0.179,1.673,1.361,71.385,35.403,-102.799,3
0.083,1.495,1.122,77.67,77.483,-260.131,3
-0.185,0.924,1.019,66.601,99.279,-314.152,3
-0.382,0.642,0.94,90.696,114.996,-381.782,3
-0.48,1.091,0.925,138.432,153.408,-438.324,3
-0.817,0.577,0.441,156.031,170.456,-522.326,3
-0.959,-0.452,0.198,98.204,136.36,-519.494,3
-0.774,-0.786,0.762,57.696,106.472,-445.405,3
-0.713,-0.055,0.407,85.458,124.167,-396.358,3
-0.866,0.041,0.439,52.668,96.078,-421.365,3
-0.904,-1.578,0.529,-33.585,96.725,-375.288,3
-0.696,-1.576,0.651,-8.722,70.11,-257.505,3
-0.434,-0.884,0.818,-14.728,44.538,-165.663,3
-0.329,-0.671,0.947,-22.411,36.05,-151.881,3
-0.321,-0.817,1.005,-17.906,15.477,-118.308,3
-0.286,-1.023,1.224,-15.147,-10.562,-83.768,3
-0.193,-0.696,1.434,-12.982,19.002,-48.709,3
-0.2,-0.965,1.235,-6.173,42.524,-40.281,3
-0.193,-0.709,0.88,13.906,51.695,-6.432,3
-0.219,-0.67,0.598,16.001,18.642,-10.231,3
-0.202,-0.713,0.796,7.69,-19.194,6.97,3
-0.058,-0.645,1.081,-0.097,-26.172,3.55,3
-0.111,-0.826,1.128,-2.611,4.112,5.692,3
-0.176,-0.852,0.976,-3.903,13.751,30.733,3
-0.223,-0.77,0.8,2.836,2.457,57.502,3
-0.206,-0.532,0.832,2.662,-14.842,55.326,3
-0.194,-0.786,0.802,2.068,-20.453,65.308,3
-0.153,-0.882,0.768,7.306,-35.379,85.445,3
-0.136,-0.575,0.801,12.579,-53.758,123.543,3
-0.021,-0.077,1.073,8.563,-53.542,91.973,3
-0.06,-0.7,0.97,-0.83,-38.184,89.383,3
-0.115,-1.011,0.813,-0.132,-37.465,127.792,3
-0.185,-0.996,0.762,-6.173,-47.536,171.002,3
-0.233,-0.503,0.769,-30.058,-55.556,207.027,3
-0.139,0.052,0.84,-40.011,-62.785,207.925,3
-0.043,-0.085,0.916,-34.808,-70.518,173.489,3
-0.013,-0.555,1.081,-22.865,-75.841,171.658,3
-0.096,-0.637,0.969,-29.5,-52.103,199.014,3
-0.059,0.117,1.003,-28.103,-44.155,210.827,3
0.032,0.169,0.949,-30.058,-39.947,154.63,3
0.087,-0.024,0.976,-28.417,-36.278,127.584,3
0.056,-0.591,1.029,-27.125,-28.114,140.641,3
-0.016,-0.574,0.936,-31.211,-14.914,168.826,3
0.015,0.185,0.832,-25.519,-13.62,179.429,3
0.046,0.172,0.779,-23.179,-49.01,137.049,3
0.064,-0.074,0.893,-25.868,-53.218,104.857,3
0.066,-0.329,1.039,-36.728,-40.414,112.283,3
0.06,-0.283,0.994,-43.433,-12.289,127.101,3
0.087,0.246,0.833,-30.443,-13.188,109.14,3
0.126,0.388,0.858,-14.589,-26.999,70.627,3
0.119,-0.077,1.057,-7.919,-31.423,41.51,3
0.125,-0.28,1.141,-17.732,-9.591,50.836,3
0.103,-0.35,1,-38.474,12.276,68.693,3
0.088,0.013,0.886,-38.335,13.679,80.575,3
0.082,0.016,0.815,-21.468,-0.384,54.532,3
0.086,-0.15,0.969,-18.22,-8.62,52.321,3
0.054,-0.271,0.967,-28.766,-4.916,62.96,3
-0.012,-0.535,0.811,-57.226,-3.477,86.205,3
0.037,0.104,0.839,-50.626,-13.368,114.77,3
0.081,0.154,0.859,-25.17,-29.337,94.288,3
0.153,0.135,0.965,-19.198,-39.084,70.938,3
0.172,-0.047,1.022,-22.97,-39.587,63.167,3
0.12,-0.099,1.115,-28.662,-32.861,68.279,3
0.092,0.094,1.122,-27.684,-23.942,67.657,3
0.087,0.292,1.095,-23.808,-17.144,56.224,3
0.083,0.331,1.075,-10.678,-11.282,29.663,3
0.057,0.05,0.985,-4.846,-3.477,10.976,3
0.086,0.083,0.996,4.059,-0.276,17.539,3
0.053,-0.057,0.82,6.678,-0.78,22.409,3
0.079,0.021,0.904,6.433,-1.571,21.684,3
0.061,-0.018,0.963,3.186,-4.772,14.776,3
0.07,0.04,0.992,-4.287,-11.462,9.146,3
0.078,-0.009,1.064,-8.687,-13.008,8.282,3
0.089,-0.053,1.103,-13.611,-9.268,9.284,3
0.069,-0.02,1.089,-12.075,-2.686,8.628,3
0.038,-0.029,1.064,-7.814,-0.672,7.764,3
0.016,-0.085,1.086,-5.195,0.012,6.901,3
0.014,-0.04,1.027,-9.7,4.292,10.424,3
0.021,-0.007,1.036,-12.04,2.529,9.767,3
0.065,0.067,1.057,-10.398,13.139,0.96,3
0.019,-0.085,0.894,-0.411,15.405,-3.876,3
0.052,-0.069,0.929,7.551,1.846,-0.111,3
0.08,-0.019,0.998,10.868,-0.348,5.243,3
0.101,0.042,0.955,11.532,-1.211,3.861,3
0.118,0.118,1.058,6.643,3.249,-1.907,3
0.1,0.037,1.044,4.024,5.551,-8.781,3
0.081,-0.048,0.942,6.049,8.536,-11.268,3
0.07,-0.053,0.962,6.294,2.961,-6.363,3
0.063,-0.012,0.956,6.678,3.464,-2.633,3
0.063,-0.01,0.955,6.294,0.012,-5.396,3
0.049,-0.083,0.981,1.44,-1.93,-1.113,3
0.059,-0.069,0.964,-1.843,-5.347,3.377,3
0.084,-0.051,0.99,-2.96,-5.06,8.11,3
0.086,-0.014,0.996,-1.983,-1.355,8.8,3
0.086,0.011,1.028,-2.227,1.738,6.244,3
0.055,-0.011,0.977,-3.589,5.443,5.208,3
0.047,-0.052,1.041,-2.925,0.012,9.906,3
0.044,0.001,0.993,0.532,0.551,10.458,3
0.057,0.043,1.005,3.779,0.12,5.415,3
0.048,-0.021,0.996,1.405,3.572,0.649,3
0.064,0.023,0.97,0.043,3.213,0.407,3
0.059,-0.105,0.969,-0.83,0.695,8.489,3
0.082,-0.053,0.972,-4.113,0.479,7.73,3
0.095,-0.009,0.973,-0.027,0.12,7.833,3
0.103,-0.003,0.992,1.475,2.386,2.756,3
0.084,-0.02,0.962,-2.96,1.702,0.994,3
0.076,-0.025,1.006,-4.148,0.228,2.998,3
0.068,0.012,0.993,0.287,-0.276,1.271,3
0.064,0.018,1.015,1.23,1.522,-0.077,3
0.05,-0.007,1.003,1.021,3.464,-1.458,3
0.056,0.008,1.011,2.243,3.896,-0.146,3
0.078,0.004,1.011,1.929,7.349,2.479,3
0.085,0.016,0.969,1.998,10.046,1.132,3
0.088,-0.038,0.933,-1.564,5.694,5.692,3
0.097,-0.039,0.961,-2.646,0.048,6.003,3
0.101,-0.036,0.97,-4.078,-0.132,6.452,3
0.095,-0.036,0.984,-1.913,-3.009,5.243,3
0.097,-0.009,1.021,-2.786,-0.78,3.723,3
0.086,0.026,1.028,0.811,0.983,-2.149,3
0.057,0.004,1.002,1.929,2.529,-4.843,3
0.027,-0.055,0.984,-0.341,0.983,-4.394,3
0.035,-0.036,0.997,0.532,-1.966,3.965,3
0.047,-0.01,1.011,6.468,-3.405,4.103,3
0.068,0.001,1.024,2.313,2.098,1.34,3
0.071,-0.002,0.982,0.392,7.816,-1.562,3
0.081,-0.016,0.957,-2.576,4.328,0.372,3
0.097,-0.01,0.965,-2.611,0.192,1.34,3
0.102,-0.017,1.001,-0.83,-1.966,3.343,3
0.115,-0.021,1.004,-0.132,-2.686,2.618,3
0.107,-0.029,1.017,1.195,0.299,1.961,3
0.089,0.034,1.019,0.951,2.601,0.511,3
0.056,-0.014,1.001,3.605,5.335,-2.84,3
0.043,-0.039,0.977,0.916,4.615,-1.838,3
0.038,-0.009,0.985,2.417,2.925,-0.733,3
0.05,-0.036,0.992,3.535,1.702,0.372,3
0.053,-0.017,0.99,4.408,0.335,0.027,3
0.076,-0.006,0.985,1.265,2.421,1.063,3
0.101,0.047,0.976,-0.027,1.846,-0.698,3
0.116,0.034,0.987,1.335,2.997,-3.738,3
0.111,-0.057,0.969,1.754,3.932,-8.194,3
0.13,0.016,0.985,2.697,6.378,-8.953,3
0.133,0.015,1.013,6.328,9.615,-10.439,3
0.11,-0.026,1.01,5.246,7.852,-7.226,3
0.099,-0.042,1.013,3.046,6.989,-6.501,3
0.065,-0.064,1.001,-0.656,5.371,-4.429,3
0.053,-0.031,0.905,0.462,4.292,-1.665,3
0.056,-0.05,0.976,1.335,3.177,-0.077,3
0.061,-0.06,0.957,1.265,0.731,-0.249,3
0.091,-0.034,0.969,1.125,1.99,-0.802,3
0.103,-0.037,0.937,0.636,1.99,-0.975,3
0.124,-0.017,0.961,-1.11,-1.894,1.098,3
0.124,-0.024,0.985,-1.11,-4.592,1.443,3
0.121,-0.012,1.009,1.16,-4.448,0.303,3
0.11,-0.033,1.056,1.998,-1.535,-0.836,3
0.081,-0.08,1.04,-2.297,-0.995,3.377,3
0.083,0.009,1.03,-2.297,1.882,3.896,3
0.066,-0.012,1.022,0.881,4.184,0.338,3
0.056,-0.042,0.984,-0.725,4.651,-0.042,3
0.061,-0.075,0.967,-0.935,2.457,0.96,3
0.083,-0.06,0.973,-0.376,-0.456,5.795,3
0.106,-0.026,0.972,0.741,-0.816,7.695,3
0.123,-0.002,0.991,1.509,-0.564,7.453,3
0.131,0.032,0.977,2.941,-1.607,6.521,3
0.133,0.066,1.009,3.465,-1.067,3.481,3
0.118,0.021,1.024,2.627,1.199,-0.802,3
0.087,-0.039,1.01,-1.319,1.774,0.407,3
0.08,-0.025,1.006,-0.935,-0.528,5.519,3
0.079,0.001,1.007,4.024,-0.564,3.239,3
0.086,0.015,0.999,5.246,1.091,0.683,3
0.086,0.023,0.975,5.909,3.536,-4.394,3
0.077,-0.076,0.969,1.544,2.134,-3.012,3
0.084,-0.067,0.957,-0.516,1.846,1.754,3
0.103,-0.05,0.972,0.322,-0.276,3.757,3
0.112,-0.026,0.986,0.357,0.048,3.861,3
0.129,0.006,1.005,2.313,1.414,1.063,3
0.129,0.01,1.01,3.919,3.86,-3.6,3
0.106,-0.055,1.01,3.186,5.011,-3.98,3
0.089,-0.088,0.981,2.103,3.105,-1.251,3
0.089,-0.054,0.979,2.802,2.35,2.272,3
0.084,-0.053,0.962,2.313,1.091,1.858,3
0.089,0,0.968,1.125,-0.348,2.238,3
0.076,-0.061,0.981,-0.306,-2.758,2.721,3
0.089,-0.021,0.993,-1.179,-1.499,5.07,3
0.097,0.003,0.988,1.579,-0.923,2.721,3
0.109,-0.005,1.019,1.614,0.731,2.307,3
0.108,0.023,1.004,1.265,1.378,0.131,3
0.104,-0.063,1.021,-0.691,-0.168,1.201,3
0.11,-0.025,0.978,1.824,-0.312,1.029,3
0.118,-0.02,0.992,3.081,-1.894,3.101,3
0.116,-0.008,0.99,2.103,0.407,0.2,3
0.106,-0.028,0.983,0.322,1.954,-1.562,3
0.092,-0.042,0.989,-0.83,3.033,-1.32,3
0.078,-0.09,0.976,-1.249,1.414,1.236,3
0.084,-0.065,0.975,-0.97,-0.851,5.795,3
0.093,-0.017,1.002,-0.76,-0.851,7.108,3
0.106,0.011,0.995,-0.516,1.882,3.412,3
0.108,-0.042,0.975,-2.646,2.709,-1.147,3
0.159,0.352,1.109,10.065,22.347,-15.032,4
0.182,0.464,1.122,5.909,38.316,-37.691,4
0.2,0.524,1.158,1.579,68.887,-68.501,4
0.253,0.499,1.15,12.16,111.579,-103.352,4
0.186,0.385,0.716,21.658,125.282,-108.257,4
0.224,0.687,0.536,36.36,74.498,-112.505,4
0.332,1.275,0.892,74.004,28.965,-158.997,4
0.249,1.436,1.188,94.921,43.315,-282.305,4
-0.191,1.078,1.017,82.35,96.006,-408.343,4
-0.57,0.818,0.822,75.89,120.499,-481.43,4
-0.837,0.478,0.541,64.296,104.961,-513.104,4
-1.003,0.885,0.857,68.696,58.637,-572.168,4
-1.16,0.549,1.206,94.153,85.863,-617.105,4
-1.308,-1.102,0.958,68.556,130.749,-597.002,4
-1.115,-1.317,0.548,56.858,135.928,-422.435,4
-0.952,-1.061,0.336,37.058,93.452,-318.504,4
-0.96,-1.823,0.407,-0.795,69.427,-286.658,4
-0.765,-1.891,0.324,-7.989,22.347,-134.162,4
-0.383,-0.78,0.901,-9.875,-38.688,-77.516,4
-0.262,-0.609,1.266,-16.579,-15.454,-84.977,4
-0.255,-0.678,1.223,-11.621,19.613,-61.973,4
-0.432,-1.244,0.949,-14.414,41.229,-40.558,4
-0.464,-1.243,0.695,-10.957,10.945,6.762,4
-0.292,-0.814,0.719,-11.551,-33.94,36.571,4
-0.117,-0.437,1.06,-6.278,-57.606,40.819,4
-0.088,-0.773,1.121,4.443,-46.349,14.05,4
-0.169,-0.93,1.107,15.547,-44.622,36.225,4
-0.269,-1.219,1.091,24.103,-34.552,82.164,4
-0.262,-0.842,0.971,28.957,-24.697,133.422,4
-0.047,-0.088,1.049,16.001,-18.259,119.744,4
0.003,-0.355,0.954,0.113,-5.239,93.666,4
-0.095,-0.806,0.777,-1.005,-17.612,101.472,4
-0.201,-0.907,0.781,4.478,-21.28,141.124,4
-0.085,-0.064,0.868,3.395,-32.394,148.965,4
0.064,-0.193,0.865,-13.262,-28.51,115.115,4
0.089,-0.497,0.924,-14.938,-10.167,87.794,4
0.023,-0.767,0.843,-10.852,4.687,81.266,4
-0.003,-0.852,0.751,-11.795,-0.24,105.375,4
-0.006,-0.417,0.767,-5.789,-9.16,134.562,4
0.055,-0.033,0.848,-4.706,-14.123,120.745,4
0.086,-0.382,0.844,-9.281,-24.337,99.952,4
0.058,-0.654,0.799,-9.875,-25.956,106.48,4
-0.013,-0.833,0.759,-17.208,-24.877,147.583,4
0.057,0.002,0.763,-6.278,-33.437,155.528,4
0.125,-0.028,0.806,-1.249,-48.111,119.778,4
0.137,-0.335,0.952,-0.481,-43.076,93.148,4
0.122,-0.531,0.853,-1.459,-40.45,107.724,4
0.1,-0.716,0.731,-13.227,-38.58,127.239,4
0.019,-0.207,0.757,-12.005,-44.874,149.725,4
0.149,0.179,0.844,-2.856,-58.865,106.964,4
0.129,-0.226,0.924,-4.497,-59.009,80.955,4
0.092,-0.559,0.905,-7.64,-57.319,93.873,4
0.094,-0.662,0.857,-21.363,-52.175,114.39,4
0.078,-0.193,0.905,-15.567,-48.507,121.436,4
0.099,0.017,0.951,-8.932,-51.924,108.864,4
0.096,-0.172,0.943,-11.481,-46.529,81.784,4
0.104,-0.299,1.028,-23.947,-41.026,77.812,4
0.106,-0.424,1.012,-26.287,-32.394,85.687,4
0.072,-0.423,0.933,-25.17,-27.467,99.538,4
0.093,0.043,0.91,-12.913,-37.034,95.013,4
0.094,-0.163,0.957,-11.551,-44.91,75.981,4
0.095,-0.288,0.991,-17.033,-35.415,65.446,4
0.107,-0.28,0.98,-23.249,-30.56,69.453,4
0.078,-0.45,0.939,-30.652,-24.517,85.203,4
0.103,-0.11,0.907,-28.452,-22.827,85.791,4
0.123,0.006,0.921,-25.449,-32.286,67.346,4
0.108,-0.182,0.961,-30.512,-35.991,61.854,4
0.172,-0.14,1.002,-32.293,-27.143,60.542,4
0.143,-0.159,0.936,-29.011,-13.835,51.941,4
0.144,-0.131,0.916,-30.931,-11.569,53.599,4
0.12,-0.016,0.895,-26.531,-5.347,45.551,4
0.129,-0.042,0.962,-30.128,-11.893,41.752,4
0.125,-0.129,1.042,-32.747,-12.325,39.852,4
0.102,-0.186,0.989,-39.487,-9.411,46.242,4
0.119,-0.113,1.025,-48.846,-7.973,53.288,4
0.139,0.085,0.992,-41.861,-4.736,43.41,4
0.136,0.049,0.999,-21.852,-6.606,26.45,4
0.11,-0.1,0.981,-16.824,-9.555,18.23,4
0.088,-0.131,0.977,-17.767,-10.023,21.338,4
0.081,-0.15,0.943,-17.103,-14.303,30.181,4
0.124,0.032,1.049,-12.843,-13.584,32.737,4
0.121,0.046,1.015,-9.49,-8.368,20.82,4
0.107,-0.018,1.006,-12.773,-1.607,11.84,4
0.095,-0.079,0.999,-13.262,-4.664,13.36,4
0.102,-0.037,0.984,-10.608,-5.203,16.296,4
0.107,0.022,1.014,-3.17,-8.44,11.391,4
0.096,-0.011,1.048,-2.262,-5.347,6.659,4
0.075,-0.075,0.987,-7.011,-3.873,7.246,4
0.08,-0.047,1.027,-8.513,-4.412,8.248,4
0.077,-0.024,1.014,-3.379,0.443,8.144,4
0.074,-0.048,1.003,-3.763,-2.902,8.938,4
0.1,0.015,1.045,0.951,1.163,5.45,4
0.074,-0.057,0.973,0.497,-2.47,7.073,4
0.097,-0.01,1.03,-0.586,0.911,2.307,4
0.058,-0.037,0.914,2.732,3.572,-0.767,4
0.084,-0.055,1.03,-5.894,-3.297,8.8,4
0.098,-0.002,1,-2.017,0.335,6.382,4
0.081,0.007,0.95,2.767,0.479,2.099,4
0.083,-0.054,1.014,2.068,-1.715,-0.906,4
0.079,-0.005,0.99,5.805,0.623,-1.182,4
0.065,-0.141,0.972,2.557,-3.549,-0.836,4
0.084,-0.001,1.027,-2.122,0.263,4.966,4
0.062,-0.045,0.992,1.16,0.228,0.303,4
0.082,-0.034,1.039,-1.249,2.314,0.58,4
0.078,-0.015,0.978,2.417,2.709,-1.285,4
0.077,-0.092,1.02,1.754,0.263,-2.045,4
0.076,-0.033,0.977,2.941,1.846,0.027,4
0.073,-0.081,0.969,3.605,-0.276,-1.838,4
0.079,-0.034,0.996,-0.586,2.17,-0.042,4
0.07,-0.1,0.977,-1.668,1.666,1.305,4
0.085,-0.027,0.986,-2.192,1.522,3.101,4
0.094,-0.04,0.992,-1.633,1.163,2.894,4
0.094,-0.03,0.985,-2.541,4.04,0.614,4
0.097,-0.031,0.985,-3.065,4.687,-0.215,4
0.08,-0.105,0.981,-1.389,4.112,-2.218,4
0.082,-0.038,0.993,-0.725,0.407,1.72,4
0.083,-0.049,0.996,-0.83,-0.348,3.999,4
0.079,-0.045,1,-0.621,0.623,2.928,4
0.087,-0.034,1,-2.751,0.911,4.103,4
0.093,0.018,0.975,-1.843,2.493,1.063,4
0.085,-0.028,0.986,-2.402,3.141,0.096,4
0.076,-0.044,0.97,-1.948,3.644,-0.595,4
0.084,-0.053,0.982,-2.017,1.414,-0.215,4
0.102,0.001,0.983,-0.411,0.875,1.098,4
0.089,-0.059,0.984,0.602,3.716,-1.32,4
0.072,-0.044,0.943,-1.319,3.5,-0.733,4
0.1,-0.053,1.008,-2.017,0.012,3.343,4
0.092,-0.021,0.991,-0.691,-0.204,4.655,4
0.088,-0.048,1.031,-0.306,0.731,2.618,4
0.077,-0.049,1.009,0.322,2.206,0.718,4
0.076,-0.075,0.982,-0.9,2.314,1.063,4
0.086,-0.027,0.982,-1.249,0.515,3.205,4
0.092,-0.021,0.964,-0.167,0.479,2.514,4
0.111,0.005,1.014,-0.097,-0.024,0.58,4
0.098,0.007,0.984,-0.656,2.565,-0.284,4
0.098,-0.028,1.01,-0.551,3.177,-1.216,4
0.09,-0.034,0.991,1.509,2.997,-0.249,4
0.086,-0.053,0.975,0.148,1.666,3.239,4
0.097,0,0.997,-0.551,1.019,3.17,4
0.095,-0.014,0.969,0.636,-0.204,1.65,4
0.098,-0.044,1.011,1.963,1.99,-2.633,4
0.079,-0.054,0.953,1.44,1.199,-1.113,4
0.091,-0.052,0.996,0.567,0.371,-0.56,4
0.091,-0.037,0.975,2.348,-0.564,0.027,4
0.095,-0.063,1.012,0.008,-1.715,1.754,4
0.099,-0.022,0.995,-0.167,0.263,1.098,4
0.095,-0.084,0.993,-0.097,-0.923,0.131,4
0.107,-0.015,1.011,-0.306,1.342,0.407,4
0.095,-0.058,1.02,-0.411,0.371,1.443,4
0.092,-0.011,1.004,0.462,2.206,2.272,4
0.079,-0.036,1.013,1.44,0.731,1.305,4
0.087,-0.012,0.988,1.544,2.745,0.925,4
0.093,-0.005,0.993,4.128,4.256,-2.011,4
0.086,-0.074,0.968,2.068,1.738,-1.942,4
0.102,-0.047,0.963,-2.052,0.515,2.894,4
0.114,-0.022,0.967,-0.376,-0.348,3.412,4
0.119,-0.002,0.984,-1.948,0.371,2.065,4
0.109,-0.08,0.998,-8.268,5.838,0.752,4
0.105,-0.068,0.999,-11.097,2.745,0.2,4
0.103,-0.039,1.024,-4.776,2.889,3.101,4
0.096,-0.03,1.023,-2.087,2.098,4.69,4
0.088,-0.019,1.006,-0.341,2.529,2.652,4
0.085,-0.011,1.023,0.252,2.565,2.134,4
0.081,-0.032,0.997,3.186,3.824,-1.182,4
0.085,-0.037,0.982,2.906,3.249,0.131,4
0.096,-0.012,0.961,4.024,2.601,1.271,4
0.109,0.01,0.958,2.173,1.342,2.341,4
0.118,-0.007,0.948,2.522,1.163,-0.629,4
0.117,-0.053,0.968,-1.319,-0.348,1.547,4
0.124,-0.029,0.978,-2.751,-1.93,2.618,4
0.124,-0.013,0.993,-2.576,-3.513,3.032,4
0.118,-0.011,1.043,-1.983,-2.938,2.721,4
0.096,-0.028,1.035,1.125,-1.031,-0.077,4
0.09,-0.037,1.031,1.509,0.407,-0.802,4
0.085,-0.044,1.024,1.09,3.68,-0.836,4
0.078,-0.039,0.983,1.335,4.004,-1.147,4
0.086,-0.018,0.978,1.335,4.615,1.581,4
0.094,-0.001,0.955,1.754,3.572,2.618,4
0.102,-0.024,0.945,0.008,2.134,1.823,4
0.112,-0.004,0.946,1.3,0.048,1.201,4
0.117,-0.045,0.968,2.976,-0.672,-1.216,4
0.123,-0.037,0.983,0.427,-1.355,0.58,4
0.121,-0.063,1.002,-0.132,-2.002,0.649,4
0.124,-0.035,1.026,-0.446,-1.823,2.238,4
0.118,-0.038,1.035,1.021,0.371,0.303,4
0.102,-0.053,1.024,-0.691,0.983,0.545,4
0.083,-0.06,1.005,-0.656,2.529,3.239,4
0.074,-0.056,0.988,0.986,2.062,5.623,4
0.078,-0.044,0.983,-1.11,2.134,8.248,4
0.087,-0.023,0.964,-1.773,3.5,8.938,4
0.099,-0.03,0.95,-0.132,1.091,7.384,4
0.11,-0.033,0.954,-0.76,-0.923,9.975,4
0.115,-0.047,0.949,0.427,-3.189,8.904,4
0.132,-0.013,0.983,-0.935,-4.484,10.873,4
0.142,0.029,1.014,0.567,-2.83,5.657,4
0.132,0.016,1.025,1.09,-1.175,2.928,4
0.107,-0.035,1.051,0.986,2.961,-0.802,4
0.09,-0.014,1.026,0.567,4.759,1.478,4
0.081,-0.067,1.001,0.671,3.5,1.512,4
0.082,-0.038,0.978,-0.83,2.781,3.205,4
0.203,0.26,1.24,1.055,4.543,17.919,5
0.177,0.479,1.294,9.262,11.413,30.526,5
0.224,0.814,1.399,29.271,44.718,16.296,5
0.171,0.938,1.239,54.204,71.908,-18.348,5
0.159,0.894,0.95,72.642,83.741,-68.225,5
0.126,0.737,0.873,72.921,86.619,-119.551,5
0.032,0.577,0.765,69.464,87.59,-165.628,5
0.134,1.476,0.974,90.102,92.193,-224.899,5
-0.191,1.679,0.821,115.07,118.593,-397.843,5
-0.691,1.307,0.721,122.997,119.42,-513.311,5
-1.226,0.522,0.651,112.242,117.873,-614.652,5
-1.344,0.153,0.79,117.445,118.197,-596.415,5
-1.451,-0.076,0.705,132.67,137.619,-602.252,5
-1.384,-0.972,0.546,109.832,141.287,-573.031,5
-1.066,-1.454,0.547,43.693,137.151,-460.292,5
-0.785,-1.245,0.568,9.052,145.136,-341.68,5
-0.732,-1.614,0.292,-4.043,105.285,-249.285,5
-0.648,-0.827,0.294,-10.922,62.881,-191.983,5
-0.679,-1.324,0.347,-17.836,-6.642,-135.993,5
-0.498,-0.98,0.7,-15.217,-44.155,-104.803,5
-0.443,-1.161,0.976,-18.674,-52.247,-56.964,5
-0.37,-0.748,1.06,-11.9,-44.551,-21.664,5
-0.376,-0.853,1.136,-21.398,-22.791,-30.852,5
-0.392,-1.011,0.989,-17.452,-6.462,2.652,5
-0.332,-0.687,1.03,-12.982,-14.267,11.978,5
-0.367,-0.905,0.993,-8.932,-14.411,17.608,5
-0.325,-0.69,1.039,-2.227,-17.828,40.819,5
-0.256,-0.541,1.089,15.408,-18.835,34.947,5
-0.242,-0.642,1.134,11.811,-6.067,32.944,5
-0.251,-0.738,1.058,14.29,8.248,45.448,5
-0.259,-0.805,0.872,16.979,12.168,64.997,5
-0.236,-0.747,0.749,17.608,-7.757,88.347,5
-0.181,-0.381,0.839,14.22,-11.785,88.968,5
-0.184,-0.581,0.849,5.874,-11.677,79.815,5
-0.172,-0.638,0.837,4.233,-9.447,85.929,5
-0.217,-0.802,0.818,1.544,-8.045,96.602,5
-0.239,-0.902,0.746,-2.297,-7.253,128.759,5
-0.21,-0.69,0.718,-7.36,-14.483,153.801,5
-0.149,-0.488,0.749,-12.528,-25.992,163.092,5
-0.111,-0.443,0.759,-19.128,-26.927,159.154,5
-0.102,-0.594,0.762,-24.785,-30.236,154.146,5
-0.119,-0.576,0.748,-25.065,-36.566,167.997,5
-0.091,-0.486,0.802,-26.671,-54.046,186.476,5
0.01,-0.134,0.878,-23.249,-51.888,177.288,5
0.035,-0.278,0.887,-34.214,-44.551,152.592,5
0.025,-0.4,0.856,-44.865,-31.459,142.575,5
0.011,-0.536,0.835,-50.417,-23.151,154.94,5
0.019,-0.332,0.805,-45.912,-23.942,176.563,5
0.07,-0.021,0.81,-33.236,-31.818,150.899,5
0.103,-0.062,0.845,-23.773,-38.256,115.91,5
0.108,-0.357,0.876,-26.497,-48.795,100.09,5
0.101,-0.498,0.942,-32.573,-38.149,113.527,5
0.088,-0.488,0.969,-32.643,-27.61,137.67,5
0.104,-0.122,0.944,-20.735,-26.675,141.366,5
0.129,-0.008,0.9,-11.655,-30.38,117.015,5
0.139,-0.139,0.929,-19.582,-29.301,99.918,5
0.136,-0.291,1.005,-30.128,-20.201,93.977,5
0.131,-0.329,0.923,-42.315,-23.582,108.276,5
0.14,-0.149,0.959,-43.642,-17.792,115.634,5
0.166,-0.01,0.937,-31.595,-16.785,109.002,5
0.201,0.051,0.934,-26.497,-23.079,94.149,5
0.208,0.018,0.973,-22.935,-22.431,72.078,5
0.183,-0.089,1.001,-19.617,-21.64,63.305,5
0.171,-0.192,0.939,-22.376,-20.489,64.583,5
0.151,-0.214,0.903,-25.693,-16.749,67.07,5
0.144,-0.117,0.932,-21.922,-21.64,70.627,5
0.179,0.018,0.994,-16.055,-26.028,70.282,5
0.179,-0.024,0.988,-12.843,-19.374,55.326,5
0.162,-0.078,0.915,-16.125,-20.669,49.385,5
0.162,-0.099,0.946,-20.63,-24.625,51.665,5
0.156,-0.133,0.936,-21.538,-22.287,49.04,5
0.15,-0.066,0.939,-20.525,-22.323,50.87,5
0.167,0.017,0.981,-17.697,-22.359,47.244,5
0.148,-0.014,0.981,-15.601,-17.18,32.15,5
0.129,-0.089,0.987,-22.865,-13.008,33.738,5
0.147,-0.026,1.054,-24.262,-9.735,37.607,5
0.135,-0.058,0.971,-21.887,-6.174,35.051,5
0.139,0.017,0.998,-19.827,-7.901,33.566,5
0.151,0.118,0.996,-15.357,-7.505,25.587,5
0.164,0.06,1.015,-13.436,-3.153,15.398,5
0.156,0.033,1.014,-15.567,8.536,6.866,5
0.159,0.043,1.009,-18.22,15.405,2.272,5
0.139,-0.03,0.953,-18.255,17.959,-0.456,5
0.128,-0.044,0.941,-18.046,8.608,4.345,5
0.132,0.04,0.943,-16.754,-3.873,9.422,5
0.13,-0.004,1.045,-7.011,-6.894,5.139,5
0.137,0.017,1.06,0.113,-4.052,5.726,5
0.074,0.022,1.046,4.128,-2.722,-2.045,5
0.123,-0.011,1.045,2.138,-1.283,-2.253,5
0.116,-0.049,1.018,1.09,0.839,-0.526,5
0.127,-0.017,0.977,1.789,3.393,4.034,5
0.135,0.008,0.978,1.44,2.493,2.479,5
0.128,-0.017,0.987,-0.341,1.199,-1.32,5
0.131,-0.055,1.002,-1.808,2.386,0.062,5
0.138,-0.023,0.976,0.636,3.572,3.792,5
0.131,-0.047,0.954,2.976,1.702,2.479,5
0.133,0.004,0.963,2.627,0.048,3.412,5
0.136,0.008,0.953,1.824,-1.535,3.723,5
0.132,-0.006,0.966,1.824,-1.93,-0.215,5
0.128,-0.056,0.979,2.627,-1.031,-1.355,5
0.127,-0.049,0.97,0.182,2.457,1.305,5
0.125,-0.06,0.904,2.278,-1.427,2.307,5
0.139,-0.028,1.004,-0.76,-1.787,6.97,5
0.15,-0.005,0.995,-0.132,-0.456,6.762,5
0.169,0.096,1.011,0.392,-4.88,5.726,5
0.153,0.052,1.022,0.217,0.587,-4.118,5
0.116,-0.034,0.972,0.322,1.954,-7.814,5
0.117,-0.09,1.004,1.509,1.127,-4.532,5
0.115,-0.038,0.969,5.49,0.659,0.2,5
0.124,-0.041,0.968,5.944,-1.283,2.41,5
0.128,-0.008,0.968,-0.411,1.702,2.825,5
0.13,-0.015,0.961,-0.167,1.307,-0.526,5
0.134,-0.022,0.982,-0.341,-1.823,-1.769,5
0.134,-0.024,0.997,0.881,0.587,-2.045,5
0.121,-0.08,0.975,1.649,-2.11,-0.007,5
0.126,-0.045,0.994,0.462,-1.139,3.827,5
0.123,-0.021,0.969,1.929,-0.24,2.376,5
0.136,-0.036,1.028,-1.598,-1.894,1.927,5
0.132,0.002,0.998,-0.691,0.407,0.338,5
0.128,-0.033,0.98,0.182,0.623,0.476,5
0.115,-0.065,0.977,1.265,-1.175,-1.32,5
0.115,-0.053,0.999,2.557,-0.492,1.65,5
0.119,-0.035,0.999,0.532,-0.42,4.759,5
0.124,-0.015,0.996,-1.459,0.479,4.828,5
0.127,-0.008,0.972,-2.541,1.558,2.479,5
0.124,-0.029,0.976,-1.075,2.026,1.616,5
0.128,0.005,0.984,-0.376,0.479,4.345,5
0.133,0.006,0.995,-0.551,1.091,-0.906,5
0.128,-0.035,0.994,-1.005,2.421,-1.942,5
0.122,-0.027,0.979,-2.751,1.558,0.269,5
0.125,-0.029,0.982,-1.598,0.515,3.239,5
0.138,0.011,0.978,0.846,0.623,3.239,5
0.134,-0.007,0.978,0.252,0.587,1.167,5
0.134,-0.016,0.979,-0.691,0.983,-1.355,5
0.127,-0.047,0.981,-3.205,-1.031,0.303,5
0.131,-0.027,0.986,-3.868,0.839,2.721,5
0.12,-0.036,0.962,-1.843,-1.175,0.338,5
0.124,-0.042,0.965,-0.132,-1.859,2.652,5
0.139,-0.012,0.972,-2.541,-2.722,6.141,5
0.142,0.024,1.015,-2.122,-3.189,2.479,5
0.119,-0.004,1.004,-0.132,-0.564,-0.906,5
0.097,-0.021,0.987,-2.821,-2.973,1.754,5
0.108,-0.026,1.021,-0.306,-5.851,1.754,5
0.116,0.006,1.042,0.357,2.206,2.928,5
0.106,-0.001,1.025,-1.564,5.371,-1.838,5
0.117,-0.006,1.018,-2.611,9.363,-3.254,5
0.138,0.023,0.937,0.986,4.975,-2.771,5
0.116,-0.062,0.971,-1.11,2.098,-4.187,5
0.109,-0.071,0.966,-8.967,-0.348,5.692,5
0.136,-0.015,0.973,-6.557,-3.333,4.932,5
0.145,-0.023,0.968,-1.598,-4.736,-0.733,5
0.153,0.021,0.995,-2.611,-2.398,-0.111,5
0.141,0.027,0.968,3.605,-0.096,-2.84,5
0.117,-0.06,1.013,5.805,-0.384,-4.118,5
0.099,-0.07,0.968,0.846,-1.247,1.72,5
0.105,0.01,1.015,-1.564,-7.038,4.517,5
0.105,0.01,1.006,0.916,-9.34,2.825,5
0.14,0.088,1.029,0.008,-3.837,2.099,5
0.132,0.017,1.02,4.094,-2.11,-4.014,5
0.12,-0.007,0.955,3.535,1.019,-2.702,5
0.116,-0.031,0.935,2.941,-5.024,-0.733,5
0.13,-0.029,0.969,2.976,-10.131,0.614,5
0.138,-0.023,0.985,0.462,-3.837,0.994,5
0.115,-0.024,0.952,1.37,-4.232,-0.906,5
0.126,-0.021,1.017,1.649,-6.246,-0.422,5
0.11,-0.02,0.999,1.998,-3.621,-1.147,5
0.093,-0.012,0.997,-2.122,-6.39,-2.253,5
0.067,-0.035,0.995,-7.814,-8.656,-1.285,5
0.069,-0.012,0.973,-7.675,-10.023,0.338,5
0.072,-0.036,1.006,-1.11,-11.893,-1.596,5
0.095,-0.017,1.024,-1.075,-4.628,0.096,5
0.099,0.043,0.993,0.706,-4.017,-3.22,5
0.093,0.023,0.997,0.148,-9.232,-8.85,5
0.077,-0.035,0.964,-2.437,-17.18,-2.391,5
0.12,0.007,0.989,0.287,-20.417,4.172,5
0.117,-0.031,0.986,4.582,-12.684,-0.042,5
0.124,0.043,1,5.84,-4.017,-1.769,5
0.095,0.076,0.93,4.652,-3.405,-7.503,5
0.053,0.043,0.968,4.513,-14.303,-9.61,5
0.048,0.002,1.018,4.862,-17.971,-6.881,5
0.035,-0.059,1.086,7.376,-17.828,-7.019,5
0.021,-0.075,1.028,2.452,-5.851,-1.665,5
0.024,-0.022,0.991,0.217,-0.096,-0.491,5
0.019,-0.036,0.983,-1.11,-1.751,1.029,5
0.057,-0.021,0.993,-3.973,-8.081,4.932,5
0.067,-0.011,0.969,-1.564,-7.253,3.965,5
0.058,-0.012,0.944,3.814,-6.21,-1.458,5
0.075,-0.008,1.005,0.741,-7.937,1.754,5
0.069,0.002,1.016,1.929,-4.017,0.683,5
0.062,-0.049,1.006,-1.773,-6.174,1.34,5
0.042,-0.057,1.006,-2.96,2.134,-0.146,5
0.01,-0.044,0.971,-0.341,0.263,-0.387,5
0.009,-0.05,0.99,-0.271,-0.851,2.099,5
0.019,-0.001,0.998,-0.097,-1.247,2.721,5
0.033,-0.007,0.982,0.951,0.228,3.412,5
0.034,-0.02,0.945,0.357,-0.564,2.894,5
0.048,-0.003,0.963,1.09,-4.16,-0.733,5
0.061,-0.018,0.991,1.824,-2.65,0.165,5
0.062,0.007,0.983,1.859,-2.434,0.96,5
0.062,-0.026,0.983,-1.179,-5.923,1.271,5
-0.027,0.532,1.106,-7.535,6.701,11.218,6
0.04,1.061,1.241,17.503,15.585,-16.967,6
0.081,1.596,1.326,57.975,33.712,-84.286,6
0.15,2.062,1.448,100.438,88.92,-166.526,6
-0.212,1.793,1.08,124.987,145.064,-278.782,6
-0.398,0.892,0.832,96.213,147.15,-322.51,6
-0.444,0.994,0.639,99.845,130.03,-347.138,6
-0.54,1.105,0.511,150.689,121.758,-406.443,6
-0.734,0.481,0.344,165.285,105.501,-449.481,6
-0.814,1.909,0.543,182.676,100.106,-483.365,6
-1.452,-0.401,0.55,132.635,112.73,-610.231,6
-1.161,-0.638,0.916,31.296,74.354,-448.79,6
-1.373,-1.125,0.319,7.446,133.806,-463.849,6
-1.258,-1.484,0.09,-12.109,102.588,-331.215,6
-1.023,0.057,0.398,27.49,66.981,-273.325,6
-1.8,-1.289,0.161,98.134,135.101,-445.232,6
-1.884,-3.795,-0.907,-86.909,-185.574,-154.472,6
-0.767,-1.074,1.1,-28.731,-246.681,-164.35,6
-0.512,-0.593,2.524,-73.918,-122.058,-17.347,6
-0.68,-1.622,2.08,-71.09,40.33,-40.385,6
-0.703,-1.147,1.113,-91.693,58.205,38.505,6
-0.523,-0.658,1.084,-90.61,-3.261,98.294,6
-0.239,-0.087,1.282,-63.442,-40.954,36.813,6
-0.193,-0.502,1.532,-16.928,-42.429,23.756,6
-0.235,-0.575,1.532,14.989,-3.837,14.223,6
-0.274,-0.763,1.346,20.541,38.028,21.131,6
-0.227,-0.27,1.094,8.459,52.091,52.045,6
-0.093,-0.307,0.982,-10.608,54.932,45.724,6
-0.038,-0.317,0.944,-14.868,33.712,64.617,6
-0.109,-0.297,0.833,-11.9,16.053,68.106,6
-0.153,-0.546,0.812,-12.808,6.198,80.61,6
-0.163,-0.287,0.814,7.341,10.37,74.876,6
-0.118,-0.237,0.852,18.725,-7.577,75.67,6
-0.122,-0.57,0.911,27.874,-20.201,77.57,6
-0.198,-0.911,0.88,19.598,-27.071,107.309,6
-0.306,-1.019,0.89,2.068,-29.337,169.655,6
-0.219,0.127,1.026,-4.008,-27.934,201.812,6
-0.136,0.054,1.05,-10.922,-28.114,155.666,6
-0.047,-0.21,1.177,-17.801,-21.64,139.95,6
-0.024,-0.444,1.134,-11.586,4.867,139.259,6
-0.14,-0.709,0.897,-10.957,10.082,151.521,6
-0.258,-0.684,0.756,-14.484,-2.002,189.101,6
-0.253,-0.147,0.776,-6.173,-37.07,202.537,6
-0.154,-0.004,0.875,-8.373,-50.485,181.882,6
-0.123,-0.433,1.015,-19.932,-46.313,189.55,6
-0.138,-0.529,0.965,-23.947,-24.05,204.437,6
-0.237,-0.349,0.754,-19.373,-24.517,223.192,6
-0.037,0.702,0.847,9.192,-37.106,187.27,6
0.022,0.425,0.865,16.176,-53.614,130.969,6
0.026,-0.151,1.099,3.64,-48.471,100.436,6
-0.007,-0.363,0.974,-19.513,-33.473,116.635,6
-0.015,-0.39,0.79,-39.382,-27.718,131.764,6
0.039,0.236,0.845,-31.281,-28.402,129.346,6
0.039,0.273,0.751,-9.421,-40.558,91.904,6
0.003,0.058,0.726,-11.411,-56.276,72.458,6
0.021,-0.165,0.92,-30.722,-67.785,79.435,6
0.065,-0.077,0.968,-32.573,-53.326,79.677,6
0.038,-0.108,0.902,-27.719,-38.616,73.943,6
-0.018,-0.06,0.976,-35.785,-37.753,70.455,6
-0.051,0.141,0.85,-32.747,-37.645,52.701,6
-0.042,-0.137,1.008,-38.195,-45.522,53.461,6
-0.043,-0.023,1.152,-32.957,-25.632,51.009,6
-0.066,-0.107,1.018,-25.903,-13.26,45.828,6
-0.068,-0.022,0.991,-23.144,-9.16,46.795,6
-0.047,0.101,0.976,-9.316,-14.842,33.428,6
-0.025,-0.027,1.106,-13.401,-15.274,23.238,6
-0.042,-0.003,0.981,-20.316,-8.081,26.278,6
-0.031,-0.038,1.016,-23.144,-8.44,28.661,6
-0.028,-0.031,0.959,-26.427,0.407,27.383,6
-0.025,0.096,0.928,-8.338,2.565,18.506,6
-0.028,-0.005,0.991,-10.119,-2.182,14.154,6
-0.026,0.009,1.033,-17.208,-0.708,15.156,6
-0.037,-0.014,0.997,-12.354,-4.628,16.814,6
-0.043,0.003,1.016,-8.059,-2.11,12.323,6
-0.04,-0.016,0.999,-8.513,1.738,6.106,6
-0.035,-0.047,1.005,-13.401,-3.009,9.975,6
-0.025,-0.053,0.987,-7.046,-1.787,8.386,6
-0.024,-0.004,0.989,-1.948,-1.103,3.999,6
-0.03,-0.021,0.974,-0.167,0.443,2.341,6
-0.013,0.033,0.957,4.024,1.127,-4.947,6
-0.037,-0.126,0.959,-10.119,-2.542,-1.734,6
-0.03,-0.088,0.94,-15.881,-2.146,-1.113,6
-0.025,-0.053,0.969,-10.573,-2.866,-0.353,6
-0.035,-0.048,0.982,-7.221,-3.297,-0.111,6
-0.051,-0.01,0.995,-3.03,-2.11,-1.769,6
-0.088,-0.092,0.963,-1.319,-3.117,-1.424,6
-0.079,-0.001,1.055,-1.424,-5.131,1.581,6
-0.091,-0.035,1.035,-1.214,-6.282,-2.149,6
-0.096,-0.028,1.072,-4.183,-2.65,0.234,6
-0.087,-0.01,1.082,1.335,-3.945,1.063,6
-0.089,-0.034,1.042,3.395,2.745,0.234,6
-0.078,-0.055,1.019,-3.31,5.622,-0.975,6
-0.06,-0.054,0.983,-13.855,7.241,-1.044,6
-0.046,-0.067,0.979,-17.976,8.644,-0.733,6
-0.026,-0.022,0.976,-19.128,11.017,0.545,6
-0.024,0.043,0.938,-14.903,6.558,1.236,6
-0.016,-0.012,0.977,-3.903,0.695,-1.769,6
-0.039,-0.033,0.98,1.509,-0.564,1.305,6
-0.039,-0.021,0.961,2.243,-0.384,3.757,6
-0.038,0.032,0.971,0.357,-3.945,3.516,6
-0.05,0.021,1.032,3.046,-1.103,-1.147,6
-0.064,-0.017,1.019,2.557,1.271,-1.734,6
-0.065,-0.025,1.011,6.049,3.033,-4.843,6
-0.061,-0.07,0.987,-0.586,1.558,-1.389,6
-0.062,-0.062,1.01,-3.24,1.342,0.442,6
-0.066,-0.054,0.98,-2.611,0.695,3.723,6
-0.055,-0.054,0.988,1.405,1.235,2.894,6
-0.05,-0.013,0.972,2.871,-0.096,3.55,6
-0.055,-0.02,0.977,5.281,1.45,1.374,6
-0.058,-0.04,0.993,1.579,2.026,0.856,6
-0.045,-0.03,1.002,-1.703,1.846,2.79,6
-0.052,-0.048,0.991,-2.471,0.983,4.586,6
-0.042,-0.002,1.001,-1.249,1.666,4.897,6
-0.06,-0.009,1.016,0.113,-0.564,1.374,6
-0.056,0.014,1.054,0.567,0.767,-0.249,6
-0.066,-0.048,1.039,-0.237,2.17,0.476,6
-0.044,0,0.975,-1.319,3.536,2.549,6
-0.021,-0.012,0.97,-3.03,3.5,2.238,6
-0.019,-0.019,0.928,-3.379,4.076,1.616,6
-0.024,-0.024,0.945,-2.821,1.235,0.96,6
-0.03,-0.016,0.961,0.497,0.443,0.2,6
-0.04,-0.048,0.998,-0.691,-0.816,1.547,6
-0.044,-0.027,1.01,-0.097,-0.204,3.101,6
-0.049,-0.033,0.981,1.055,1.414,1.65,6
-0.054,-0.031,1.015,-0.865,0.551,1.72,6
-0.057,0.004,1.007,-2.402,3.033,-1.665,6
-0.035,0.013,1.046,-3.763,6.198,-3.565,6
-0.04,-0.022,0.987,-4.427,7.924,-4.912,6
-0.037,-0.01,0.968,-3.798,4.292,-1.458,6
-0.036,-0.005,0.981,-3.065,-0.959,2.169,6
-0.03,0.043,1.007,2.452,-1.894,-1.389,6
-0.043,-0.025,0.997,0.148,1.594,-4.567,6
-0.042,-0.017,0.981,-1.424,-1.067,-5.672,6
-0.026,0.026,1.006,-1.354,-0.492,-5.43,6
-0.022,-0.016,0.99,-1.04,1.199,-8.608,6
-0.024,-0.017,0.975,-1.075,1.666,-8.297,6
-0.033,-0.037,0.966,-0.9,1.163,-7.952,6
-0.057,-0.046,0.967,-5.963,-0.995,-5.707,6
-0.035,-0.008,0.989,-12.109,-3.189,-8.159,6
-0.037,0.024,1.001,-6.348,-1.355,-10.888,6
-0.045,-0.029,1.022,-1.459,-0.168,-14.963,6
-0.037,0.024,1.02,5.141,5.119,-18.452,6
-0.062,-0.053,1.001,-1.564,5.622,-17.485,6
-0.044,-0.026,1.014,-16.614,10.118,-19.039,6
-0.055,-0.035,0.924,-28.906,0.911,-18.072,6
-0.042,-0.03,1.01,-29.884,0.084,-9.264,6
-0.027,0.077,0.991,-15.147,-0.672,-10.888,6
-0.023,0.05,0.997,-10.014,-4.448,-12.131,6
-0.057,0.04,0.965,-3.624,-7.937,-6.397,6
-0.034,0.035,1.03,4.652,-14.303,-1.044,6
-0.046,0.013,1.011,12.265,-6.031,0.822,6
-0.034,0.162,0.915,6.189,-4.988,-4.29,6
-0.033,0.059,0.993,13.487,-9.16,-9.921,6
-0.056,0.028,0.966,4.094,-8.512,-11.993,6
-0.061,-0.045,1.014,-7.989,0.803,-13.133,6
-0.065,0.004,0.969,-17.138,4.723,-3.565,6
-0.052,0.046,0.996,-9.805,3.644,-2.874,6
-0.033,-0.041,0.982,-5.37,2.35,-2.494,6
-0.039,-0.017,0.991,-3.24,5.658,1.063,6
-0.045,-0.008,0.989,-3.31,3.752,6.486,6
-0.044,0.018,0.937,-12.284,9.075,11.46,6
0.008,0.082,0.965,-10.398,5.658,19.128,6
-0.019,0.092,0.976,6.992,3.5,14.879,6
-0.02,-0.013,0.954,7.795,-1.715,16.019,6
-0.046,-0.097,0.921,3.5,0.156,23.687,6
-0.03,-0.161,0.978,-15.741,10.514,37.262,6
-0.033,0.187,0.847,-2.367,2.925,61.405,6
-0.039,0.086,0.972,104.07,-41.385,69.246,6
-0.083,-0.107,1.069,163.4,-70.41,90.177,6
-0.115,0.066,1.234,101.591,-37.321,85.445,6
-0.042,0.28,1.245,-5.16,5.299,41.303,6
-0.121,0.113,1.154,-58.937,30.295,1.409,6
-0.136,-0.068,1.095,-78.004,33.856,-6.052,6
-0.12,-0.019,1.082,-58.204,40.618,-0.111,6
-0.075,-0.133,0.999,-35.017,29.72,21.235,6
-0.059,-0.093,0.82,-17.347,9.075,28.834,6
-0.018,-0.059,0.879,-24.332,6.845,36.985,6
-0.009,0.018,0.883,-30.582,2.17,32.875,6
-0.009,0.107,0.914,-34.389,0.515,25.103,6
-0.007,0.161,0.878,-38.788,-3.009,19.888,6
-0.055,0.114,0.937,-18.5,-11.03,11.805,6
-0.047,0.001,0.966,14.709,-15.993,20.164,6
-0.017,0.128,0.972,27.909,-13.512,23.48,6
-0.047,0.077,0.961,25.395,-6.139,17.608,6
-0.078,0.071,0.877,8.563,-7.11,10.838,6
-0.053,-0.008,0.977,-3.519,-10.454,8.593,6
-0.06,-0.116,0.883,15.233,-11.318,21.546,6
-0.053,-0.152,0.957,15.128,-12.253,41.441,6
-0.001,-0.063,1.071,6.573,3.824,73.771,6
-0.031,0.088,0.949,-6.557,28.677,82.164,6
-0.14,0.124,0.861,-6.557,32.274,69.591,6
-0.11,-0.156,1.002,15.687,-2.146,55.05,6
-0.083,0.036,1.051,24.557,-13.116,61.267,6
-0.066,0.181,1.097,38.35,-13.152,47.658,6
-0.027,0.085,1.026,32.414,-6.678,30.423,6
-0.031,0.163,1.009,15.059,-1.031,18.575,6
-0.06,0.043,0.929,13.173,-2.722,3.688,6
-0.057,-0.047,0.961,6.014,-7.793,1.236,6
-0.06,-0.118,0.98,10.379,-8.62,13.636,6
-0.048,-0.049,1.017,25.779,-0.78,15.95,6
0.016,0.722,1.004,19.878,1.019,-27.294,7
0.104,1.849,1.308,57.207,14.65,-102.938,7
-0.067,2.553,0.795,123.381,60.759,-295.638,7
-0.437,2.153,1.017,152.016,64.967,-431.14,7
-1.059,0.873,0.64,193.606,98.02,-560.01,7
-1.317,1.431,0.697,209.634,149.596,-629.125,7
-1.722,1.42,1.133,195.491,187.073,-681.522,7
-2.178,-0.577,0.595,162.911,263.537,-775.196,7
-1.898,-0.936,0.868,70.686,251.956,-606.501,7
-1.322,-1.497,0.907,92.162,217.536,-529.096,7
-0.961,-2.467,0.494,27.455,169.845,-320.645,7
-0.677,-1.002,0.087,32.204,94.423,-230.046,7
-0.605,-1.298,0.51,7.655,23.534,-164.903,7
-0.561,-1.203,0.774,-12.424,-37.213,-85.08,7
-0.308,-0.679,1.166,-9.211,-70.23,-8.988,7
-0.128,-0.553,1.507,-22.097,-28.941,-11.682,7
0.024,-0.401,1.216,-15.427,6.486,-9.264,7
0.06,-0.539,1.048,-10.748,4.148,-10.37,7
0.001,-0.747,0.867,-0.202,-0.708,-12.166,7
-0.046,-0.53,0.841,8.074,-31.531,14.327,7
-0.007,-0.209,1.283,9.297,-36.494,8.835,7
-0.047,-0.459,1.266,7.586,1.954,12.531,7
-0.077,-0.521,1.06,4.373,23.426,15.328,7
-0.059,-0.469,0.787,4.408,22.311,30.284,7
-0.013,-0.312,0.671,-2.052,9.579,31.701,7
0.016,-0.352,0.752,-2.471,-10.778,26.278,7
0.013,-0.407,0.851,0.497,-14.806,22.547,7
-0.016,-0.507,0.877,0.322,-17.864,28.005,7
0.002,-0.233,0.937,0.078,-20.597,40.681,7
0.05,-0.396,1.03,-5.614,-8.764,28.108,7
0.033,-0.44,0.844,-2.262,-2.47,29.939,7
-0.052,-0.89,0.726,-4.881,-28.833,50.974,7
-0.133,-0.421,0.68,-8.163,-50.053,108.691,7
-0.092,-0.306,0.933,-3.484,-66.454,85.514,7
-0.067,-0.601,1.04,-2.96,-48.795,84.582,7
-0.13,-0.907,0.915,-4.636,-48.075,115.115,7
-0.22,-0.878,0.895,-10.817,-57.786,164.853,7
-0.235,-0.191,0.939,-12.878,-62.714,188.548,7
-0.109,0.346,1.103,-12.459,-59.908,146.582,7
-0.053,-0.383,1.129,-18.011,-46.601,116.946,7
-0.053,-0.72,1.076,-28.487,-26.855,139.604,7
-0.172,-0.885,0.849,-46.646,-11.354,184.714,7
-0.249,-0.567,0.685,-53.769,-20.022,229.306,7
-0.203,0.192,0.689,-36.973,-41.17,227.786,7
-0.119,0.128,0.796,-26.951,-62.498,186.51,7
-0.07,-0.293,0.946,-18.884,-63.757,161.641,7
-0.084,-0.548,0.992,-32.328,-52.463,181.018,7
-0.157,-0.363,0.954,-52.198,-38.364,212.554,7
-0.109,0.378,0.943,-32.677,-38.616,197.632,7
-0.037,0.243,0.954,-15.497,-54.225,139.846,7
-0.016,-0.155,1.107,-15.427,-49.226,124.683,7
-0.032,-0.218,1.057,-24.017,-24.697,127.205,7
-0.095,-0.407,0.927,-33.236,-22.827,147.307,7
-0.108,-0.119,0.942,-37.147,-26.783,168.653,7
-0.012,0.215,0.929,-24.471,-32.034,134.043,7
-0.034,0.031,0.931,-29.116,-42.464,111.938,7
-0.056,-0.124,1.027,-48.287,-37.825,112.387,7
-0.009,0.007,1.056,-52.163,-29.085,115.357,7
-0.009,-0.029,0.99,-47.798,-12.864,106.653,7
-0.004,0.129,0.944,-39.347,-8.332,101.541,7
0.016,0.28,0.979,-23.947,-16.389,75.394,7
-0.005,0.106,0.996,-18.151,-20.417,55.222,7
-0.038,0.013,0.933,-19.408,-26.855,50.387,7
-0.01,0.019,0.903,-24.122,-31.315,50.698,7
-0.019,0.027,0.963,-17.697,-33.077,43.651,7
-0.024,-0.036,1.087,-10.538,-23.079,33.704,7
-0.061,-0.055,0.966,-12.005,-9.34,35.604,7
-0.051,0.091,1.035,-12.598,-8.728,36.536,7
-0.043,0.258,1.057,-13.332,-6.678,22.306,7
-0.049,0.117,1.095,-20.246,-8.081,6.832,7
-0.059,0.075,1.06,-22.236,4.651,-6.605,7
-0.081,0.023,0.989,-15.881,5.838,-6.985,7
-0.063,0.075,0.996,-8.617,2.601,-10.957,7
-0.051,-0.006,0.968,-1.703,1.127,-10.231,7
-0.05,-0.011,0.941,-0.481,2.242,-2.805,7
-0.02,0.053,0.967,2.836,-2.254,-0.836,7
-0.04,-0.013,0.972,0.846,-1.535,-6.536,7
-0.038,0.006,0.972,-4.217,-0.887,-4.67,7
-0.048,-0.063,0.97,0.078,-2.362,-2.46,7
-0.044,-0.073,0.939,0.182,-1.247,4.31,7
-0.025,0.068,1.038,4.373,-3.549,3.827,7
-0.031,0.048,1.032,7.446,3.105,-4.36,7
-0.047,-0.035,0.999,4.617,2.457,-6.156,7
-0.045,-0.015,0.999,-0.271,5.371,-2.702,7
-0.03,0,1.008,0.497,6.989,-3.392,7
-0.042,-0.032,0.939,3.325,7.529,-6.087,7
-0.043,-0.075,0.954,-1.04,2.062,-3.565,7
-0.043,-0.13,0.933,-1.983,-0.995,1.271,7
-0.038,-0.045,0.974,-3.24,-2.146,6.486,7
-0.034,0.012,0.987,0.392,-4.7,5.381,7
-0.035,0.036,1.02,3.151,-2.074,0.511,7
-0.057,-0.077,1.023,0.287,-2.65,-0.007,7
-0.045,0.021,1.068,-2.856,0.371,3.136,7
-0.075,-0.038,1,0.008,1.882,4.655,7
-0.06,0.083,1.009,0.741,4.148,2.169,7
-0.055,0.051,0.976,2.417,2.565,-3.254,7
-0.05,0.08,0.979,-3.624,4.04,-3.427,7
-0.05,-0.033,0.989,-7.116,0.803,-1.942,7
-0.057,0.055,1.019,-4.183,0.192,-1.804,7
-0.071,0.007,0.998,-1.075,2.17,-2.702,7
-0.051,0.013,1.002,2.068,4.076,-2.356,7
-0.04,-0.058,0.983,1.125,2.601,-1.216,7
-0.04,-0.018,0.987,-0.027,1.486,-0.353,7
-0.051,-0.03,1.01,0.078,1.378,1.72,7
-0.032,-0.009,0.994,-0.062,1.954,0.372,7
-0.033,-0.052,0.982,-2.157,2.35,-0.042,7
-0.028,-0.041,0.966,-4.252,2.386,0.752,7
-0.028,-0.104,0.959,-5.195,-0.42,-0.767,7
-0.034,-0.013,0.973,-5.998,-1.499,1.65,7
-0.034,0.004,1.019,-1.144,-0.636,0.752,7
-0.045,-0.038,0.97,2.976,0.983,0.442,7
-0.041,-0.031,0.991,1.579,0.048,2.065,7
-0.043,-0.054,0.994,-0.551,-0.923,4.552,7
-0.036,0.022,1.017,-7.849,-0.492,8.559,7
-0.045,0.09,1.026,-7.116,-1.031,4.794,7
-0.066,0.016,1.054,-6.243,-1.355,-0.526,7
-0.047,0.004,1.005,-6.976,1.846,-0.146,7
-0.031,0.011,0.968,-3.17,2.637,-1.113,7
-0.02,0.022,0.939,-1.319,0.803,-1.113,7
-0.031,0.069,0.887,0.532,-0.923,-3.531,7
-0.01,0.046,0.934,-2.89,-4.7,-4.221,7
-0.033,0.008,0.991,-0.551,-6.93,-5.603,7
-0.041,0.013,1.035,2.627,-4.844,-4.083,7
-0.058,-0.004,1.019,3.954,-4.592,-2.045,7
-0.059,0.041,1.025,2.592,-2.722,-0.284,7
-0.08,0.008,1.035,0.846,0.587,-2.909,7
-0.078,0,1.022,-2.402,0.479,-2.391,7
-0.082,-0.072,0.993,-2.332,0.803,-1.7,7
-0.06,-0.046,1.001,-2.227,-0.096,3.516,7
-0.039,-0.012,0.993,-1.284,-1.139,5.484,7
-0.037,0.022,1.012,0.148,0.695,4.966,7
-0.042,0.036,0.987,0.287,1.055,2.479,7
-0.047,0.036,0.984,1.125,1.594,-1.32,7
-0.049,0.036,0.991,-0.621,1.019,-0.733,7
-0.051,0.01,0.995,0.706,-0.528,-1.458,7
-0.049,0.016,0.963,1.3,0.156,-1.562,7
-0.051,-0.021,0.984,1.09,-1.823,-0.836,7
-0.046,0.015,1.011,1.754,0.228,0.407,7
-0.037,0.047,1.017,3.221,0.479,-0.18,7
-0.039,0.05,0.997,2.557,2.098,-3.047,7
-0.049,0.012,0.989,-1.179,0.947,-2.08,7
-0.045,0.052,0.969,2.487,0.947,-3.151,7
-0.06,-0.004,1.004,3.36,1.63,-4.705,7
-0.06,-0.037,1.011,1.824,2.457,-2.874,7
-0.058,-0.057,1.02,5.351,-0.456,-4.601,7
-0.058,-0.045,1.021,0.776,3.105,-0.871,7
-0.047,-0.007,1.002,-1.284,3.249,0.925,7
-0.038,0.001,0.979,-1.843,3.105,3.481,7
-0.026,0.001,0.974,0.951,2.601,1.512,7
-0.031,0.032,0.969,-0.027,2.709,0.303,7
-0.043,-0.032,0.962,-0.027,-0.024,0.96,7
-0.033,0.038,0.988,-2.681,-2.434,5.035,7
-0.035,0.046,1,-0.656,-2.362,2.203,7
-0.043,0.047,1.028,-0.481,0.443,-0.733,7
-0.055,0.02,1.015,0.951,1.342,-1.976,7
-0.059,-0.005,1.012,1.614,2.098,-1.873,7
-0.061,0.017,1.005,1.754,2.206,-0.111,7
-0.069,0.006,0.995,3.465,2.098,-1.32,7
-0.069,-0.004,1.001,2.313,0.695,-1.113,7
-0.063,-0.039,0.998,-1.494,1.199,-0.387,7
-0.041,-0.032,0.993,-2.925,2.098,2.479,7
-0.023,-0.019,0.989,-1.459,2.493,2.721,7
-0.019,0.016,0.972,0.986,1.594,3.447,7
-0.026,0.09,0.984,1.265,1.594,1.236,7
-0.038,0.041,0.969,0.916,1.702,-3.738,7
-0.044,-0.006,0.974,-0.376,1.378,-5.189,7
-0.059,-0.082,0.984,-1.459,-0.024,0.442,7
-0.051,-0.043,1,-0.516,0.407,6.555,7
-0.037,0.042,0.993,2.243,0.551,5.346,7
-0.035,0.054,1.001,-0.202,1.199,1.305,7
-0.036,0.033,1.003,-1.913,0.947,-2.598,7
-0.036,-0.008,1.008,-1.354,0.551,-1.147,7
-0.038,0.017,0.999,1.23,1.019,1.271,7
-0.044,-0.005,0.998,1.405,1.954,0.891,7
-0.043,0.038,0.981,0.706,2.35,0.372,7
-0.045,0.036,0.992,-0.481,0.803,0.58,7
-0.047,0.047,0.982,1.021,3.393,-2.598,7
-0.045,0.009,0.981,1.16,0.335,-2.425,7
-0.051,-0.025,0.974,1.021,-0.564,-1.182,7
-0.041,-0.025,1.002,1.684,-1.211,2.687,7
-0.035,-0.021,1.001,1.998,0.048,1.927,7
-0.028,0,0.988,-1.878,-0.204,3.274,7
-0.022,0.032,0.996,-0.83,-0.528,2.065,7
-0.031,0.036,1.011,1.998,-0.168,-1.562,7
-0.042,-0.014,1.022,0.811,1.235,-3.565,7
-0.048,-0.016,1.012,1.405,2.242,-2.46,7
-0.055,-0.041,1.002,1.544,1.019,3.032,7
-0.048,0.028,1.008,0.951,2.925,4.345,7
-0.047,0.06,1.007,1.509,2.925,1.512,7
-0.034,0.036,0.977,-1.075,3.572,-1.113,7
-0.029,0.015,0.944,0.182,2.206,-2.46,7
-0.022,-0.056,0.938,0.636,-0.024,0.407,7
-0.012,0.009,0.944,2.068,-1.93,2.618,7
-0.009,0.014,0.991,0.636,-2.686,1.547,7
-0.015,0.05,1.013,1.16,-1.535,-1.285,7
-0.036,0.001,1.025,1.684,-1.93,-2.322,7
-0.061,-0.02,1.024,-0.935,-0.816,-1.355,7
-0.068,-0.006,1.023,-2.786,0.012,1.581,7
-0.065,-0.004,1.03,-0.271,1.199,2.721,7
-0.055,0.02,1.002,0.671,3.069,1.581,7
0.022,0.484,1.19,7.376,7.529,-7.779,8
0.01,0.645,1.1,17.119,19.218,-33.512,8
0.074,1.265,1.265,39.922,29.468,-96.306,8
0.098,2.264,1.325,83.677,60.579,-221.998,8
-0.467,1.421,0.555,107.807,78.274,-370.141,8
-0.358,1.199,1.192,92.372,62.953,-382.783,8
-0.577,1.949,1.09,146.219,107.263,-458.876,8
-1.064,1.484,0.635,198.809,142.834,-603.945,8
-1.292,0.622,0.951,154.774,206.027,-663.838,8
-1.43,-0.827,0.429,127.118,228.074,-635.549,8
-1.321,-0.869,0.106,66.496,176.57,-497.077,8
-1.168,-0.861,0.334,21.763,128.34,-418.394,8
-0.913,-1.825,0.482,-7.325,104.854,-343.096,8
-0.761,-1.983,0.302,-5.3,49.286,-234.743,8
-0.591,-1.02,0.558,-14.798,-22.575,-122.349,8
-0.396,-0.491,1.301,-28.662,-32.682,-93.784,8
-0.33,-0.902,1.469,-36.344,14.398,-93.888,8
-0.203,-0.807,1.45,-22.341,15.621,-48.64,8
-0.175,-0.838,1.167,-15.427,29.936,-25.775,8
-0.107,-0.533,0.871,-17.103,23.965,8.869,8
0.015,-0.329,0.834,-13.646,-3.909,-1.562,8
0.037,-0.563,0.967,-1.144,-19.266,-7.123,8
-0.037,-0.688,1.049,8.528,-30.02,-2.114,8
-0.096,-0.491,1.146,15.966,-28.114,18.886,8
-0.053,-0.435,1.219,6.259,-2.794,23.791,8
-0.038,-0.447,1.061,-5.544,35.187,20.579,8
-0.012,-0.383,0.798,-4.671,36.158,24.931,8
0.007,-0.38,0.711,-3.414,17.815,21.926,8
0.011,-0.345,0.74,-1.11,-2.002,23.204,8
-0.001,-0.351,0.841,3.849,-20.453,25.656,8
-0.011,-0.456,0.929,1.335,-23.079,32.771,8
0.006,-0.359,0.974,-3.868,-12.864,40.992,8
0.007,-0.367,0.939,-4.217,-3.153,40.474,8
0.01,-0.218,1.023,-2.087,-9.879,39.714,8
-0.024,-0.573,1.001,-1.878,-9.268,45.62,8
-0.024,-0.567,0.921,1.929,-0.887,54.843,8
-0.096,-0.788,0.832,5.595,-3.045,76.154,8
-0.135,-0.733,0.815,-0.132,-19.878,116.946,8
-0.107,-0.191,0.94,2.138,-34.156,131.453,8
-0.084,-0.546,0.967,-4.113,-29.876,120.987,8
-0.122,-1.109,0.84,-5.51,-32.322,154.871,8
-0.209,-1.177,0.792,-9.909,-43.328,215.766,8
-0.3,-0.553,0.833,-12.075,-58.541,265.089,8
-0.294,-0.354,0.899,-14.798,-67.821,270.754,8
-0.272,-0.403,0.908,-21.503,-73.108,283.119,8
-0.289,-0.284,0.92,-23.703,-76.417,299.492,8
-0.279,-0.152,0.925,-16.754,-75.733,292.929,8
-0.269,-0.12,1.011,-25.798,-63.793,290.166,8
-0.173,0.266,1.029,-37.811,-44.73,265.953,8
-0.119,0.224,0.944,-46.855,-37.357,231.378,8
-0.033,0.072,0.98,-51.43,-42.68,215.282,8
-0.019,0.08,0.921,-47.204,-41.853,207.027,8
0,0.033,0.917,-33.69,-41.673,188.894,8
-0.024,0.031,0.828,-31.385,-31.423,183.574,8
-0.012,0.239,0.844,-27.858,-36.746,169.275,8
0.037,0.412,0.968,-20.735,-45.306,148.24,8
0.052,0.269,0.977,-23.424,-45.09,123.06,8
0.058,0.247,0.968,-33.446,-44.407,106.066,8
0.049,0.097,0.999,-38.858,-35.811,91.11,8
0.089,0.308,0.969,-43.188,-27.718,86.965,8
0.125,0.599,1.05,-27.16,-24.122,56.397,8
0.126,0.459,1.135,-14.379,-12.72,17.159,8
0.068,0.25,0.982,-10.049,-0.744,-11.268,8
0.006,0.004,0.874,-18.255,-6.318,-7.675,8
0.034,0.042,1.091,-23.458,-16.785,7.868,8
0.023,0.151,0.968,-14.309,-8.117,4.483,8
0.061,0.166,1.04,-6.662,-7.11,-1.631,8
0.056,0.165,1.01,0.776,0.335,-13.824,8
0.035,-0.004,1.044,0.322,0.299,-14.549,8
0.021,0.012,0.955,-8.024,-0.636,-9.61,8
0.043,0.108,1.037,-5.125,-2.398,-12.511,8
0.035,0.022,1.032,0.008,-0.887,-16.138,8
0.003,-0.031,0.974,0.182,2.781,-13.34,8
-0.004,-0.125,1.011,-2.297,-9.915,-0.56,8
-0.002,0.065,1.035,-0.411,-5.599,8.317,8
0.034,0.08,1.032,5.246,-0.204,-2.322,8
0.049,0.09,1.005,3.919,4.759,-9.713,8
0.049,0.015,1.002,6.154,7.241,-17.692,8
0.037,-0.024,0.986,3.325,7.601,-13.444,8
0.035,-0.086,0.988,-0.83,2.242,-6.328,8
0.038,-0.001,0.976,-1.948,2.35,-1.32,8
0.047,0.036,0.991,-1.494,2.853,-1.285,8
0.03,-0.017,0.984,-1.249,3.213,-4.567,8
0.047,-0.005,0.969,-3.694,2.386,-1.907,8
0.046,-0.028,0.954,-0.132,2.278,-5.327,8
0.04,-0.01,0.978,-0.621,0.263,-2.425,8
0.019,-0.075,0.985,-5.195,-2.002,0.96,8
0.03,0.023,1,-7.709,-0.168,5.554,8
0.032,0.09,0.984,-1.424,-0.851,1.65,8
0.039,0.054,1.048,-1.249,-0.096,-0.491,8
0.031,0.039,1.002,-1.319,1.414,-2.494,8
0.038,0.062,1.023,-0.516,1.918,-1.493,8
0.041,0.063,1.006,2.068,3.572,-2.045,8
0.038,0.028,0.996,2.103,1.882,-2.563,8
0.036,0.024,0.979,2.138,0.12,-4.532,8
0.034,-0.011,1.001,1.684,1.918,-1.493,8
0.04,0,0.986,2.802,2.062,-0.94,8
0.037,0.014,0.982,1.16,2.421,0.683,8
0.033,0.005,0.993,-0.027,1.954,-1.907,8
0.037,0.023,0.992,-0.691,3.86,0.234,8
0.029,-0.011,1.005,-0.376,0.551,0.925,8
0.042,0.035,0.985,0.671,2.098,3.274,8
0.051,0.036,0.946,4.408,1.486,-0.456,8
0.065,0.091,0.984,1.405,0.407,-2.736,8
0.045,0.009,0.969,1.649,-0.528,-6.225,8
0.038,-0.016,0.983,1.3,-1.427,-1.734,8
0.048,-0.006,0.993,3.884,-0.959,-1.251,8
0.053,-0.015,0.991,1.021,-0.456,0.718,8
0.053,0.003,1.009,2.173,0.551,-1.355,8
0.044,0.002,1.013,2.103,-0.132,-0.042,8
0.042,0.028,1.018,1.3,1.127,-1.596,8
0.036,0.024,1.023,2.452,3.105,-4.912,8
0.041,0.002,1.031,4.163,6.701,-7.503,8
0.062,0.066,0.991,1.998,16.484,-8.712,8
0.073,0.07,0.995,-1.494,26.771,-13.513,8
0.024,-0.044,0.861,-2.087,21.088,-17.865,8
0.012,-0.148,0.884,-2.122,6.414,-0.491,8
0.038,-0.087,0.939,1.44,-4.52,4.172,8
0.053,0.02,1.022,4.443,-9.124,11.045,8
0.091,0.12,1.087,2.906,-6.246,8.662,8
0.078,0.092,1.021,1.544,4.472,-3.565,8
0.076,0.057,1.001,3.046,5.694,-10.611,8
0.053,-0.061,0.959,3.43,6.198,-12.2,8
0.045,-0.084,0.965,-1.843,3.968,-3.116,8
0.047,-0.01,0.974,-0.9,0.803,3.067,8
0.062,0.047,0.988,0.043,0.335,4.276,8
0.077,0.072,0.993,1.055,1.882,-2.84,8
0.076,0.032,0.982,1.265,2.062,-3.911,8
0.076,-0.012,0.981,2.836,0.587,-1.596,8
0.083,0.052,0.971,5.49,0.228,-2.114,8
0.068,-0.03,0.979,2.348,-0.492,-1.873,8
0.054,-0.006,0.974,0.427,-1.319,0.649,8
0.053,-0.007,0.984,0.636,-2.758,3.55,8
0.059,0.016,1.019,1.3,-1.103,0.822,8
0.071,0.059,1.02,0.602,1.918,-2.218,8
0.062,-0.039,0.996,1.509,2.493,-6.466,8
0.048,-0.045,0.969,4.862,2.493,-6.087,8
0.048,-0.078,0.986,1.684,-0.851,3.757,8
0.069,0.036,1.008,2.313,-0.42,4.414,8
0.068,0.049,0.995,2.452,0.156,2.514,8
0.067,0.017,0.999,1.055,1.055,-0.007,8
0.058,-0.063,0.991,0.427,-1.859,2.583,8
0.069,0.022,0.988,1.509,-1.823,5.726,8
0.072,0.036,1.015,2.906,-0.995,2.963,8
0.073,0.061,1.03,2.627,1.882,0.234,8
0.055,-0.017,0.995,1.684,2.457,-1.769,8
0.051,-0.028,0.976,0.602,2.098,0.752,8
0.057,-0.021,0.97,0.462,-0.312,4.345,8
0.067,0.008,0.987,-0.691,0.947,3.55,8
0.073,0.026,0.97,-1.005,-0.096,-0.491,8
0.068,-0.013,0.968,1.335,0.299,-2.114,8
0.067,-0.004,0.976,1.195,0.192,-0.767,8
0.064,0.037,0.981,0.881,-0.456,1.063,8
0.068,0.059,0.991,0.252,1.235,-1.251,8
0.059,0.005,1.007,-1.598,0.192,-1.942,8
0.049,-0.02,1.017,-1.11,0.695,-2.667,8
0.054,-0.046,1.023,-2.995,-0.564,-0.111,8
0.069,0.013,1.004,-4.497,3.393,-0.284,8
0.072,0.016,1.005,-1.284,2.098,0.96,8
0.075,0.039,0.97,0.811,2.565,-0.629,8
0.077,-0.022,0.968,-2.052,2.421,-2.08,8
0.079,0.008,0.955,-3.24,1.486,-1.044,8
0.067,0.007,0.96,-0.237,-1.103,0.476,8
0.062,0.036,0.969,2.627,-1.966,-1.458,8
0.069,0.012,0.959,3.954,-0.923,-5.845,8
0.071,-0.065,0.955,0.846,-3.693,-4.152,8
0.084,-0.052,0.946,-1.703,-6.031,-1.355,8
0.089,0.006,0.988,-0.621,-5.815,0.752,8
0.073,0.007,0.981,-1.04,-4.124,-1.665,8
0.055,0.033,0.992,-2.576,-3.081,-4.947,8
0.042,0.024,1.025,-2.122,-2.326,-6.259,8
0.022,0.008,1.046,-2.506,-2.182,-4.429,8
0.021,0.02,1.03,-3.833,-0.06,-2.322,8
0.023,0.024,1.006,-3.135,-0.636,-1.976,8
0.031,0.032,1.026,-2.367,0.335,-1.078,8
0.037,0.067,1.019,-0.132,1.271,-2.874,8
0.043,0.021,1.004,1.23,1.954,-5.016,8
0.048,-0.01,0.995,0.951,2.026,-6.19,8
0.062,-0.016,1.017,-2.611,2.781,-3.911,8
0.078,0.014,0.994,-0.481,4.22,-4.118,8
0.081,-0.01,0.978,-2.227,1.522,-0.422,8
0.086,0.054,1.012,-0.027,1.307,-0.18,8
0.079,0.029,0.986,1.335,2.781,-1.7,8
0.079,0.032,0.971,1.544,3.285,-5.258,8
0.075,-0.007,0.949,-1.948,4.328,-7.434,8
0.056,-0.07,0.96,-7.151,1.235,-2.287,8
0.062,-0.019,0.95,-3.868,0.875,-1.044,8
0.071,-0.015,0.959,-2.367,-1.715,-0.111,8
0.077,0.004,0.944,-6.208,-2.218,-0.284,8
0.096,0.128,0.971,-3.31,-3.297,-6.501,8
0.071,0.068,1.019,-0.691,-3.621,-13.789,8
0.051,0.043,1.02,-0.795,-1.894,-13.409,8
0.048,0.058,0.996,2.313,-2.182,-12.684,8
0.043,0.06,0.974,4.163,-4.772,-16.38,8
0.058,0.064,1.089,2.278,-9.555,-20.939,8
0.071,0.043,0.996,4.233,1.091,-30.127,8
0.05,0.026,0.998,-0.551,-0.24,-29.574,8
0.053,0.004,0.987,-2.017,0.299,-21.871,8
0.053,0.038,0.988,1.894,-2.254,-16.587,8
0.041,0.002,1.044,1.37,-4.808,-14.756,8
-0.107,0.407,1.111,-23.668,-11.138,93.735,9
-0.058,0.6,1.144,-12.808,0.767,85.376,9
0.1,1.144,1.167,7.201,12.168,47.347,9
0.333,2.353,1.337,51.026,25.296,-62.387,9
0.149,3.205,0.871,130.225,68.276,-292.357,9
-0.591,2.915,0.566,148.07,101.473,-540.08,9
-1.306,-0.068,1.075,88.635,55.975,-625.636,9
-1.258,0.935,0.952,107.527,108.414,-598.073,9
-1.687,1.338,0.52,155.577,121.074,-691.194,9
-1.796,-1.218,0.474,115.838,156.07,-699.518,9
-1.17,-2.321,0.206,57.172,127.225,-483.088,9
-0.793,-0.624,0.086,85.458,9.183,-347.725,9
-0.636,-1.227,0.638,54.728,-20.597,-289.144,9
-0.494,-1.389,0.754,5.84,5.694,-189.357,9
-0.416,-0.525,0.744,-4.322,-1.499,-187.389,9
-0.419,-1.212,0.924,-22.69,1.486,-131.675,9
-0.361,-0.646,0.75,-28.766,-11.39,-76.652,9
-0.362,-0.544,0.954,-24.751,-42.608,-63.044,9
-0.287,-0.458,1.337,-9.49,-47.428,-56.101,9
-0.239,-0.595,1.489,-19.198,-20.453,-43.459,9
-0.207,-0.46,1.463,-9.455,-0.06,-34.237,9
-0.291,-0.754,1.172,-8.303,22.994,-5.776,9
-0.257,-0.26,1.076,-4.532,13.319,20.786,9
-0.216,-0.409,1.07,-1.11,9.507,15.57,9
-0.17,-0.353,1.025,1.3,9.507,22.029,9
-0.095,-0.34,1.094,2.522,14.47,17.85,9
-0.076,-0.374,1.064,7.586,20.62,19.508,9
-0.098,-0.433,1.056,6.433,22.635,32.702,9
-0.105,-0.421,1.03,2.767,25.044,42.65,9
-0.095,-0.357,1.006,0.602,27.274,51.181,9
-0.116,-0.517,0.908,1.754,26.195,60.438,9
-0.161,-0.773,0.689,7.935,6.665,83.684,9
-0.208,-0.574,0.631,15.757,-31.89,127.584,9
-0.182,-0.227,0.824,23.055,-60.556,128.033,9
-0.179,-0.533,1.055,20.82,-72.748,135.632,9
-0.222,-0.815,1.078,11.846,-66.31,163.265,9
-0.276,-0.878,1.045,-4.636,-53.902,210.93,9
-0.343,-0.445,0.851,-15.567,-50.881,246.438,9
-0.195,0.49,0.979,-12.109,-63.972,230.48,9
-0.068,0.042,1.14,-12.179,-49.73,169.689,9
-0.105,-0.499,1.102,-23.493,-21.208,166.062,9
-0.169,-0.587,0.959,-38.858,-7.541,206.785,9
-0.172,0.193,0.836,-26.322,-7.541,227.751,9
-0.032,0.263,0.783,-18.884,-19.194,175.181,9
-0.012,-0.135,0.901,-21.573,-30.739,144.095,9
-0.029,-0.46,0.939,-24.925,-23.834,155.044,9
-0.089,-0.3,0.911,-26.846,-23.51,181.536,9
-0.035,0.456,0.953,-17.801,-29.013,178.67,9
0.013,0.167,1.031,-18.674,-31.171,122.334,9
0.004,-0.161,1.023,-36.973,-9.735,110.591,9
-0.019,-0.287,0.901,-53.909,-3.945,123.198,9
-0.043,-0.203,0.851,-58.204,-1.139,146.962,9
0.044,0.516,0.848,-35.715,-11.857,137.118,9
0.105,0.477,0.893,-14.868,-33.869,82.717,9
0.044,0.007,1.009,-26.881,-28.653,62.303,9
0.024,-0.115,0.989,-41.058,-25.201,65.274,9
0.037,-0.166,0.956,-48.392,-15.166,73.943,9
0.032,0.007,0.97,-42.63,-6.606,87.829,9
0.052,0.195,0.932,-23.563,-12.181,79.608,9
0.061,0.147,1.022,-16.09,-14.555,62.683,9
0.068,0.06,1.023,-25.624,-12.936,61.716,9
0.084,0.178,1.068,-23.493,-8.548,56.224,9
0.069,0.104,0.977,-22.027,-3.045,51.907,9
0.071,0.239,0.955,-23.249,-4.772,44.722,9
0.064,0.186,0.988,-23.633,-5.887,32.668,9
0.067,0.165,1.04,-29.954,-10.526,30.63,9
0.065,0.233,1.051,-27.195,-3.009,14.707,9
0.052,0.17,1.047,-18.605,1.091,0.027,9
0.032,0.093,1.078,-15.113,1.342,-2.874,9
0.023,0.056,1.013,-8.757,0.947,0.027,9
0.015,0.091,0.981,-7.605,2.745,-1.734,9
0.006,0.086,1.054,-11.83,2.817,-0.698,9
0.004,0.129,1.051,-11.097,4.256,-1.596,9
0,0.04,1.012,-4.951,1.45,-4.463,9
0.019,0.071,0.998,-1.424,0.12,-2.46,9
0.023,0.075,0.961,6.817,-6.462,2.099,9
0.019,0.085,0.97,10.449,-8.117,4.448,9
0.019,0.146,1.05,14.046,-6.103,1.927,9
0.02,0.211,1.026,17.154,-2.578,-5.707,9
-0.018,0.066,0.994,11.497,-2.002,-10.404,9
-0.003,0.018,1.011,7.271,-1.894,-5.638,9
0.008,0.033,1.004,6.887,-4.196,-1.769,9
0.016,0.019,1.005,-1.913,4.184,-5.741,9
0.039,0.091,1.001,-15.811,11.233,-12.235,9
0.041,0.056,0.938,-23.389,12.348,-17.139,9
0.044,-0.031,1,-20.071,6.701,-13.375,9
0.054,-0.003,0.894,-8.757,4.184,-7.192,9
0.048,0.003,0.93,8.005,-8.404,0.752,9
0.04,0.024,0.96,18.551,-12.433,1.927,9
0.031,0.036,0.976,12.37,-10.814,4.759,9
0.035,0.044,0.973,10.414,-7.397,-1.078,9
0.036,0.023,0.997,10.484,-3.765,-3.392,9
0.016,-0.003,0.915,8.738,-4.412,-2.909,9
0.01,-0.061,0.988,6.573,-10.059,1.478,9
0.012,0.035,1.017,7.9,-7.757,4.863,9
0.007,0.048,1.049,9.297,-5.455,1.374,9
-0.006,0.061,1.087,3.255,-0.995,-0.422,9
-0.014,0.016,1.059,0.427,3.393,-0.836,9
-0.009,0.04,0.979,3.744,4.723,-2.943,9
-0.013,0.006,0.99,4.024,0.911,-2.114,9
-0.008,0.015,0.981,3.779,0.479,-0.146,9
0.005,0.06,0.992,3.814,-0.708,0.718,9
0.007,0.017,1.001,3.29,1.271,-2.184,9
0.01,0.006,0.991,2.173,1.702,-1.113,9
0.011,-0.001,0.982,4.513,2.062,-1.044,9
0.012,0.049,0.987,6.049,-0.456,3.205,9
-0.004,0.013,0.982,8.703,-0.24,-0.077,9
-0.007,0.026,0.994,5.7,-1.679,1.409,9
-0.019,-0.045,1.013,4.163,-1.571,1.443,9
-0.01,-0.006,1.019,1.475,0.048,7.868,9
0.006,0.032,1.016,2.348,3.069,6.797,9
0.019,0.101,0.973,3.29,3.896,2.03,9
0.013,0.012,0.953,2.278,3.141,-2.011,9
0.017,-0.025,0.936,-1.459,-1.355,4.655,9
0.03,0.017,0.942,1.859,-4.34,6.762,9
0.028,0.034,0.978,3.081,-4.736,6.97,9
0.038,0.116,1.025,1.44,-1.715,2.238,9
0.032,0.049,1.049,-0.865,1.954,-3.565,9
0.006,0.023,1.029,-0.237,6.378,-5.776,9
-0.002,-0.003,1.021,-0.167,1.199,-2.46,9
-0.011,0.018,1.011,2.627,1.666,-1.562,9
-0.018,0.008,1.007,-0.656,1.271,-3.323,9
-0.004,0.023,1.019,-0.656,4.004,-4.532,9
-0.008,0.032,0.997,0.986,5.838,-7.157,9
-0.005,-0.069,0.997,-4.706,6.845,0.545,9
0.002,-0.043,1.002,-10.678,9.795,5.415,9
0.014,0.008,0.981,-10.713,5.73,9.871,9
0.028,0.041,0.973,-6.103,3.357,9.353,9
0.038,0.069,0.98,-0.062,1.378,3.481,9
0.031,0.064,1.006,5.141,-0.096,-0.733,9
0.021,0.075,1.006,5.455,0.623,-2.08,9
0.009,0.003,0.995,3.011,1.235,-2.184,9
0.01,-0.006,0.979,3.675,2.17,-1.389,9
0.072,-0.021,1,1.894,0.839,2.479,9
0.021,0.034,0.955,2.452,2.17,1.098,9
0.027,0.016,1,0.497,1.199,-0.94,9
0.025,0.017,0.977,1.859,1.055,-1.665,9
0.032,0.032,0.969,1.23,0.407,-1.182,9
0.019,0.01,0.99,-1.284,-0.456,-0.802,9
0.011,0.014,0.993,0.217,0.263,0.269,9
0.013,0.011,0.995,-0.446,0.407,1.616,9
0.012,0.01,0.978,-0.83,1.342,-2.011,9
0.021,-0.008,0.979,-0.586,0.983,-1.113,9
0.027,0.011,0.978,0.741,0.299,0.027,9
0.026,0.031,0.993,2.452,0.228,-1.389,9
0.008,0.007,0.995,-0.132,2.853,-3.254,9
0.002,0.002,1.007,-3.798,3.788,-1.285,9
0,-0.006,0.993,-3.17,5.191,-0.146,9
0.02,0.009,1.024,-2.192,3.716,2.169,9
0.041,0.064,1.005,-1.144,5.874,1.478,9
0.041,0.034,0.968,-0.865,5.299,-1.907,9
0.03,0.04,0.986,-0.795,3.069,-1.873,9
0.021,0.038,0.987,0.567,-0.348,-1.113,9
0.017,0.048,0.988,1.998,0.228,-1.078,9
0.019,0.051,0.97,2.697,0.875,-3.911,9
0.014,0.008,0.988,1.754,0.551,-5.258,9
0.011,-0.038,0.972,0.602,2.278,-4.429,9
0.016,-0.055,0.97,-0.586,2.098,0.58,9
0.034,-0.051,0.998,-2.576,1.954,5.864,9
0.047,-0.005,1.004,-1.354,0.335,6.762,9
0.049,0.019,1,-3.729,1.271,7.246,9
0.034,0.041,0.98,-1.878,0.623,3.792,9
0.025,0.052,1.009,-0.795,1.342,0.891,9
0.013,0.023,0.981,-1.529,2.062,1.927,9
0.011,-0.004,0.99,-1.703,1.342,2.825,9
0.028,0.051,0.978,-2.367,1.702,5.795,9
0.037,0.057,0.983,-0.9,0.371,3.757,9
0.046,0.065,0.991,-1.598,0.479,4.31,9
0.045,0.057,0.997,-1.598,-0.312,3.274,9
0.038,0.037,0.997,-2.611,0.084,1.201,9
0.031,0.069,0.993,0.217,-0.887,0.269,9
0.018,0.047,1.026,0.287,-0.276,-1.147,9
0.014,0.043,1.016,0.602,1.45,-2.045,9
0.006,-0.008,1.018,0.427,3.285,-1.804,9
0.011,0.002,1.017,-1.11,4.508,3.377,9
0.029,0.079,1.011,2.906,5.299,1.892,9
0.028,0.053,0.972,3.046,4.615,-0.284,9
0.03,0.041,0.941,0.357,3.824,-1.32,9
0.032,-0.028,0.938,-1.005,1.163,0.891,9
0.05,-0.001,0.947,1.44,-2.362,0.891,9
0.047,0.003,0.97,3.29,-1.93,1.132,9
0.046,0.03,0.989,0.113,-2.218,1.581,9
0.029,0.045,1.038,0.532,-0.564,-0.077,9
0.013,0.018,1.065,-1.179,-0.06,1.65,9
0.023,0.069,1.04,0.671,4.004,-1.355,9
0.015,0.003,1.022,1.684,2.529,-0.767,9
0.023,0.012,1.009,-1.633,3.393,2.998,9
0.038,0.031,0.958,0.113,2.997,1.754,9
0.051,0.04,0.956,0.008,2.817,0.58,9
0.044,-0.026,0.937,-1.494,0.839,0.545,9
0.047,-0.009,0.935,-0.586,-0.024,1.789,9
0.053,0.028,0.98,0.148,-2.254,3.55,9
0.039,0.052,0.99,-0.516,-2.182,2.203,9
0.024,0.063,1.03,-0.551,-1.319,-0.664,9
0.018,0.073,1.024,2.557,-0.42,-1.804,9
0.011,0.074,1.024,6.678,1.307,-6.363,9
-0.002,0.039,1.041,10.065,2.026,-6.674,9
0.015,0.008,1.005,12.824,4.579,-5.016,9
0.049,0.038,0.96,9.855,5.155,-2.771,9
0.056,0.019,0.949,-0.167,3.285,-1.355,9
-0.039,0.407,1.175,0.392,-5.707,29.49,10
-0.013,0.69,1.34,4.897,14.003,35.016,10
0.047,1.076,1.325,15.862,37.597,15.432,10
0.137,1.481,1.097,29.236,54.573,-37.035,10
0.144,1.921,1.028,45.963,56.011,-125.734,10
0.01,1.342,0.994,42.087,63.996,-207.042,10
-0.143,1.009,0.734,36.185,80.396,-259.509,10
-0.262,1.261,0.616,75.645,69.103,-297.123,10
-0.424,0.893,0.298,124.952,36.805,-354.944,10
-0.507,1.372,0.427,174.015,-7.146,-391.867,10
-0.948,0.764,0.554,201.707,20.441,-513.726,10
-1.23,-0.285,0.556,155.927,80.576,-542.187,10
-1.436,-0.915,0.247,89.089,91.078,-495.799,10
-1.361,-0.315,0.712,59.268,54.645,-425.164,10
-1.524,-1.648,0.881,49.106,92.121,-406.374,10
-1.962,-1.469,-0.307,109.902,261.775,-450.102,10
-0.43,-2.51,-0.056,24.103,-64.224,-152.434,10
-0.637,-0.593,1.696,-57.052,-210.499,-56.999,10
-0.312,-1.123,2.368,-95.08,-65.123,-11.751,10
-0.378,-0.855,1.769,-53.385,94.064,-15.412,10
-0.358,-0.564,1.062,-45.004,111.903,9.595,10
-0.173,-0.378,0.723,-37.601,72.879,6.279,10
0.066,-0.153,0.831,-23.668,15.441,-21.457,10
0.221,-0.157,1.338,0.252,-22.719,-36.758,10
0.164,-0.605,1.396,19.249,18.966,-72.991,10
0.053,-0.714,1.194,2.382,30.367,-34.928,10
-0.01,-0.695,1.067,-5.44,44.502,-2.667,10
-0.011,-0.618,0.848,-16.055,35.762,27.072,10
0.073,-0.131,0.933,-10.224,13.427,35.707,10
0.097,-0.199,0.96,4.443,13.607,-0.94,10
0.055,-0.377,0.939,8.738,11.377,-0.318,10
0.037,-0.488,0.987,3.884,5.874,7.35,10
-0.003,-0.485,0.922,1.579,4.508,25.207,10
-0.014,-0.446,0.921,-1.668,2.997,33.048,10
0.034,-0.185,0.968,-4.392,-2.794,35.396,10
0.078,-0.236,1.053,-1.878,1.019,21.097,10
0.046,-0.416,0.963,3.151,5.119,21.097,10
0.008,-0.467,0.928,7.446,1.45,29.663,10
-0.017,-0.229,0.936,9.297,1.091,35.085,10
-0.026,-0.362,0.899,5.106,-0.204,27.97,10
-0.049,-0.519,0.867,5.281,-4.7,41.683,10
-0.104,-0.68,0.797,6.608,-14.051,61.198,10
-0.18,-0.839,0.82,6.713,-36.53,100.712,10
-0.122,-0.126,1.008,3.116,-48.183,133.007,10
-0.039,-0.066,1.091,-4.043,-35.163,90.592,10
-0.086,-0.416,0.981,-10.782,-25.057,85.203,10
-0.109,-0.748,0.991,-15.008,-26.999,116.635,10
-0.174,-0.551,0.909,-10.992,-19.842,160.674,10
-0.044,0.388,1.031,-4.392,-25.452,150.07,10
0.05,0.294,1.081,-15.043,-13.979,80.437,10
0.03,-0.17,1.046,-17.033,-6.822,63.443,10
0.025,-0.347,0.985,-4.217,-1.355,79.332,10
0.009,-0.426,0.965,-4.776,-0.168,92.595,10
-0.009,-0.14,0.818,-7.186,-0.168,101.368,10
0.011,-0.018,0.805,-7.465,-11.138,83.995,10
0.015,-0.259,0.904,-12.494,-18.799,81.473,10
-0.003,-0.382,0.922,-15.043,-20.669,92.906,10
0.004,-0.248,0.953,-18.64,-14.195,123.025,10
0.044,0.271,0.959,-11.621,-10.383,104.926,10
0.076,0.147,0.976,-9.84,-4.628,62.372,10
0.038,-0.203,0.961,-16.195,2.889,53.91,10
0.046,-0.267,0.93,-12.144,-0.204,66.275,10
0.057,-0.214,0.853,-10.608,-2.794,76.499,10
0.065,-0.055,0.836,-13.855,0.335,73.943,10
0.058,-0.085,0.849,-13.821,-4.16,64.687,10
0.068,-0.166,0.918,-13.646,-10.85,67.312,10
0.118,-0.01,0.978,-3.449,-11.03,69.626,10
0.132,-0.013,0.995,5.735,-12.972,70.248,10
0.119,-0.003,1.072,11.287,-15.382,70.766,10
0.148,0.214,1.061,17.119,-13.044,55.568,10
0.134,0.036,1.049,8.354,-11.426,44.204,10
0.139,-0.086,1.07,-10.992,4.436,44.688,10
0.137,-0.095,0.944,-26.636,22.563,44.929,10
0.141,-0.123,0.855,-35.925,24.217,44.308,10
0.196,-0.056,0.758,-32.503,14.111,48.349,10
0.14,0.002,0.763,-18.325,-8.332,56.88,10
0.147,-0.067,0.776,-8.757,-26.316,50.283,10
0.139,-0.085,0.888,6.468,-34.948,45.068,10
0.12,-0.177,0.962,-1.703,-31.027,52.114,10
0.119,0.046,0.953,-6.767,-24.373,56.397,10
0.136,0.166,0.965,-5.929,-23.798,41.441,10
0.124,0.074,0.981,-6.033,-22.108,24.413,10
0.099,-0.034,0.992,-12.843,-22.144,19.611,10
0.091,-0.092,0.996,-12.563,-20.957,25.242,10
0.115,-0.015,0.962,-10.643,-14.698,28.834,10
0.111,0.11,0.993,-12.075,-6.966,25.518,10
0.103,0.086,1.059,-8.687,-1.715,9.284,10
0.069,0.033,1.072,-5.614,5.694,2.341,10
0.055,-0.133,0.933,-17.557,1.019,9.353,10
0.093,-0.003,1.001,-15.252,-0.636,5.07,10
0.086,-0.049,0.989,-9.525,-3.081,6.244,10
0.062,-0.11,0.966,-2.611,-7.649,9.249,10
0.071,-0.105,0.94,6.154,-13.763,13.878,10
0.088,-0.125,0.998,6.363,-18.943,21.891,10
0.289,-0.17,0.861,-6.033,-18.403,26.623,10
0.03,-0.316,1.174,-38.23,-20.201,38.263,10
0.027,0.255,1.103,-12.354,-22.755,28.868,10
0.019,0.214,1.107,-3.31,-18.187,13.256,10
0.012,0.12,1.065,8.005,-17.036,-0.698,10
-0.027,-0.135,1.073,3.884,-9.591,-1.147,10
-0.023,-0.104,0.982,-1.424,-6.139,6.486,10
0,-0.059,0.956,-5.579,-2.29,9.629,10
0.031,-0.016,0.957,-8.024,-5.131,10.596,10
0.05,0.011,1.016,-0.376,-7.721,9.422,10
0.045,0.05,1.055,5.001,-8.009,7.073,10
0.019,0.028,1.046,2.138,-4.124,5.554,10
-0.01,0.032,1.006,2.662,-3.009,2.445,10
-0.019,0.029,1.003,4.338,-2.902,-1.113,10
-0.027,-0.07,1.053,3.5,-0.78,-3.185,10
-0.015,-0.071,1.024,0.182,3.393,0.856,10
0.004,-0.057,0.99,-0.132,4.759,2.928,10
0.017,-0.006,0.965,0.741,3.177,2.756,10
0.032,0.031,0.977,1.021,2.17,-1.009,10
0.013,-0.056,0.964,1.23,0.263,-3.22,10
0.012,-0.084,0.968,-4.078,1.918,1.167,10
0.012,-0.037,0.988,-2.297,1.199,3.239,10
0.02,-0.024,0.999,-1.878,2.17,5.105,10
0.017,0.025,1.002,2.208,1.307,2.928,10
0.014,0.017,1.021,2.208,1.414,2.618,10
0.009,-0.027,0.99,-1.11,1.81,1.374,10
0.019,0.024,0.98,-1.494,1.019,2.721,10
0.025,0.003,0.992,1.475,-0.168,0.407,10
0.033,0.013,0.995,1.265,0.695,0.822,10
0.029,0.067,0.986,1.859,2.026,-4.912,10
0.015,-0.037,0.989,-0.062,1.846,-7.71,10
0.016,-0.103,0.997,0.567,0.012,-3.185,10
0.017,-0.064,1.012,2.452,0.048,0.649,10
0.017,-0.056,0.982,2.557,0.443,1.996,10
0.01,-0.013,0.986,-0.097,0.192,2.894,10
-0.004,-0.043,0.963,-0.516,0.156,-0.215,10
0.01,-0.04,0.981,-3.589,-0.851,2.41,10
0.02,-0.027,0.983,-1.459,-0.6,0.372,10
0.028,-0.013,1.01,2.068,-2.146,0.096,10
0.038,0.005,1.015,3.5,-1.499,-1.527,10
0.03,-0.016,1.014,3.744,-0.132,-1.389,10
0.011,-0.055,1.014,3.535,-0.708,0.269,10
0.013,-0.033,1.032,3.64,1.127,1.201,10
-0.004,-0.04,1.023,0.357,1.307,1.374,10
0.008,-0.015,1.017,-1.668,1.882,3.101,10
-0.009,-0.032,1.086,0.427,0.731,3.17,10
0,-0.016,1.04,1.929,3.249,5.277,10
0.01,0.012,1.011,4.408,5.982,2.79,10
0.018,-0.009,0.985,4.862,6.234,2.618,10
0.018,-0.014,0.959,3.5,3.788,3.654,10
0.02,-0.044,0.949,5.7,1.738,3.585,10
0.031,0.021,0.981,8.668,0.659,-0.318,10
0.018,-0.058,1.015,7.167,3.213,0.442,10
0.017,-0.055,1.003,4.513,4.543,1.996,10
0.027,-0.046,1.01,2.033,3.357,5.692,10
0.036,-0.007,1.017,2.557,4.184,5.139,10
0.035,0.007,0.996,2.033,6.306,1.443,10
0.023,-0.047,1.016,2.557,5.335,-1.493,10
0.011,-0.043,0.993,4.617,4.759,2.134,10
0.015,-0.077,0.97,5.56,3.788,0.649,10
0.015,-0.082,0.968,4.513,4.436,1.34,10
0.026,-0.06,0.963,3.151,2.35,3.516,10
0.026,-0.08,0.969,3.36,0.911,3.481,10
0.024,-0.079,0.976,-1.11,0.299,7.419,10
0.033,-0.049,0.985,-3.135,0.587,8.835,10
0.042,-0.026,0.975,-0.237,1.666,6.693,10
0.037,-0.085,0.975,1.475,3.5,1.858,10
0.04,-0.075,0.97,0.217,3.824,5.312,10
0.041,-0.047,0.935,3.29,2.386,5.519,10
0.04,-0.025,0.93,0.532,-1.427,8.144,10
0.041,-0.069,0.93,-3.449,-4.232,9.008,10
0.055,-0.025,0.981,-6.383,-4.736,10.976,10
0.06,-0.003,1.01,-3.659,-4.34,7.35,10
0.068,-0.009,1.03,-3.624,-1.823,1.858,10
0.044,-0.04,1.038,-2.821,0.587,-0.18,10
0.024,-0.049,1.021,-1.494,1.414,1.823,10
0.019,-0.011,1.004,0.287,1.235,2.238,10
0.011,-0.019,0.993,-0.76,1.163,2.03,10
0.019,-0.038,0.993,-2.262,1.235,-1.044,10
0.037,-0.096,0.996,-5.125,3.752,0.752,10
0.049,-0.058,0.963,-5.824,1.774,5.588,10
0.031,-0.044,0.98,-2.122,-1.535,4.759,10
0.017,-0.062,0.997,-4.951,-1.067,5.795,10
0.013,-0.023,1.008,-6.313,0.12,6.21,10
0.01,-0.062,0.992,-10.713,0.623,8.766,10
0.025,0.011,0.963,-12.843,-0.204,13.221,10
0.026,0.05,0.966,-6.906,-3.837,12.047,10
0.034,0.068,0.998,2.208,-3.693,4.794,10
0.039,0.043,0.992,4.443,-1.93,-1.044,10
0.037,-0.042,0.995,1.614,-3.549,-1.804,10
0.06,-0.041,1.024,3.535,-1.535,-0.318,10
0.051,-0.042,1.014,-1.04,-2.938,7.073,10
0.049,0.016,1.041,-4.602,-1.823,10.355,10
0.039,0.056,1.022,-3.833,2.098,5.623,10
0.013,-0.036,0.997,-0.271,1.342,0.372,10
0.006,-0.074,0.922,4.827,-0.06,3.965,10
0.017,-0.069,0.959,4.513,-4.376,10.838,10
0.013,-0.089,0.952,8.249,-7.793,13.429,10
0.028,-0.008,0.979,2.487,-7.289,15.847,10
0.022,0.019,0.984,-0.446,-3.189,4.828,10
0.021,-0.029,0.996,-8.024,-0.528,1.443,10
0.021,-0.087,0.994,-9.7,-1.499,5.277,10
0.018,-0.064,0.967,-8.373,-1.823,12.634,10
0.012,0.021,0.987,-1.389,-5.347,15.881,10
0.016,0.11,1.022,5.351,-5.671,13.187,10
-0.021,0.058,0.977,6.852,-3.225,5.208,10
0.091,0.395,1.223,-11.411,0.875,35.189,11
0.076,0.706,1.172,1.335,11.125,23.894,11
0.086,0.829,1.112,18.481,16.197,-0.042,11
0.084,0.875,1.079,43.309,17.06,-36.24,11
0.028,0.721,1.039,53.226,24.972,-71.126,11
0.009,0.553,0.996,43.798,35.223,-95.546,11
0.022,0.665,0.991,54.833,36.158,-96.271,11
0.054,1.182,1.013,69.429,42.452,-148.116,11
-0.088,0.723,0.786,65.064,71.297,-241.928,11
-0.204,1.056,0.81,82.036,59.644,-257.229,11
-0.552,0.928,0.553,115.978,94.531,-398.637,11
-0.939,-0.217,0.282,114.826,97.085,-459.739,11
-1.036,-0.241,0.286,81.512,78.095,-441.053,11
-1.165,-1.206,0.349,36.534,96.078,-477.009,11
-0.969,-1.872,0.33,-19.093,41.877,-324.548,11
-0.64,-0.999,1.06,31.506,-5.203,-195.16,11
-0.457,-0.787,0.898,62.166,18.93,-208.562,11
-0.372,-1.11,1.101,12.474,1.414,-172.744,11
-0.298,-0.703,1.279,17.014,43.279,-158.375,11
-0.357,-1.293,0.973,45.125,50.365,-151.294,11
-0.275,-1.218,0.823,44.566,19.254,-64.598,11
-0.1,-0.389,1.217,34.474,-23.726,-32.51,11
-0.132,-0.935,1.353,11.601,-3.189,-60.937,11
-0.127,-1.033,1.246,7.097,30.259,-15.24,11
-0.122,-1.08,1.001,-1.564,40.042,16.952,11
-0.102,-0.727,0.873,-7.046,22.275,70.973,11
0.019,-0.245,1.077,-19.478,-0.024,72.976,11
0.04,-0.253,0.968,-16.055,19.29,29.248,11
0.014,-0.587,0.866,-7.954,16.233,30.492,11
-0.005,-0.659,0.831,-2.89,6.45,51.043,11
-0.02,-0.654,0.818,-13.646,-10.347,68.693,11
-0.033,-0.412,0.97,-22.725,-21.712,88.278,11
-0.014,-0.387,0.991,-25.239,-7.289,77.19,11
-0.005,-0.519,1.008,-27.335,-6.067,75.843,11
-0.007,-0.653,0.964,-22.306,-0.959,65.619,11
-0.033,-0.638,0.952,-20.944,-1.966,96.153,11
-0.004,-0.23,1.017,-15.986,-0.78,104.408,11
0.005,-0.292,0.919,-16.859,10.226,76.05,11
0.018,-0.45,0.862,-20.386,6.522,77.225,11
0.005,-0.566,0.833,-19.338,-1.355,87.932,11
-0.029,-0.501,0.848,-19.897,-11.677,114.217,11
-0.023,-0.203,0.968,-18.779,-19.302,124.061,11
0.041,-0.12,0.954,-14.519,-11.318,96.049,11
0.049,-0.27,0.947,-26.846,-8.332,83.925,11
0.048,-0.376,0.9,-27.439,-6.462,89.59,11
0.037,-0.416,0.888,-26.531,-13.763,104.201,11
0.034,-0.116,0.963,-12.982,-19.482,132.593,11
0.073,0.202,1.009,-4.567,-12.505,105.997,11
0.089,0.043,0.998,-8.094,-5.851,70.524,11
0.135,-0.074,0.984,-14.274,6.198,58.987,11
0.125,-0.229,0.902,-20.106,13.607,62.683,11
0.117,-0.22,0.809,-19.093,8.823,77.087,11
0.1,-0.231,0.757,-18.186,-2.074,86.689,11
0.097,-0.145,0.782,-18.884,-20.489,101.576,11
0.094,-0.043,0.788,-10.713,-35.739,102.059,11
0.097,-0.077,0.819,-14.728,-41.242,99.572,11
0.083,-0.131,0.848,-25.239,-43.508,102.888,11
0.053,-0.021,0.815,-14.309,-46.96,102.992,11
0.049,-0.147,0.937,-12.319,-50.665,98.743,11
0.023,-0.011,0.946,-21.503,-48.363,110.763,11
-0.004,0.015,1.004,-31.56,-36.242,112.214,11
-0.008,0.015,1.017,-41.373,-24.841,121.402,11
0.005,0.114,1.015,-28.382,-19.662,122.887,11
0.032,0.157,0.97,-31.735,-8.476,110.176,11
0.025,0.133,0.958,-35.995,-4.52,99.849,11
0.062,0.253,0.899,-26.043,-6.786,92.871,11
0.024,0.141,0.961,-7.605,-19.23,75.394,11
0.099,0.226,0.93,-6.976,-13.943,73.874,11
0.104,0.164,0.953,-10.608,-13.763,57.399,11
0.097,0.138,0.949,-16.719,-11.785,52.217,11
0.105,0.175,0.923,-19.128,-14.051,56.639,11
0.138,0.181,0.966,-10.119,-22.287,51.181,11
0.114,0.203,1.023,-8.967,-22.144,42.857,11
0.101,0.165,0.973,-6.348,-19.806,34.084,11
0.091,0.128,0.984,1.195,-25.992,31.666,11
0.082,0.141,1.071,-11.69,-23.115,25.656,11
0.062,0.104,1.041,-25.589,-14.195,16.986,11
0.042,0.139,1.028,-34.214,-13.008,17.021,11
0.053,0.193,1.104,-32.712,-14.231,16.226,11
0.052,0.15,1.087,-25.065,-7.361,3.481,11
0.032,0.05,1.025,-21.259,-4.556,3.412,11
0.042,0.072,0.969,-12.284,-8.908,-0.18,11
0.042,0.016,0.996,-7.849,-13.655,5.277,11
0.268,-0.025,0.953,-12.354,-9.987,8.489,11
-0.046,-0.111,1.107,-39.242,-22.935,-10.37,11
-0.075,0.173,1.201,-38.439,-9.807,23.653,11
-0.061,0.258,1.18,-20.525,5.73,20.786,11
0.003,0.347,1.018,-2.122,1.954,6.693,11
-0.029,0.085,1.046,-5.335,2.817,-6.052,11
-0.013,0.082,1.022,-9.7,8.5,-1.355,11
0.01,0.128,0.905,4.303,10.478,-3.807,11
-0.008,0.016,0.952,3.081,1.954,-0.664,11
0.014,0.097,0.969,2.452,-0.096,6.072,11
0.019,0.15,0.97,5.176,1.882,6.175,11
0.02,0.168,0.974,2.697,1.702,2.549,11
0.012,0.162,0.986,-1.11,3.321,-2.08,11
-0.003,0.128,0.969,-1.773,5.335,-6.501,11
-0.008,0.121,0.969,5.246,1.594,-5.327,11
0.003,0.055,0.977,7.306,3.321,-2.805,11
0.011,0.084,0.956,3.989,0.803,0.269,11
0.033,0.112,0.938,0.532,1.235,-0.215,11
0.02,0.062,0.969,-4.671,-0.348,-0.215,11
0.019,0.116,0.969,-3.729,-1.93,0.891,11
0.024,0.137,0.982,1.579,-4.268,-1.251,11
0.028,0.144,1.021,17.084,-5.095,-3.738,11
0.01,0.076,1.041,15.757,-3.297,-7.123,11
-0.01,0.078,1.048,7.69,0.192,-3.254,11
-0.02,0.075,1.038,1.3,3.896,-3.323,11
-0.025,0.066,0.982,-6.452,6.09,0.407,11
-0.006,0.105,0.969,-8.059,4.759,3.412,11
0.009,0.117,0.962,0.148,2.925,0.269,11
0.015,0.087,0.974,-0.202,1.774,0.234,11
0.021,0.093,0.971,2.941,1.163,-0.387,11
0.025,0.109,0.979,4.687,0.299,-0.042,11
0.01,0.101,0.975,1.579,0.263,0.234,11
0.014,0.127,0.995,1.649,0.623,3.136,11
0.018,0.104,1.002,2.417,0.911,0.372,11
-0.008,0.105,1.017,-1.913,0.228,0.2,11
-0.008,0.145,1.012,-1.249,4.076,3.239,11
-0.006,0.141,1,2.836,3.536,-0.802,11
-0.011,0.135,1.01,3.64,4.508,-1.009,11
0.009,0.114,0.969,5.49,6.234,-3.911,11
0.015,0.109,0.948,7.76,3.752,-3.392,11
0.023,0.067,0.966,6.852,0.515,-4.152,11
0.027,0.086,0.972,3.744,0.12,-2.114,11
0.031,0.091,0.985,2.941,-0.672,0.303,11
0.034,0.089,1.002,-0.341,0.947,0.407,11
0.034,0.112,1.015,-2.856,1.342,-8.712,11
0.023,0.084,1.046,0.113,1.594,-1.078,11
0.013,0.101,1.024,3.884,3.644,-0.595,11
0.01,0.159,0.98,9.262,3.644,-0.318,11
-0.013,0.123,1.005,8.738,2.493,-5.81,11
-0.019,0.06,1.005,8.773,4.148,-4.083,11
-0.004,0.058,0.988,11.951,4.543,-3.634,11
0.02,0.057,0.962,10.24,4.759,-1.044,11
0.038,0.068,0.973,10.24,2.206,1.167,11
0.051,0.084,0.97,5.909,3.321,1.029,11
0.06,0.103,0.972,2.802,3.213,-0.456,11
0.051,0.076,1.002,2.103,2.314,-4.981,11
0.036,0.07,0.986,0.497,3.285,-1.734,11
0.023,0.062,1.022,-0.062,2.17,-4.083,11
0.005,0.057,1.015,-1.424,4.112,-1.527,11
0.009,0.077,1.006,2.313,5.263,-1.7,11
0.014,0.059,0.997,6.084,5.299,-2.736,11
0.019,0.057,0.965,6.922,5.083,-1.631,11
0.036,0.092,0.96,17.189,0.947,-5.016,11
0.037,0.017,0.968,13.382,2.17,-4.187,11
0.042,0.024,0.965,4.408,1.774,-1.493,11
0.052,0.027,0.969,-2.716,1.019,-0.802,11
0.055,0.022,0.975,-7.116,2.206,1.34,11
0.049,0.055,1.001,-8.582,0.407,1.927,11
0.048,0.084,1.015,-7.814,2.853,0.303,11
0.033,0.101,0.981,0.462,-1.031,-3.392,11
0.009,0.047,1.003,0.986,0.623,-5.154,11
0.003,0.051,1.027,3.116,0.731,-2.08,11
0.01,0.052,1.008,5.944,2.745,-0.387,11
0.036,0.061,0.971,5.106,3.86,1.409,11
0.042,0.068,0.963,4.792,2.421,-1.873,11
0.047,0.049,0.95,-1.564,1.486,-0.456,11
0.06,0.083,0.959,-3.694,0.767,-1.389,11
0.045,0.046,0.97,-5.824,-0.887,-1.7,11
0.051,0.054,1.003,-4.357,-1.211,1.616,11
0.042,0.066,1.013,-1.249,-1.93,1.063,11
0.038,0.088,1.031,-1.948,-0.492,2.618,11
0.027,0.119,1.091,0.462,1.271,0.614,11
0.02,0.124,1.09,5.386,1.019,-3.98,11
0.013,0.054,1.022,3.5,4.687,-4.36,11
0.025,0.038,0.969,4.443,5.407,-3.151,11
0.034,0.029,0.956,2.662,2.601,-1.665,11
0.038,0.015,0.951,-0.9,1.091,0.303,11
0.053,0.036,0.95,-5.3,0.335,4.276,11
0.06,0.061,0.977,-5.44,-1.894,3.516,11
0.058,0.059,1.001,-5.16,-0.492,3.308,11
0.056,0.1,1.011,-4.392,-0.42,2.618,11
0.043,0.101,1.023,1.998,1.271,0.2,11
0.035,0.111,1.016,7.481,-0.132,-2.149,11
0.021,0.097,0.989,6.992,1.81,-2.045,11
0.015,0.076,1.011,5.84,0.839,-2.494,11
0.02,0.071,0.979,5.874,0.479,-2.909,11
0.025,0.037,0.984,3.395,1.342,-1.182,11
0.041,0.058,0.967,0.427,1.666,2.79,11
0.042,0.069,0.969,-1.983,0.012,0.511,11
0.046,0.049,0.984,-1.703,0.084,-0.664,11
0.05,0.028,0.997,-0.795,0.551,-0.284,11
0.056,0.03,1.006,1.509,-1.607,2.099,11
0.058,0.065,1.023,0.636,0.192,3.136,11
0.045,0.087,1.039,-0.411,1.342,0.372,11
0.036,0.068,1.014,0.008,3.716,-1.527,11
0.027,0.044,1.002,-2.192,5.263,-1.493,11
0.032,0.034,0.969,-1.668,4.723,-0.871,11
0.036,0.035,0.942,2.522,2.781,0.338,11
0.041,0.029,0.947,3.954,-0.384,1.167,11
0.055,0.068,0.947,1.789,-9.196,3.757,11
0.062,0.077,0.972,-0.202,-1.894,2.238,11
0.065,0.08,0.973,-2.471,-2.218,1.063,11
0.062,0.08,0.996,-3.868,-1.93,0.614,11
0.055,0.074,1.018,-2.611,-1.031,0.511,11
0.043,0.067,1.022,-1.249,-0.168,0.338,11
0.038,0.103,1.021,-2.471,0.371,2.203,11
0.033,0.11,1.026,-1.144,1.594,-0.767,11
0.079,0.561,1.026,5.63,-8.081,25.967,12
-0.004,0.752,1.037,18.516,-14.519,17.815,12
0.01,0.832,1.183,36.046,-22.755,3.757,12
-0.066,0.847,1.231,55.496,-22.827,-21.146,12
-0.067,0.738,1.091,67.998,-26.927,-64.598,12
-0.059,0.616,1.018,75.575,-25.057,-95.995,12
-0.078,0.5,1.071,62.62,-10.275,-117.445,12
-0.125,0.57,1.027,61.887,54.141,-149.602,12
-0.186,0.514,0.837,63.842,54.249,-189.047,12
-0.272,0.571,0.978,78.404,54.321,-230.633,12
-0.401,0.584,0.931,102.988,86.403,-306.691,12
-0.586,0.33,0.734,80.709,111.327,-370.901,12
-0.706,0.292,0.788,71.49,115.931,-415.009,12
-0.911,-0.265,0.723,63.423,149.2,-466.716,12
-0.9,-1.376,0.52,57.556,162.004,-439.049,12
-0.688,-1.576,0.732,35.033,112.622,-291.32,12
-0.587,-1.248,0.957,70.896,140.82,-244.76,12
-0.449,-1.521,0.59,78.09,131.001,-165.456,12
-0.248,-0.837,0.539,58.883,67.089,-99.794,12
-0.036,-0.526,0.838,36.744,4.759,-97.135,12
0.056,-0.831,1.065,-15.217,-30.524,-91.919,12
0.011,-0.896,1.064,-12.04,0.012,-12.131,12
0.063,-0.87,0.887,-8.548,-8.692,23.687,12
0.081,-0.648,0.959,-12.598,-20.957,77.881,12
0.107,-0.396,0.94,-16.719,-16.533,106.135,12
0.197,-0.164,1.033,-21.398,-28.689,96.464,12
0.267,-0.042,1.14,-6.802,-16.065,49.005,12
0.239,-0.41,1.082,1.614,-1.139,11.598,12
0.235,-0.384,1.022,10.554,15.154,21.787,12
0.217,-0.353,0.893,8.843,16.484,21.891,12
0.211,-0.273,0.821,5.944,5.299,19.473,12
0.18,-0.325,0.851,-5.824,-8.62,12.98,12
0.175,-0.268,0.968,-4.287,-6.534,22.202,12
0.168,-0.346,0.96,-5.929,-1.607,21.166,12
0.155,-0.364,0.937,-4.916,1.558,30.872,12
0.151,-0.354,0.888,-6.697,2.961,40.163,12
0.171,-0.252,0.862,-5.544,-1.823,42.201,12
0.177,-0.283,0.849,-3.519,-10.347,31.182,12
0.191,-0.257,0.901,-5.16,-16.856,36.329,12
0.21,-0.175,0.944,-5.719,-15.813,30.181,12
0.201,-0.264,0.944,-8.478,-11.102,24.274,12
0.204,-0.255,0.937,-10.049,-5.527,25.345,12
0.185,-0.303,0.891,-9.525,-6.174,23.929,12
0.171,-0.333,0.896,-11.69,-12.469,34.326,12
0.175,-0.215,0.95,-10.817,-16.641,44.584,12
0.154,-0.222,0.972,-11.795,-12.073,32.08,12
0.155,-0.333,0.969,-13.855,-13.08,31.39,12
0.133,-0.382,0.973,-13.122,-12.289,39.058,12
0.119,-0.391,0.953,-12.598,-13.044,47.658,12
0.121,-0.293,0.953,-10.643,-17.684,54.117,12
0.112,-0.306,0.977,-10.573,-21.748,53.979,12
0.12,-0.267,1.026,-11.9,-22,59.989,12
0.126,-0.288,1.024,-12.109,-17.864,63.167,12
0.133,-0.291,0.997,-12.528,-16.353,68.313,12
0.142,-0.207,1,-7.256,-13.979,54.117,12
0.133,-0.232,1.002,-4.811,-9.483,54.152,12
0.143,-0.132,1.019,-4.287,-4.88,49.489,12
0.165,-0.155,0.967,-4.357,2.278,40.232,12
0.169,-0.206,0.909,-4.357,1.99,36.743,12
0.157,-0.21,0.912,-1.773,-5.131,40.612,12
0.144,-0.222,0.937,-1.808,-8.728,40.819,12
0.133,-0.252,0.928,-3.519,-8.908,45.966,12
0.133,-0.203,0.935,-6.208,-10.814,51.216,12
0.134,-0.187,0.952,-13.262,-10.562,53.703,12
0.143,-0.154,0.979,-17.522,-10.131,56.017,12
0.169,0.013,1.005,-12.075,-5.923,55.084,12
0.168,-0.013,0.965,-7.954,-2.542,33.497,12
0.155,-0.148,0.963,-11.062,-2.182,27.521,12
0.154,-0.184,0.952,-13.611,-0.096,35.776,12
0.164,-0.102,0.938,-6.417,-3.585,42.27,12
0.173,-0.076,0.987,-4.217,-7.289,39.058,12
0.194,0.015,1.012,-5.859,-1.139,42.339,12
0.206,0.03,0.968,-12.808,6.306,28.419,12
0.215,-0.08,0.947,-18.186,8.859,23.48,12
0.226,-0.068,0.893,-17.208,9.327,31.562,12
0.228,-0.017,0.886,-16.195,2.745,33.324,12
0.21,0.003,0.893,-15.811,-2.506,31.321,12
0.208,0.03,0.948,-9.805,-7.685,27.279,12
0.193,-0.015,0.986,-16.44,-3.441,22.271,12
0.192,-0.035,0.985,-23.284,2.242,22.962,12
0.193,-0.013,0.968,-25.239,4.579,30.008,12
0.197,0.015,0.964,-23.458,4.148,30.664,12
0.204,0.063,0.958,-21.049,3.429,31.252,12
0.2,0.098,0.966,-21.887,2.098,23.756,12
0.189,0.044,0.969,-22.655,2.278,19.404,12
0.193,0.017,0.982,-24.785,4.4,19.991,12
0.199,0.022,0.955,-22.341,7.673,21.442,12
0.186,0.022,0.931,-12.284,0.012,18.541,12
0.187,0.028,0.962,-7.36,-2.973,26.416,12
0.196,0.092,0.985,-10.433,-2.362,25.76,12
0.198,0.058,0.986,-16.754,2.134,21.269,12
0.197,0.053,0.967,-19.024,3.68,23.411,12
0.201,0.08,0.957,-19.862,4.436,24.102,12
0.2,0.063,0.948,-18.674,0.767,20.337,12
0.2,0.082,0.972,-16.719,-2.038,23.549,12
0.197,0.104,1.001,-9.875,-3.297,19.577,12
0.19,0.092,0.999,-11.446,-0.024,20.199,12
0.183,0.097,0.988,-11.236,2.026,19.715,12
0.185,0.08,0.986,-14.135,4.292,20.302,12
0.183,0.076,0.96,-17.801,5.443,21.304,12
0.191,0.097,0.961,-20.316,6.378,23.998,12
0.196,0.11,0.943,-18.744,4.148,22.824,12
0.197,0.118,0.954,-12.843,2.961,23.031,12
0.204,0.125,0.939,-13.332,5.551,23.273,12
0.205,0.121,0.912,-18.64,7.78,24.62,12
0.206,0.148,0.891,-23.633,5.73,26.485,12
0.2,0.205,0.891,-12.773,-2.29,21.684,12
0.177,0.142,0.949,-11.865,-4.988,15.328,12
0.17,0.104,0.959,-12.948,-6.822,17.643,12
0.163,0.087,0.982,-17.697,-4.7,25.691,12
0.163,0.108,0.964,-22.446,-3.333,31.666,12
0.172,0.168,0.972,-19.233,-4.808,36.26,12
0.177,0.249,0.989,-14.03,-5.275,33.911,12
0.166,0.254,0.999,-8.652,-6.174,22.996,12
0.154,0.171,1.003,-7.151,-4.088,22.133,12
0.115,0.156,1.016,-7.221,-1.535,25,12
0.155,0.194,0.983,-15.357,4.903,29.732,12
0.145,0.162,0.966,-20.77,4.256,31.252,12
0.19,0.275,0.966,-10.887,2.386,36.571,12
0.182,0.264,0.977,-7.151,1.199,23.376,12
0.188,0.217,0.966,-2.262,-0.06,23.618,12
0.203,0.242,0.942,-2.786,1.378,24.758,12
0.214,0.237,0.935,-6.452,1.378,23.653,12
0.247,0.327,0.873,0.148,-1.751,21.615,12
0.207,0.346,0.878,3.779,-13.655,7.971,12
0.152,0.277,0.936,0.636,-16.821,-0.629,12
0.111,0.209,1.02,8.494,-21.065,-1.285,12
0.095,0.196,1.076,1.998,-10.239,1.996,12
0.099,0.208,1.044,4.652,-5.347,2.238,12
0.112,0.186,1.055,5.909,-1.319,2.825,12
0.126,0.179,1.009,5.49,4.22,2.238,12
0.137,0.162,0.963,1.09,8.176,6.21,12
0.158,0.218,0.932,5.84,5.91,8.386,12
0.154,0.233,0.933,11.427,3.5,4.552,12
0.15,0.198,0.945,4.443,3.321,3.032,12
0.146,0.21,0.964,-1.144,1.594,3.516,12
0.138,0.206,0.973,-4.392,3.213,2.272,12
0.135,0.168,0.965,-5.51,4.112,1.65,12
0.152,0.184,0.907,1.754,3.572,3.308,12
0.138,0.184,0.93,0.671,-0.24,3.896,12
0.139,0.226,0.953,1.021,-2.29,5.381,12
0.145,0.224,1.001,-0.167,-0.42,2.272,12
0.145,0.232,0.969,-1.214,2.529,1.063,12
0.141,0.224,0.974,2.697,0.084,-3.116,12
0.13,0.166,0.966,0.776,2.098,-1.285,12
0.14,0.186,0.962,-0.795,1.414,1.443,12
0.146,0.214,0.936,1.754,1.163,1.789,12
0.138,0.202,0.968,0.706,-0.672,1.927,12
0.147,0.234,0.969,2.068,0.587,1.029,12
0.149,0.205,0.959,2.662,0.983,-0.733,12
0.153,0.214,0.922,4.268,0.335,-0.146,12
0.146,0.22,0.947,6.643,-2.29,-1.009,12
0.134,0.206,0.991,6.084,-3.621,-3.012,12
0.134,0.22,0.986,3.605,0.192,-0.595,12
0.147,0.216,0.964,3.255,0.803,-1.873,12
0.145,0.169,0.97,2.243,1.307,-2.702,12
0.145,0.196,0.953,3.64,-0.312,-9.022,12
0.131,0.204,0.976,0.602,-0.42,-0.767,12
0.136,0.197,0.968,2.103,0.983,0.407,12
0.137,0.176,0.982,1.579,0.515,-1.182,12
0.142,0.163,0.953,2.802,1.414,0.372,12
0.147,0.187,0.968,4.268,0.156,1.581,12
0.136,0.196,0.964,2.976,0.012,1.029,12
0.138,0.193,0.973,3.814,-0.492,-0.595,12
0.144,0.176,0.974,-0.062,1.271,0.407,12
0.135,0.171,0.957,1.405,2.026,0.027,12
0.137,0.149,0.967,0.602,0.983,3.067,12
0.145,0.2,0.95,2.068,-0.204,5.692,12
0.159,0.236,0.969,5.246,-1.894,0.649,12
0.147,0.204,0.973,8.144,-0.348,-3.323,12
0.128,0.155,0.984,6.678,-0.636,-6.639,12
0.112,0.124,0.977,2.941,0.767,0.407,12
0.124,0.154,0.985,-0.097,2.386,4.448,12
0.132,0.177,0.963,3.465,1.163,4.345,12
0.135,0.137,0.981,0.357,1.774,5.623,12
0.151,0.187,0.964,-0.83,2.134,9.94,12
0.153,0.244,0.961,1.475,1.81,7.626,12
0.146,0.213,0.969,1.789,-0.636,1.996,12
0.14,0.137,0.995,0.252,1.342,3.896,12
0.147,0.165,0.961,-0.237,3.86,9.664,12
0.155,0.175,0.957,-3.694,3.285,10.113,12
0.166,0.202,0.937,-8.268,4.22,11.529,12
0.16,0.193,0.925,-10.363,2.889,8.006,12
0.144,0.165,0.932,-6.662,-1.535,8.075,12
0.121,0.163,0.943,-4.671,-3.873,13.014,12
0.108,0.153,0.975,-4.183,-5.131,16.71,12
0.1,0.137,0.999,-8.932,-2.938,21.787,12
0.099,0.135,0.977,-11.097,-0.312,25.863,12
0.087,0.119,0.961,-12.354,0.803,33.013,12
0.102,0.205,0.982,-10.224,-1.93,39.748,12
0.126,0.253,0.994,-8.198,0.335,36.156,12
0.124,0.287,0.972,-3.868,-1.93,28.281,12
0.126,0.242,0.998,-3.31,0.012,25.138,12
0.151,0.263,0.996,-5.195,4.22,26.14,12
0.161,0.238,1.009,-15.322,6.845,27.038,12
0.145,0.319,0.979,-14.449,10.514,26.796,12
0.133,0.284,0.976,-14.694,8.967,19.819,12
0.127,0.326,0.991,-6.208,10.514,17.194,12
0.129,0.262,0.979,-0.202,12.456,5.243,12
0.139,0.249,0.918,8.843,13.211,5.968,12
0.029,0.706,0.896,20.89,-5.095,-16.38,13
0.013,0.831,0.855,39.014,-4.52,-29.436,13
0.017,0.895,0.764,49.071,-11.677,-47.569,13
0.045,1.034,0.869,61.363,-21.964,-71.091,13
-0.052,1.031,0.784,66.042,-6.858,-117.099,13
-0.154,0.857,0.646,58.814,-12.792,-170.36,13
-0.267,0.656,0.737,54.833,-33.293,-198.511,13
-0.299,0.56,0.848,86.785,-36.71,-211.291,13
-0.294,0.397,0.927,118.422,-27.503,-214.952,13
-0.229,0.407,0.969,126.245,-15.31,-204.106,13
-0.219,0.644,0.931,124.848,17.06,-216.886,13
-0.373,0.642,0.736,134.102,32.202,-254.362,13
-0.529,0.437,0.583,140.667,7.025,-293.807,13
-0.583,0.095,0.814,141.714,-17.18,-320.749,13
-0.537,0.046,0.966,134.695,16.952,-317.709,13
-0.594,0.337,0.907,153.727,59.248,-335.29,13
-0.772,-0.096,0.65,167.939,90.251,-387.066,13
-0.812,-0.653,0.462,119.435,84.748,-370.314,13
-0.57,-0.249,1.119,81.407,45.617,-292.288,13
-0.54,-0.258,1.147,72.921,127.153,-323.27,13
-0.636,-0.893,0.631,78.509,155.926,-322.821,13
-0.593,-0.76,0.658,86.191,116.327,-250.183,13
-0.496,-0.52,0.755,91.604,99.998,-275.881,13
-0.444,-1.109,0.807,57.556,76.476,-281.131,13
-0.29,-1.055,0.912,24.976,83.094,-197.336,13
-0.266,-1.28,0.536,-3.344,36.086,-155.577,13
-0.14,-1.09,0.871,-16.684,-19.734,-52.889,13
-0.026,-0.729,1.093,-19.827,-35.415,-8.401,13
0.041,-0.724,1.234,-26.811,-19.95,-21.526,13
0.011,-0.967,1.127,-7.465,5.443,-15.136,13
-0.007,-0.945,0.883,4.548,4.759,20.406,13
0.061,-0.661,0.893,7.097,-12.109,61.06,13
0.158,-0.248,1.055,11.986,-12.469,35.949,13
0.126,-0.589,1.001,14.22,0.12,-7.641,13
0.103,-0.724,0.93,16.63,6.701,4.863,13
0.047,-0.739,0.908,8.04,0.767,23.307,13
0.01,-0.775,0.848,0.916,-0.024,43.306,13
0.035,-0.499,0.968,-2.157,-8.872,75.36,13
0.048,-0.34,0.991,1.23,-1.93,54.877,13
0.027,-0.544,0.927,2.557,2.529,32.806,13
0,-0.657,0.908,3.255,-1.894,44.377,13
-0.018,-0.652,0.845,2.068,-3.333,65.481,13
-0.018,-0.56,0.884,0.811,-13.332,84.685,13
-0.031,-0.516,0.896,-1.214,-16.497,92.595,13
-0.017,-0.467,0.906,-4.776,-16.101,92.802,13
-0.01,-0.584,0.853,-12.528,-15.454,93.424,13
0.002,-0.601,0.861,-19.862,-20.849,111.143,13
0.014,-0.541,0.844,-20.386,-20.201,123.992,13
0.01,-0.44,0.819,-20.7,-26.639,134.354,13
0.001,-0.343,0.824,-24.785,-33.509,133.422,13
0.044,-0.116,0.962,-11.865,-29.84,97.085,13
0.024,-0.413,0.9,-15.567,-20.129,65.412,13
0.029,-0.448,0.902,-16.824,-12.433,87.138,13
0.026,-0.467,0.805,-21.119,-10.958,85.963,13
0.012,-0.445,0.811,-23.738,-22.755,105.72,13
0.042,-0.17,0.965,-11.376,-34.588,119.986,13
0.066,-0.216,1.01,-16.195,-23.654,96.498,13
0.062,-0.266,0.969,-26.846,-11.21,93.217,13
0.08,-0.194,0.922,-26.636,-5.563,88.347,13
0.056,-0.348,0.896,-33.9,-6.246,82.958,13
0.058,-0.312,0.88,-29.954,-10.67,100.021,13
0.078,-0.152,0.961,-21.328,-15.634,111.696,13
0.094,-0.127,0.946,-25.833,-5.024,98.329,13
0.116,-0.176,0.915,-30.687,-3.549,97.914,13
0.123,-0.109,0.934,-34.528,-3.513,102.612,13
0.145,-0.131,0.916,-36.798,-2.362,98.778,13
0.112,-0.108,0.904,-36.1,-2.47,100.85,13
0.116,-0.087,0.909,-34.284,-6.246,102.405,13
0.155,0.024,0.975,-19.443,-7.397,98.122,13
0.162,0.018,0.994,-25.624,1.738,86.585,13
0.159,-0.024,0.954,-31.42,3.536,87.207,13
0.16,-0.015,0.953,-34.668,2.961,89.936,13
0.147,-0.056,0.936,-41.058,3.968,93.01,13
0.143,0.014,0.924,-41.268,4.508,105.03,13
0.17,0.123,0.971,-35.995,5.083,102.888,13
0.178,0.092,0.947,-35.436,10.802,92.837,13
0.162,0.082,0.9,-33.725,8.644,93.942,13
0.165,0.092,0.947,-34.423,5.083,99.192,13
0.182,0.146,0.898,-34.842,8.032,99.71,13
0.203,0.154,0.915,-32.573,3.5,98.122,13
0.21,0.217,0.919,-41.652,3.464,100.125,13
0.201,0.244,0.936,-48.461,4.184,94.875,13
0.202,0.223,0.88,-49.649,7.241,91.49,13
0.197,0.253,0.821,-38.509,0.299,89.625,13
0.192,0.278,0.871,-23.738,-14.95,84.271,13
0.204,0.331,0.93,-21.852,-13.08,78.675,13
0.235,0.387,0.933,-26.287,-7.901,67.312,13
0.216,0.397,0.961,-38.614,-1.103,58.884,13
0.234,0.457,0.915,-31.839,0.551,51.25,13
0.223,0.428,0.948,-24.157,-8.512,39.127,13
0.227,0.449,0.942,-10.887,-9.843,28.488,13
0.217,0.476,0.947,2.243,-16.065,9.837,13
0.188,0.39,0.947,7.167,-12.145,-7.157,13
0.142,0.246,0.949,-1.075,-10.706,-12.027,13
0.132,0.256,0.975,-0.725,-12.792,-7.537,13
0.148,0.237,1.026,7.795,-11.138,-11.82,13
0.149,0.173,1.026,8.773,-3.045,-12.338,13
0.159,0.202,0.969,12.439,1.235,-7.261,13
0.16,0.21,0.95,11.078,2.35,-10.991,13
0.152,0.176,0.89,15.303,-0.6,-16.518,13
0.131,0.08,0.921,12.719,-4.916,-16.31,13
0.12,0.088,0.93,11.113,-6.57,-4.394,13
0.116,0.087,0.993,2.627,-9.304,1.305,13
0.158,0.189,1.055,-0.376,-6.822,14.776,13
0.189,0.33,1.03,-0.725,-1.391,3.377,13
0.168,0.223,1.02,-2.786,4.076,-7.641,13
0.161,0.209,0.994,-6.348,7.96,-7.503,13
0.166,0.237,0.987,6.678,5.515,-10.611,13
0.157,0.182,1.013,-0.9,12.6,-14.722,13
0.14,0.141,0.941,-4.252,15.369,-10.853,13
0.141,0.106,0.949,-7.011,11.197,-6.708,13
0.162,0.166,0.925,3.57,8.212,-0.456,13
0.167,0.173,0.91,7.621,6.486,-0.629,13
0.171,0.176,0.93,0.951,2.745,2.894,13
0.17,0.174,0.965,-13.646,6.198,7.522,13
0.183,0.227,0.945,-16.824,5.011,9.906,13
0.178,0.229,0.963,-16.055,1.666,10.286,13
0.18,0.222,0.976,-14.833,2.493,10.113,13
0.172,0.231,0.977,-8.094,-0.168,11.149,13
0.19,0.262,0.96,-8.233,2.134,5.761,13
0.192,0.207,0.951,-13.227,3.572,6.106,13
0.2,0.311,0.919,-9.735,2.242,9.042,13
0.205,0.296,0.933,-7.325,-1.571,3.308,13
0.186,0.287,0.934,-7.256,-2.038,1.443,13
0.182,0.315,0.955,1.475,-4.088,-1.147,13
0.154,0.229,0.972,-2.646,-2.614,-9.23,13
0.14,0.174,0.934,-2.262,-1.859,-3.6,13
0.151,0.166,0.96,-2.262,-3.333,2.065,13
0.173,0.226,0.968,-0.237,-4.376,7.626,13
0.174,0.26,0.967,-1.738,-3.081,5.899,13
0.167,0.239,0.982,-5.16,-2.686,-0.077,13
0.155,0.2,0.977,-11.167,2.206,2.134,13
0.149,0.213,0.977,-7.849,0.587,5.346,13
0.157,0.238,1.013,-4.462,3.464,5.864,13
0.153,0.235,0.967,0.776,4.759,3.481,13
0.148,0.215,0.941,2.802,4.04,1.789,13
0.155,0.195,0.922,3.011,3.824,3.101,13
0.162,0.202,0.898,0.217,3.824,6.106,13
0.18,0.246,0.902,-1.773,0.192,9.388,13
0.162,0.242,0.908,-6.557,-0.816,7.315,13
0.161,0.263,0.955,-10.748,-3.261,9.526,13
0.153,0.279,0.976,-8.617,-1.391,5.761,13
0.166,0.278,0.973,-2.227,0.587,4.034,13
0.183,0.259,0.92,1.684,2.925,3.412,13
0.18,0.256,0.89,4.513,0.335,3.999,13
0.172,0.266,0.928,2.732,-3.981,5.45,13
0.152,0.269,0.949,-0.237,-3.693,6.106,13
0.148,0.262,0.963,-0.376,-4.484,6.037,13
0.145,0.251,0.968,0.148,-2.83,7.281,13
0.159,0.239,0.957,1.09,-2.434,7.108,13
0.163,0.238,0.929,0.636,-1.463,9.526,13
0.147,0.298,0.949,-0.446,-4.988,10.7,13
0.142,0.325,1.027,2.278,-5.06,6.59,13
0.143,0.274,1.024,2.068,0.228,2.652,13
0.143,0.257,0.975,-0.341,5.227,4.137,13
0.146,0.257,0.962,-0.795,5.299,3.688,13
0.15,0.23,0.948,-1.598,7.709,5.415,13
0.159,0.243,0.89,2.767,4.867,6.106,13
0.173,0.236,0.901,4.338,2.493,8.006,13
0.165,0.258,0.887,3.954,-1.571,6.728,13
0.162,0.246,0.946,0.986,-6.858,6.21,13
0.138,0.257,0.968,-3.624,-3.045,5.139,13
0.12,0.238,0.999,-5.859,-2.722,6.797,13
0.126,0.284,0.968,-6.278,-2.902,8.559,13
0.128,0.286,1.003,-4.567,-2.938,3.688,13
0.073,0.262,0.95,-1.913,4.795,1.754,13
0.139,0.238,0.93,-1.04,4.076,2.825,13
0.147,0.288,0.906,3.709,2.457,5.174,13
0.161,0.271,0.905,6.189,0.192,2.756,13
0.163,0.303,0.859,2.871,-1.535,3.654,13
0.161,0.295,0.913,0.636,-7.469,0.372,13
0.146,0.239,0.968,-1.843,-8.584,-3.323,13
0.132,0.221,1.021,-2.821,-14.411,-0.698,13
0.131,0.231,1.06,-4.602,-6.894,5.623,13
0.125,0.272,1.006,-2.925,2.925,9.802,13
0.136,0.324,1.023,2.068,2.278,8.524,13
0.134,0.328,0.993,3.081,8.644,0.338,13
0.138,0.305,0.943,2.906,8.644,-1.355,13
0.14,0.282,0.9,4.059,8.104,-4.774,13
0.125,0.254,0.872,10.519,2.242,-6.916,13
0.111,0.176,0.925,6.992,-1.355,-7.33,13
0.108,0.166,0.934,2.278,-0.456,1.961,13
0.125,0.228,0.931,-1.005,-0.24,7.937,13
0.147,0.255,0.93,-4.078,-0.816,9.491,13
0.155,0.299,0.951,-2.646,-2.434,9.042,13
0.16,0.316,0.983,-3.205,-2.542,6.072,13
0.158,0.297,0.982,-5.475,2.062,3.757,13
0.156,0.304,0.946,-3.275,4.04,2.963,13
0.156,0.316,0.934,2.382,0.659,-0.456,13
0.149,0.286,0.916,4.024,0.479,-2.702,13
0.139,0.278,0.925,1.998,-2.254,-4.29,13
0.129,0.227,0.962,-0.865,-3.009,-6.708,13
0.12,0.205,0.946,0.078,-1.211,-5.499,13
0.117,0.165,0.95,0.392,-2.686,-3.151,13
0.137,0.196,0.931,1.44,-2.074,4.345,13
0.151,0.251,0.951,-0.271,-4.052,5.657,13
0.158,0.318,0.981,3.011,-5.527,1.547,13
0.138,0.288,1.005,0.217,-1.607,-1.769,13
0.127,0.281,1.015,1.23,0.803,-1.804,13
0.132,0.278,1.015,3.255,6.558,-0.456,13
0.083,0.607,0.967,4.967,1.378,-4.981,14
0.139,1.013,1.137,7.167,8.356,-27.018,14
0.11,1.291,1.282,15.093,30.116,-72.231,14
0.171,1.591,1.349,37.058,37.309,-121.9,14
0.118,1.797,1.139,66.461,63.384,-205.799,14
-0.018,1.73,0.8,85.842,77.303,-273.67,14
-0.133,1.934,0.613,98.553,81.403,-350.868,14
-0.529,1.476,0.45,108.435,82.554,-450.344,14
-0.727,1.395,0.282,132.321,62.413,-483.192,14
-1.107,0.614,-0.062,152.26,41.229,-543.396,14
-1.165,1.154,0.357,141.959,-16.281,-549.509,14
-1.483,0.306,0.732,90.661,13.967,-600.491,14
-1.561,-0.07,1.075,64.54,80.9,-602.149,14
-1.566,-0.336,0.546,99.635,88.345,-553.343,14
-1.589,-0.593,0.913,93.594,82.914,-533.31,14
-1.428,-1.287,1.09,10.554,144.74,-465.887,14
-1.226,-2.737,0.507,-15.427,187.001,-306.691,14
-0.76,-1.527,0.089,21.204,80.432,-140.759,14
-0.473,-0.468,0.494,-2.611,-1.823,-121.209,14
-0.442,-1.118,0.651,-37.601,-43.651,-116.961,14
-0.383,-1.434,1.054,-56.353,-89.904,-44.046,14
-0.185,-1.069,1.413,-48.461,-103.535,28.523,14
0.101,-0.082,2.062,-30.862,-70.23,34.187,14
0.012,-0.851,1.582,-15.706,47.415,-34.099,14
-0.023,-0.952,1.235,0.252,47.128,11.115,14
0.067,-0.513,1.091,3.011,55.831,21.511,14
0.119,-0.308,0.948,4.094,58.565,15.121,14
0.081,-0.408,0.768,8.913,54.645,-7.779,14
0.044,-0.567,0.673,19.319,22.563,-2.391,14
0.056,-0.537,0.763,17.328,-4.268,14.983,14
0.082,-0.573,0.95,-6.767,1.019,24.792,14
0.122,-0.466,0.861,-16.963,12.96,42.753,14
0.204,-0.181,0.885,-14.973,16.376,41.061,14
0.2,-0.317,0.781,-9.735,19.182,15.95,14
0.17,-0.397,0.734,-1.633,2.493,10.562,14
0.164,-0.355,0.842,4.059,-14.123,12.358,14
0.143,-0.47,0.979,0.427,-16.389,5.588,14
0.111,-0.531,0.963,-1.878,3.321,20.544,14
0.148,-0.243,0.997,0.182,15.945,15.467,14
0.1,-0.413,0.876,2.382,8.895,7.004,14
0.072,-0.482,0.83,6.957,-2.506,12.703,14
0.076,-0.461,0.877,6.049,-9.34,24.309,14
0.069,-0.501,0.92,-1.179,-9.627,32.875,14
0.085,-0.371,0.887,-3.379,-5.671,40.059,14
0.078,-0.412,0.809,-2.262,-7.146,35.224,14
0.1,-0.328,0.844,-0.516,-19.014,40.854,14
0.111,-0.318,0.878,-0.237,-23.294,35.742,14
0.101,-0.412,0.86,-3.938,-19.914,25.38,14
0.09,-0.45,0.881,-10.992,-23.366,36.951,14
0.101,-0.388,0.938,-9.106,-25.309,38.781,14
0.102,-0.344,0.942,-4.706,-29.768,42.892,14
0.083,-0.39,0.932,-4.671,-27.862,36.674,14
0.088,-0.469,0.969,-2.995,-24.949,40.577,14
0.081,-0.44,0.963,-3.484,-15.885,43.617,14
0.072,-0.45,0.939,-6.557,-11.713,49.109,14
0.045,-0.503,0.9,-9.036,-15.418,53.634,14
0.042,-0.537,0.938,-6.208,-22.251,59.436,14
0.02,-0.602,0.917,-4.602,-28.186,77.846,14
-0.005,-0.627,0.931,-5.335,-34.336,97.396,14
-0.004,-0.411,0.974,-6.627,-34.444,119.191,14
0.059,-0.056,1.085,-2.716,-30.056,114.425,14
0.078,-0.184,1.108,-8.408,-16.389,83.615,14
0.064,-0.371,1.052,-15.008,-3.657,81.853,14
0.036,-0.555,0.965,-16.614,1.45,98.951,14
0.002,-0.549,0.854,-11.83,-0.096,119.26,14
0.031,-0.174,0.93,-7.29,-17.468,143.542,14
0.107,0.07,0.995,-8.268,-12.612,111.074,14
0.095,-0.156,0.931,-18.43,-11.641,92.664,14
0.084,-0.4,0.953,-21.398,-17.576,87.172,14
0.027,-0.606,0.857,-21.922,-14.159,116.946,14
0.014,-0.386,0.944,-18.43,-14.842,156.944,14
0.164,0.452,1.068,-6.173,-14.015,145.235,14
0.198,0.145,0.989,-9.84,-3.333,83.235,14
0.181,-0.088,0.975,-15.427,2.026,66.828,14
0.128,-0.281,0.919,-12.738,3.5,72.596,14
0.088,-0.384,0.857,-14.694,1.019,90.281,14
0.122,-0.094,0.873,-20.176,-5.275,108.311,14
0.192,0.216,0.969,-14.938,-10.67,95.427,14
0.221,0.107,0.994,-9.735,-17.144,59.816,14
0.2,-0.115,1.007,-10.678,-19.626,54.981,14
0.179,-0.268,1.046,-13.716,-17.036,64.721,14
0.183,-0.306,1.001,-13.646,-3.981,82.44,14
0.167,-0.18,0.882,-17.243,3.5,99.538,14
0.232,0.234,0.892,-17.417,3.644,101.886,14
0.251,0.181,0.86,-20.42,2.817,68.521,14
0.265,0.103,0.884,-25.135,3.249,55.499,14
0.236,-0.023,0.86,-24.925,-2.434,48.936,14
0.219,-0.112,0.855,-21.189,-12.397,56.5,14
0.192,-0.107,0.858,-18.884,-17.756,69.142,14
0.18,-0.062,0.9,-17.033,-20.345,69.833,14
0.171,-0.063,0.924,-18.36,-20.201,79.677,14
0.145,-0.002,0.94,-23.319,-18.655,86.136,14
0.119,0.056,0.986,-27.404,-17.72,86.827,14
0.201,0.433,1.092,-20.909,-14.195,79.504,14
0.204,0.344,0.979,-14.519,-7.901,32.08,14
0.207,0.158,1.04,-16.963,-9.663,14.914,14
0.195,0.018,1.019,-24.82,2.457,16.054,14
0.194,0.045,1.007,-22.655,14.83,23.273,14
0.218,0.105,0.956,-6.487,8.967,24.102,14
0.188,0.093,0.884,4.967,1.127,21.891,14
0.187,0.081,0.91,7.027,-8.009,23.135,14
0.21,0.159,0.97,5.525,-7.829,19.024,14
0.209,0.138,0.981,5.735,-4.196,8.8,14
0.217,0.24,1.009,7.167,2.853,1.547,14
0.183,0.14,0.999,1.684,7.241,-11.199,14
0.156,0.064,0.974,-4.357,8.572,-9.022,14
0.161,0.099,0.914,3.186,2.026,-8.297,14
0.163,0.027,0.97,14.255,-3.117,-8.643,14
0.167,0.016,0.966,19.668,-7.397,-4.809,14
0.178,0.038,0.953,15.163,-4.017,-5.05,14
0.164,0.007,0.916,3.709,-0.672,-2.978,14
0.189,0.122,0.942,-8.059,-1.211,1.271,14
0.181,0.048,1.029,-5.37,0.048,-8.988,14
0.152,0.019,1.002,5.211,-0.276,-8.643,14
0.153,0.059,1.007,12.649,-1.93,-6.536,14
0.124,-0.01,1.013,14.255,-1.031,-8.539,14
0.127,-0.056,1.029,2.627,11.341,-6.743,14
0.15,0.011,0.992,-16.509,21.879,2.238,14
0.181,0.141,0.992,-16.789,20.117,5.761,14
0.166,0.02,0.964,-9.351,14.29,-3.427,14
0.145,-0.032,0.879,0.287,3.716,4.725,14
0.131,-0.168,0.838,5.106,-24.086,24.136,14
0.19,-0.027,0.975,3.116,-23.043,33.151,14
0.19,0.083,1.042,2.348,-13.152,33.6,14
0.185,0.142,1.051,1.125,-3.801,24.343,14
0.168,0.139,1.033,-2.751,-0.636,18.886,14
0.213,0.206,1.057,-2.297,4.543,13.878,14
0.196,0.111,0.972,-0.271,7.421,0.649,14
0.178,0.035,0.929,-1.179,1.882,-1.873,14
0.178,0.051,0.968,4.094,2.925,-3.358,14
0.175,0.036,0.994,12.09,0.12,-4.083,14
0.172,0.01,0.965,15.128,-0.492,-4.36,14
0.193,0.019,0.995,13.033,0.515,-4.256,14
0.203,0.113,0.991,16.874,3.932,-5.499,14
0.191,0.004,0.974,12.649,8.428,-12.097,14
0.174,-0.039,0.968,5.7,8.859,-7.399,14
0.167,0.011,0.968,7.306,5.982,-3.6,14
0.161,0.009,0.961,3.57,4.472,-1.527,14
0.199,0.107,0.974,-0.027,0.839,0.027,14
0.188,0.096,0.957,3.849,1.738,-10.335,14
0.192,0.034,0.957,5.84,-1.031,-15.516,14
0.17,-0.041,0.946,5.351,0.983,-14.653,14
0.163,-0.048,0.968,8.04,-1.247,-10.197,14
0.16,-0.041,0.977,12.754,-2.074,-8.504,14
0.161,-0.013,0.984,11.986,-1.067,-4.29,14
0.149,-0.008,0.984,8.179,-0.06,-5.845,14
0.152,-0.061,0.978,-2.716,4.076,-2.943,14
0.161,-0.023,0.961,-7.43,2.925,-1.424,14
0.177,0.024,0.968,-0.237,0.767,-4.878,14
0.177,0.029,0.972,7.341,-1.679,-4.774,14
0.172,-0.049,0.957,8.494,-0.42,-8.677,14
0.159,-0.083,0.92,4.897,-1.607,-1.147,14
0.185,0.02,0.967,0.357,-4.952,6.486,14
0.202,0.017,1.005,-0.271,-5.959,2.79,14
0.196,0.05,0.994,0.182,-2.506,2.859,14
0.171,-0.02,0.974,1.055,-2.506,-1.734,14
0.167,-0.049,1.01,0.706,0.623,2.859,14
0.164,-0.056,0.965,-0.306,-0.132,3.93,14
0.165,-0.035,0.967,-0.76,-1.283,6.348,14
0.179,0.021,1.011,-2.576,-2.254,7.73,14
0.195,0.013,1.016,-1.703,-0.78,0.131,14
0.19,0.009,1.011,-1.249,-0.348,1.789,14
0.182,-0.016,1.042,2.417,-1.679,1.132,14
0.189,0.045,1.015,2.802,3.033,2.998,14
0.176,0.032,0.982,2.732,2.817,-1.113,14
0.154,-0.025,0.977,0.392,4.076,-1.009,14
0.151,0.004,0.926,-1.214,1.558,3.412,14
0.166,-0.023,0.932,-1.459,1.99,0.718,14
0.179,0.018,0.927,-0.76,-0.132,-0.146,14
0.168,-0.003,0.934,0.846,-2.506,-0.664,14
0.168,0.032,0.968,3.36,-2.973,-1.078,14
0.164,0.025,0.984,3.395,-4.628,-1.32,14
0.151,-0.011,1.002,2.732,-4.052,-1.562,14
0.154,-0.013,1.035,-0.341,-2.758,1.374,14
0.173,0.022,1.026,0.776,-0.456,1.961,14
0.17,-0.013,0.997,-0.097,2.35,-1.458,14
0.181,0,0.999,-0.062,5.407,-1.355,14
0.164,-0.034,0.956,0.008,2.925,-2.356,14
0.177,-0.008,0.978,-0.551,3.788,1.029,14
0.176,0,0.966,0.287,2.35,-1.355,14
0.174,-0.024,0.962,1.405,2.242,-1.493,14
0.169,-0.07,0.97,1.475,1.199,-2.563,14
0.17,-0.081,1.009,1.265,-0.564,2.894,14
0.18,-0.024,0.984,2.871,0.623,5.657,14
0.182,-0.009,1.015,2.138,-0.312,5.312,14
0.175,0.008,1.003,1.44,2.925,3.343,14
0.173,-0.03,0.99,-1.389,2.961,3.067,14
0.179,-0.01,0.997,0.008,5.083,4.517,14
0.184,0.024,0.955,1.544,6.773,4.655,14
0.18,0.029,0.953,2.068,5.622,1.098,14
0.163,0.016,0.92,1.719,4.004,-0.456,14
0.171,-0.027,0.934,-0.271,1.163,3.308,14
0.185,0.008,0.932,0.113,-0.672,2.445,14
0.176,-0.006,0.928,2.417,-4.196,2.099,14
0.189,-0.005,0.993,3.744,-6.174,3.55,14
0.197,-0.016,1.024,2.871,-4.052,1.098,14
0.191,0.006,1,-0.865,-1.751,3.861,14
0.186,0.008,0.993,-1.319,0.695,2.169,14
0.162,0.003,0.965,-0.97,1.127,-1.493,14
0.144,-0.071,0.981,-0.725,-1.499,0.131,14
-0.151,0.401,1.085,-47.099,23.785,51.354,15
-0.171,0.711,1.071,-70.007,67.485,56.121,15
-0.095,1.138,0.991,-80.728,118.269,46.104,15
0.067,1.812,0.811,10.938,130.246,-17.865,15
0.238,1.805,0.67,99.845,100.358,-91.919,15
0.196,1.562,0.448,157.428,88.849,-220.996,15
0.188,1.742,0.166,158.79,65.003,-287.417,15
-0.036,2.372,0.656,99.042,69.139,-448.375,15
-1.186,1.893,0.665,10.379,103.595,-643.286,15
-2.018,1.401,0.79,-44.48,43.783,-767.804,15
-2.559,0.54,0.773,-4.008,-21.136,-818.302,15
-2.796,-0.288,0.65,63.144,-71.417,-833.293,15
-2.429,-1.566,1.001,50.398,-85.121,-735.474,15
-1.561,-1.783,1.742,36.465,-11.102,-552.998,15
-1.229,-2.626,1.091,47.08,69.391,-411.866,15
-0.78,-2.065,0.805,18.76,77.267,-177.13,15
-0.295,-0.616,0.972,-11.236,41.984,-69.192,15
-0.083,-0.46,1.014,-38.3,39.97,-104.147,15
0.048,-0.632,1.117,-28.487,12.96,-68.086,15
0.123,-0.396,1.196,0.392,16.916,-72.093,15
0.087,-0.665,1.153,-0.237,18.75,-54.339,15
0.046,-0.679,0.975,0.706,31.986,-26.362,15
0.047,-0.556,0.906,-3.484,23.39,-3.945,15
0.068,-0.523,0.789,-2.786,11.881,7.246,15
0.094,-0.173,0.876,1.544,-15.13,15.052,15
0.103,-0.285,1.017,-3.24,-16.461,-3.634,15
0.115,-0.55,1.12,-11.795,-3.225,3.17,15
0.132,-0.493,1.022,-9.246,7.025,21.511,15
0.146,-0.327,0.93,-6.452,9.111,30.802,15
0.124,-0.305,0.806,-2.681,4.256,24.827,15
0.157,-0.07,0.875,-1.948,0.659,16.054,15
0.147,-0.375,0.931,-5.195,-0.348,0.476,15
0.152,-0.503,0.964,-4.532,-7.541,16.192,15
0.162,-0.334,0.896,-1.808,4.076,35.224,15
0.177,-0.128,0.884,-3.903,2.817,31.528,15
0.203,0.02,0.921,-4.078,4.615,10.286,15
0.146,-0.259,0.868,-5.23,0.875,-2.702,15
0.142,-0.393,0.967,-7.57,-0.672,7.108,15
0.149,-0.343,0.972,-5.929,17.132,18.679,15
0.166,-0.247,0.89,-8.722,13.967,21.615,15
0.201,-0.144,0.892,-6.627,9.111,12.116,15
0.176,-0.24,0.854,-4.741,0.263,6.762,15
0.153,-0.289,0.909,-3.31,-8.656,7.004,15
0.137,-0.255,0.954,-0.551,-11.318,11.287,15
0.163,-0.105,1.061,-1.808,1.235,5.554,15
0.13,-0.275,0.955,-2.751,3.788,2.134,15
0.105,-0.277,0.882,-0.516,0.048,3.93,15
0.113,-0.246,0.886,-0.551,-3.261,7.073,15
0.13,-0.229,0.949,-11.341,-7.577,7.591,15
0.142,-0.187,1.039,-4.148,-7.397,2.825,15
0.125,-0.343,1.016,-2.122,0.192,3.688,15
0.122,-0.342,0.951,-1.424,3.357,13.843,15
0.127,-0.285,0.935,-2.506,-3.477,19.162,15
0.09,-0.32,0.951,-0.411,-7.721,20.82,15
0.085,-0.254,1.043,1.23,-7.613,22.237,15
0.074,-0.366,1.01,0.567,-4.16,26.14,15
0.068,-0.412,0.969,0.497,-1.103,34.913,15
0.037,-0.507,0.901,2.068,-11.569,52.425,15
0.01,-0.487,0.932,4.932,-16.461,77.328,15
0.026,-0.251,0.977,7.655,-22.287,86.378,15
0.066,-0.222,1.066,8.214,-21.316,80.886,15
0.076,-0.319,1.105,9.82,-16.353,82.578,15
0.071,-0.374,1.079,12.579,-15.67,97.12,15
0.073,-0.312,1.048,14.22,-9.807,107.102,15
0.066,-0.272,0.972,9.925,-4.232,114.597,15
0.063,-0.248,0.929,6.643,-5.419,109.762,15
0.071,-0.205,0.913,4.513,-9.232,110.901,15
0.061,-0.226,0.862,3.395,-17.036,110.176,15
0.038,-0.351,0.852,4.408,-25.416,115.254,15
0.055,-0.39,0.935,13.557,-34.732,127.688,15
0.039,-0.34,0.989,20.297,-39.299,143.231,15
0.086,0.106,1.052,12.893,-29.912,140.054,15
0.164,0.174,1.056,-2.646,-20.741,111.696,15
0.189,0.047,1.09,-12.144,-17.828,89.072,15
0.166,-0.154,1.013,-9.071,-11.569,79.643,15
0.163,-0.171,1.042,0.916,-8.225,85.86,15
0.167,-0.023,0.976,6.713,-2.794,81.439,15
0.181,0.034,0.922,0.846,5.119,64.687,15
0.163,-0.051,0.871,-9.421,1.307,51.941,15
0.157,-0.138,0.879,-12.389,-5.923,51.078,15
0.162,-0.154,0.965,-10.852,-16.713,55.672,15
0.202,0.086,1.003,-5.579,-10.347,49.247,15
0.197,-0.043,0.992,-5.649,-4.592,30.561,15
0.176,-0.179,0.954,-9.281,6.701,29.732,15
0.17,-0.202,0.942,-16.3,12.456,34.982,15
0.179,-0.129,0.913,-14.1,8.248,40.025,15
0.184,-0.048,0.949,-5.963,0.911,37.745,15
0.189,-0.076,0.98,3.849,-0.6,34.187,15
0.166,-0.164,0.956,4.967,4.508,35.016,15
0.182,-0.09,0.936,-0.691,1.702,40.474,15
0.203,-0.061,0.971,-0.795,3.357,35.327,15
0.186,-0.117,0.91,0.462,1.666,31.424,15
0.194,-0.12,0.932,0.811,-3.333,30.595,15
0.187,-0.093,0.968,2.906,-5.671,32.011,15
0.19,-0.169,0.989,0.602,-5.095,38.885,15
0.201,-0.044,0.98,-4.252,-0.6,48.176,15
0.192,-0.052,0.934,-6.278,4.687,38.574,15
0.19,-0.02,0.926,-4.252,3.321,32.046,15
0.192,0.029,0.946,-3.484,1.954,25.483,15
0.192,-0.058,0.971,-1.144,-1.894,19.404,15
0.189,-0.088,0.976,-0.795,-2.074,22.513,15
0.195,-0.083,0.973,-1.529,-1.679,24.931,15
0.197,-0.04,0.956,0.392,-0.456,23.722,15
