ACC-X,ACC-Y,ACC-Z,GYRO-X,GYRO-Y,GYRO-Z,TEST
0.210,0.412,1.040,58.220,-15.058,-6.639,1
0.367,0.640,0.741,107.388,-32.106,-31.577,1
0.402,0.167,0.701,160.362,-90.228,-57.448,1
0.164,-0.821,1.525,158.441,-150.076,-41.110,1
-0.209,-1.137,3.359,142.797,-76.956,15.570,1
-0.367,-0.550,3.302,135.254,142.726,54.635,1
-0.507,-0.504,3.022,-2.332,309.430,37.158,1
-0.461,-0.458,2.161,-114.321,477.896,-22.010,1
-0.557,-1.013,1.337,-183.707,581.551,-43.528,1
-0.382,-0.462,0.965,-151.895,575.868,25.932,1
-0.389,-0.493,0.742,-92.007,602.879,11.598,1
-0.434,-0.570,0.099,-37.985,620.718,28.039,1
-0.395,-0.252,-0.472,26.093,568.963,55.015,1
-0.241,0.180,0.023,97.261,485.485,64.548,1
0.068,-0.116,-0.428,143.844,327.809,103.268,1
0.239,0.717,0.272,143.809,332.988,160.985,1
0.140,0.159,-0.591,-9.351,352.661,30.043,1
0.017,-0.253,-1.282,5.386,239.727,71.456,1
0.508,0.491,-0.605,34.020,44.862,103.752,1
0.716,0.586,-0.226,4.862,1.666,48.833,1
0.827,0.383,-0.011,-81.775,6.881,30.319,1
0.786,0.306,-0.401,-76.223,-0.995,38.747,1
1.301,0.346,-0.219,-132.130,-38.292,-12.304,1
1.171,0.226,0.131,-5.300,-64.764,3.377,1
1.087,0.156,0.156,28.782,-38.292,-10.266,1
1.028,0.252,-0.161,50.328,-19.806,-44.979,1
0.933,-0.334,-0.444,21.379,-63.864,-30.921,1
1.198,-0.169,0.438,5.455,-65.231,46.726,1
1.219,0.143,0.226,-5.754,-30.775,60.265,1
1.195,0.681,0.320,13.627,6.162,29.386,1
1.009,0.125,-0.221,-0.795,-0.600,-30.714,1
0.988,-0.037,0.129,9.925,-22.971,2.099,1
0.954,0.119,-0.039,15.443,-16.245,9.215,1
0.997,-0.048,0.166,10.519,-33.437,3.965,1
0.988,0.040,0.059,9.471,-8.440,8.766,1
0.986,0.169,0.083,5.176,-8.800,15.398,1
0.968,0.195,-0.011,-0.097,-3.765,11.840,1
0.987,0.271,0.006,-3.170,-14.878,10.216,1
1.009,0.311,0.051,8.598,-18.007,-1.285,1
0.995,0.009,0.118,-1.564,-22.359,-12.891,1
1.004,0.097,0.191,12.335,-13.548,3.343,1
0.970,0.123,0.064,8.982,-5.707,1.201,1
0.986,0.201,0.136,-2.506,-6.210,7.350,1
0.992,0.307,0.055,0.846,-1.535,-2.218,1
0.974,0.170,0.029,5.455,-9.555,-21.181,1
0.937,0.019,0.013,7.970,-11.210,-16.898,1
0.925,0.159,0.055,17.014,-15.813,-11.717,1
0.917,0.214,-0.024,24.277,-21.820,-17.347,1
0.962,0.285,0.078,18.411,-35.919,-32.959,1
0.941,-0.117,0.151,4.757,-29.804,-53.579,1
0.927,-0.243,0.108,9.611,-34.876,-16.380,1
0.965,-0.052,0.194,8.459,-40.522,30.284,1
0.996,0.373,0.172,-6.487,-32.790,29.801,1
1.009,0.218,0.256,-25.624,-28.258,-9.437,1
0.997,-0.039,0.234,-17.941,-18.727,-20.490,1
0.960,-0.132,0.164,-9.665,-18.583,2.963,1
0.941,0.015,0.126,-21.119,-21.892,28.834,1
0.936,0.175,0.114,-26.601,-34.912,31.493,1
0.940,0.258,0.160,-4.427,-39.695,11.840,1
0.925,0.120,0.147,6.084,-64.979,-13.789,1
0.873,-0.123,0.026,19.703,-98.356,-6.570,1
0.846,-0.067,0.145,19.563,-161.369,27.176,1
0.922,-0.004,0.528,22.043,-178.813,45.344,1
0.906,0.181,0.667,6.957,-113.750,48.556,1
0.889,0.166,0.425,16.700,-73.216,20.889,1
0.876,0.122,0.409,21.065,-72.928,23.618,1
0.866,0.279,0.286,12.020,-75.913,21.960,1
0.875,0.298,0.478,12.649,-108.211,5.484,1
0.899,0.098,0.611,4.548,-72.209,-6.501,1
0.869,-0.043,0.525,-11.865,-69.259,9.318,1
0.866,0.130,0.624,-4.427,-61.994,18.264,1
0.843,0.213,0.609,-1.843,-44.335,13.981,1
0.826,0.233,0.557,-2.157,-44.802,3.896,1
0.774,0.162,0.418,4.094,-56.347,-1.424,1
0.811,-0.050,0.746,24.173,-64.080,-2.322,1
0.759,0.084,0.433,19.004,-55.197,10.216,1
0.753,0.266,0.552,0.532,-76.920,5.519,1
0.765,0.315,0.533,-11.376,-63.217,-1.769,1
0.739,0.145,0.761,10.728,-57.067,-7.434,1
0.720,0.220,0.509,20.716,-52.535,-13.167,1
0.698,0.298,0.440,15.373,-79.977,-23.633,1
0.698,0.138,0.694,9.332,-56.815,-20.110,1
0.676,0.080,0.745,-0.935,-49.010,-12.684,1
0.653,0.133,0.628,-5.649,-62.318,-14.756,1
0.649,-0.100,0.705,-1.389,-53.974,5.588,1
0.618,0.116,0.648,-0.306,-57.570,6.486,1
0.607,0.346,0.769,10.414,-60.484,-6.017,1
0.612,0.376,0.734,26.862,-42.500,-29.850,1
0.628,-0.005,0.785,27.071,-46.061,-43.735,1
0.640,-0.043,0.752,24.417,-49.334,-26.811,1
0.617,-0.146,0.750,7.132,-43.436,-14.031,1
0.610,0.028,0.808,-18.046,-51.528,5.243,1
0.570,0.112,0.709,-18.186,-62.570,5.968,1
0.563,0.268,0.908,4.303,-57.247,-2.978,1
0.557,0.061,0.819,17.224,-60.448,-9.644,1
0.535,-0.012,0.917,0.462,-62.570,-3.289,1
0.514,-0.039,0.889,-11.725,-50.953,11.874,1
0.496,0.184,0.764,-13.401,-56.455,16.779,1
0.434,0.142,0.663,11.392,-83.034,10.942,1
0.426,0.022,0.888,20.611,-113.570,10.251,1
0.472,0.013,1.018,25.011,-73.467,-7.054,1
0.413,0.071,0.980,-3.135,-52.751,3.412,1
0.365,0.163,0.934,-22.865,-42.177,-2.460,1
0.365,0.036,0.782,-13.576,-69.044,-3.185,1
0.364,0.003,0.926,-0.900,-91.415,-0.767,1
0.378,0.079,1.022,5.595,-79.941,5.346,1
0.362,-0.006,0.984,4.827,-67.353,10.873,1
0.288,0.141,0.861,-6.348,-57.714,7.971,1
0.275,0.197,0.916,-11.202,-69.691,-1.320,1
0.287,0.031,0.866,1.719,-81.776,-3.116,1
0.178,-0.340,0.640,3.221,-160.758,34.187,1
0.177,0.216,1.098,-12.982,-75.230,14.327,1
0.180,0.023,0.965,-37.287,-76.884,33.531,1
0.170,0.141,1.046,-23.039,-54.225,15.639,1
0.137,0.067,1.079,-12.249,-59.548,-4.394,1
0.129,0.160,1.030,5.874,-50.089,-3.772,1
0.138,0.097,1.033,-0.306,-56.815,1.823,1
0.131,0.211,0.951,-5.894,-49.874,-0.940,1
0.131,0.218,0.915,-3.868,-56.995,-7.295,1
0.071,0.179,0.970,0.427,-56.743,-5.534,1
-0.019,0.174,1.030,11.008,-52.463,-4.498,1
0.012,0.147,1.033,15.163,-46.673,-12.477,1
0.019,0.054,1.059,14.186,-36.062,-8.055,1
-0.015,0.159,0.916,9.017,-34.696,-2.598,1
-0.046,0.298,1.035,-1.040,-50.053,-17.381,1
-0.060,0.177,1.128,13.592,-41.997,-21.802,1
-0.046,-0.049,1.142,19.214,-19.158,-18.936,1
-0.049,0.041,1.166,20.262,-10.203,-0.629,1
-0.042,0.038,1.109,24.557,10.190,8.524,1
0.006,0.126,0.858,13.732,1.522,3.170,1
-0.003,0.134,0.969,4.268,-7.218,-4.878,1
0.005,0.048,0.939,5.211,-11.318,-3.738,1
-0.026,0.058,1.040,5.560,-14.087,1.858,1
-0.057,0.025,1.075,-12.773,-1.463,2.307,1
-0.045,0.171,0.928,-17.173,5.658,-1.734,1
-0.037,0.206,0.894,-12.354,-3.009,-10.300,1
-0.037,0.121,0.968,-3.833,-13.008,-17.105,1
-0.063,0.042,1.048,11.986,-14.519,-15.032,1
-0.064,-0.005,1.127,6.887,-6.930,-8.297,1
-0.048,-0.063,1.076,-4.706,5.874,-0.215,1
-0.016,0.026,0.874,-16.789,11.845,1.547,1
-0.016,0.184,0.964,-20.944,-1.427,-1.734,1
-0.033,0.121,0.955,-2.087,-2.758,-3.461,1
-0.049,0.079,0.992,1.998,-4.556,-2.080,1
-0.061,0.060,1.010,-3.554,-0.816,-0.802,1
-0.050,0.115,0.985,-4.636,-0.672,2.790,1
-0.050,0.145,0.939,-4.532,-3.693,-0.353,1
-0.045,0.191,0.986,-4.776,-6.067,-4.774,1
-0.049,0.194,0.998,-2.157,-7.613,-8.055,1
-0.037,0.125,0.966,2.871,-5.347,-12.304,1
-0.054,0.081,0.950,9.087,-6.354,-7.710,1
-0.071,0.023,1.046,13.103,-3.621,-6.156,1
-0.050,-0.026,1.017,5.386,1.702,3.896,1
-0.045,0.118,0.936,-8.513,1.954,4.034,1
-0.034,0.132,0.988,-15.147,-2.614,-5.534,1
-0.046,0.122,1.014,-7.814,-3.873,-3.600,1
-0.067,0.077,1.021,4.338,-3.729,0.925,1
-0.052,0.060,0.994,3.640,-1.823,3.896,1
-0.067,0.113,1.001,-5.510,-1.067,6.244,1
-0.081,0.239,1.015,-5.265,0.263,0.994,1
-0.070,0.110,0.977,0.881,1.990,-6.328,1
-0.066,0.107,0.987,-0.027,1.594,-2.978,1
-0.055,0.125,1.007,-5.859,2.314,-2.460,1
-0.062,0.128,1.017,-13.611,3.393,-7.468,1
-0.052,0.128,0.973,-18.535,6.090,-6.777,1
-0.044,0.134,0.946,-5.370,4.903,-5.465,1
-0.042,0.105,0.976,2.697,0.659,-2.563,1
-0.055,0.080,1.001,-4.497,0.911,-0.180,1
-0.061,0.160,0.996,-7.046,1.630,3.377,1
-0.065,0.168,0.998,-8.757,4.004,-0.975,1
-0.051,0.142,0.970,0.811,5.766,-3.289,1
-0.047,0.117,0.947,6.782,3.500,-1.182,1
-0.030,0.109,0.970,4.303,1.342,-1.285,1
-0.022,0.113,0.946,0.986,0.623,0.580,1
-0.028,0.117,0.947,0.357,-1.319,1.616,1
-0.043,0.153,0.956,1.405,-1.535,0.062,1
-0.051,0.123,1.005,0.776,-3.585,2.030,1
-0.069,0.157,1.005,1.579,-1.139,1.581,1
-0.059,0.142,0.991,2.976,0.084,0.649,1
-0.060,0.140,1.016,3.744,-0.024,1.650,1
-0.059,0.171,1.027,4.233,2.062,-0.595,1
-0.043,0.128,1.023,-2.052,1.594,-2.805,1
-0.047,0.075,0.968,-4.671,-0.528,1.340,1
-0.072,0.179,0.977,-1.179,-2.614,1.201,1
-0.049,0.079,0.986,2.767,-1.859,-3.911,1
-0.046,0.112,1.015,0.811,1.522,-1.700,1
-0.037,0.098,0.989,-1.668,2.062,-1.458,1
-0.035,0.098,0.968,-3.659,0.335,-1.355,1
-0.037,0.169,0.951,-1.249,-0.959,1.581,1
-0.046,0.219,0.931,0.008,-13.224,-2.045,1
-0.068,0.137,0.985,5.525,-11.857,-9.161,1
-0.060,0.037,1.024,4.408,-7.361,-5.638,1
-0.054,0.080,1.034,0.182,-0.600,3.896,1
-0.054,0.174,1.001,0.776,4.723,3.170,1
-0.063,0.150,1.011,4.617,7.924,0.131,1
-0.062,0.115,1.000,3.395,8.464,-1.734,1
-0.050,0.027,0.980,2.243,3.500,0.545,1
-0.036,0.089,0.953,-1.354,1.307,6.659,1
-0.047,0.192,0.972,-2.681,0.299,6.555,1
-0.052,0.155,0.971,2.313,3.357,-0.975,1
-0.372,-0.772,1.539,113.359,-33.077,77.570,2
-0.445,-0.323,1.782,79.661,20.369,87.690,2
-0.485,-0.105,1.626,33.741,80.684,64.065,2
-0.367,-0.313,2.037,-60.404,160.421,19.024,2
-0.423,-0.555,2.939,-188.457,305.653,-2.978,2
-0.823,-0.233,3.577,-319.338,588.241,-68.881,2
-1.555,0.026,2.163,-344.131,899.241,-163.038,2
-1.533,-0.179,0.208,-140.651,985.129,-157.304,2
-0.823,-0.183,-1.504,12.090,640.644,-86.289,2
-0.162,0.068,0.304,66.356,334.786,-65.289,2
0.001,-0.006,0.221,39.887,437.110,-100.105,2
-0.066,-0.677,-1.230,-24.122,401.540,-60.729,2
0.302,-0.437,-0.875,-10.678,207.789,22.133,2
0.693,0.354,-0.753,-81.077,126.793,23.514,2
1.073,0.591,0.201,-124.168,60.471,-17.139,2
0.831,0.022,-1.417,172.723,82.878,-25.878,2
0.895,0.411,-0.001,-40.150,-28.114,-64.425,2
0.970,-0.053,0.247,-55.585,-40.486,-83.111,2
0.786,-0.411,0.473,-53.525,30.691,-51.852,2
0.955,-0.210,-0.134,26.163,40.546,36.294,2
1.070,0.516,-0.126,55.741,-28.258,28.696,2
0.982,0.134,0.013,-82.648,-78.539,-49.435,2
0.871,-0.041,0.471,-71.264,-67.137,-40.558,2
0.985,-0.351,0.471,-58.798,-31.171,-68.535,2
2.161,0.144,0.323,-138.206,-134.035,-3.047,2
1.031,-0.416,0.913,192.314,-79.905,7.591,2
0.985,0.181,0.161,117.270,48.710,28.385,2
0.904,-0.175,-0.131,46.941,-33.653,-6.156,2
0.898,-0.321,0.576,23.404,-38.077,4.897,2
0.909,-0.283,0.116,7.341,-13.943,38.436,2
0.955,-0.044,0.180,14.849,-27.610,55.741,2
0.992,0.298,0.172,-24.611,-39.192,44.515,2
0.988,0.279,0.172,-12.528,-66.922,-1.838,2
0.946,-0.145,0.454,-18.011,-56.240,-21.595,2
0.915,-0.247,0.462,4.932,-13.332,11.909,2
0.897,-0.057,0.312,10.659,-0.528,29.939,2
1.019,0.107,0.282,14.605,31.087,34.533,2
0.974,0.371,0.130,35.941,-13.655,-0.353,2
0.861,-0.154,0.368,16.001,-39.084,-35.169,2
0.944,-0.339,0.470,7.306,-16.785,5.864,2
0.928,0.036,0.358,28.433,3.285,48.798,2
0.936,0.266,0.379,-45.877,13.499,28.868,2
0.976,0.146,0.231,-19.338,36.302,-3.807,2
0.895,-0.157,0.055,16.455,-21.100,-7.434,2
0.902,-0.197,0.520,49.699,-42.285,23.722,2
0.887,0.010,0.404,26.896,3.752,41.545,2
0.914,0.102,0.306,28.154,-7.397,41.510,2
0.829,0.394,0.615,23.404,4.867,12.703,2
0.942,0.105,0.003,-38.684,35.187,-40.074,2
0.922,-0.223,0.285,-1.284,-29.732,-20.075,2
0.932,-0.042,0.459,5.176,6.522,2.894,2
0.932,0.004,0.289,8.843,3.249,8.973,2
0.962,0.161,0.462,4.548,-3.261,7.626,2
0.841,0.173,0.514,4.967,8.536,-7.848,2
0.922,0.070,-0.015,1.719,17.671,-23.080,2
0.923,-0.197,0.446,25.744,-30.164,-23.668,2
0.940,-0.055,0.337,19.738,-0.096,5.450,2
0.965,0.132,0.460,31.960,-0.995,1.996,2
0.939,-0.111,0.617,16.001,28.533,-3.945,2
0.884,0.010,0.137,90.835,68.312,21.546,2
0.951,0.175,0.039,142.936,-4.916,1.029,2
0.853,-0.142,0.238,87.378,-28.761,-21.802,2
0.918,-0.113,0.304,63.807,-42.536,4.137,2
0.930,0.112,0.271,52.493,-42.968,-2.840,2
0.899,0.040,0.303,66.775,-64.943,-27.018,2
0.856,-0.338,0.386,74.074,-74.834,-30.196,2
0.924,-0.086,0.544,58.604,-71.489,-0.284,2
0.868,-0.009,0.158,44.531,-56.851,-5.741,2
0.863,-0.115,0.406,52.633,-99.219,-7.019,2
0.859,-0.028,0.515,48.722,-104.470,-11.924,2
0.807,-0.172,0.459,60.525,-94.364,-17.347,2
0.808,-0.293,0.511,36.115,-86.020,-1.320,2
0.855,-0.056,0.706,26.268,-79.150,8.179,2
0.813,0.070,0.385,33.252,-71.633,-16.241,2
0.802,-0.265,0.562,32.030,-92.709,-18.866,2
0.778,-0.231,0.493,54.169,-97.853,-9.506,2
0.747,-0.307,0.530,8.738,-80.049,4.828,2
0.738,-0.161,0.697,-6.662,-78.215,20.475,2
0.666,-0.116,0.644,13.103,-72.065,15.812,2
0.691,-0.193,0.612,23.684,-75.374,11.874,2
0.748,-0.251,0.724,17.433,-79.941,27.210,2
0.733,-0.152,0.626,6.084,-65.231,26.934,2
0.689,-0.064,0.716,-6.138,-54.729,12.669,2
0.623,-0.116,0.507,-15.462,-65.015,0.338,2
0.628,-0.268,0.685,7.795,-93.069,0.545,2
0.657,-0.073,0.770,36.709,-89.868,4.379,2
0.638,-0.081,0.846,24.662,-71.309,0.200,2
0.585,-0.114,0.822,-11.236,-52.175,-3.392,2
0.536,-0.242,0.758,-38.404,-69.116,-5.361,2
0.607,-0.269,0.804,-21.363,-69.619,8.662,2
0.603,-0.046,0.884,8.738,-63.253,0.200,2
0.577,-0.119,0.853,24.138,-57.103,-6.605,2
0.517,0.029,0.960,-5.998,-54.190,-15.758,2
0.444,-0.358,0.847,-14.624,-37.933,-21.733,2
0.475,-0.234,0.730,-16.579,-54.765,0.752,2
0.472,-0.204,0.805,-10.782,-65.159,6.279,2
0.492,-0.043,0.846,-0.481,-60.268,-0.871,2
0.485,0.043,0.971,-11.655,-54.981,-16.138,2
0.438,-0.179,1.042,-20.071,-53.254,-24.911,2
0.409,-0.179,0.847,-9.665,-50.341,-8.953,2
0.404,-0.169,0.930,-0.935,-57.283,-7.157,2
0.391,-0.146,0.911,-1.668,-52.859,-8.090,2
0.385,-0.067,0.979,-27.370,-52.391,-11.786,2
0.348,-0.212,0.968,-27.963,-44.083,-11.302,2
0.331,-0.256,0.867,-12.354,-42.141,-1.458,2
0.343,-0.091,0.925,-22.830,-49.910,1.271,2
0.348,-0.125,0.892,-19.932,-50.197,0.200,2
0.325,-0.129,0.934,-26.008,-46.205,1.098,2
0.304,-0.029,1.001,-26.811,-50.773,0.718,2
0.282,-0.007,0.903,-19.827,-55.664,-3.772,2
0.270,-0.083,1.027,-7.290,-51.312,-11.751,2
0.270,-0.053,1.000,3.360,-41.997,-11.440,2
0.231,-0.099,0.959,6.468,-42.968,-11.544,2
0.202,-0.191,1.011,-4.741,-36.278,-10.335,2
0.197,-0.144,1.012,-14.798,-33.689,0.925,2
0.197,-0.134,0.941,-17.697,-31.027,4.034,2
0.191,-0.046,0.939,-12.982,-32.861,-0.560,2
0.176,-0.111,0.968,7.201,-40.630,-1.216,2
0.185,-0.129,0.993,25.849,-40.990,5.726,2
0.168,-0.128,0.971,20.192,-35.487,10.355,2
0.154,-0.070,0.996,6.433,-32.897,11.322,2
0.153,0.069,1.111,-11.760,-36.062,2.307,2
0.149,-0.019,1.048,-7.360,-19.230,-4.774,2
0.130,-0.180,0.994,12.684,-34.876,-0.906,2
0.141,-0.194,1.016,19.633,-34.120,9.975,2
0.132,-0.128,1.025,19.458,-24.373,13.049,2
0.128,0.050,1.081,6.678,-14.159,6.797,2
0.120,0.064,0.996,-6.557,-7.074,-10.231,2
0.101,-0.266,0.990,-3.833,-12.972,-15.274,2
0.106,-0.284,0.967,6.224,-18.439,3.170,2
0.105,-0.114,1.106,12.230,-16.964,8.040,2
0.081,-0.027,1.113,10.973,0.911,-3.600,2
0.068,-0.173,0.996,-7.535,0.012,-8.470,2
0.076,-0.173,1.037,-10.084,-1.643,-2.460,2
0.082,-0.131,0.893,-5.894,-3.693,-2.184,2
0.099,-0.148,0.975,-6.278,-5.995,0.683,2
0.099,-0.092,0.968,-0.656,-1.571,1.823,2
0.092,-0.143,0.938,6.468,2.170,-1.389,2
0.080,-0.155,0.886,-3.973,-6.498,5.933,2
0.054,-0.051,0.923,-4.008,-12.828,8.973,2
0.054,0.018,1.085,-2.297,-15.382,0.822,2
0.059,-0.080,1.094,-0.621,-8.296,-2.978,2
0.074,-0.136,1.069,2.382,-1.031,-5.568,2
0.088,-0.159,1.022,2.627,3.285,0.891,2
0.075,-0.060,0.994,-2.052,3.357,2.479,2
0.068,-0.078,1.030,-3.240,1.486,-4.705,2
0.057,-0.144,1.031,-3.868,3.464,-4.705,2
0.069,-0.199,0.982,1.684,3.429,8.524,2
0.079,-0.119,0.938,-2.925,3.608,6.244,2
0.072,0.029,0.997,-7.814,1.990,5.105,2
0.067,0.029,1.034,-7.430,8.788,-5.983,2
0.067,-0.047,0.983,-0.271,11.377,-14.653,2
0.067,-0.206,0.955,4.513,8.284,-12.131,2
0.089,-0.172,0.895,0.567,4.220,-1.873,2
0.090,-0.053,0.917,-0.830,0.371,-2.736,2
0.105,-0.050,0.925,4.059,-4.916,-7.226,2
0.103,-0.167,0.905,9.262,-10.275,-8.401,2
0.078,-0.255,0.997,8.843,-9.987,1.201,2
0.072,-0.066,0.960,1.824,-10.454,8.144,2
0.056,-0.048,1.008,-1.598,-9.555,2.963,2
0.061,-0.083,0.995,-7.395,-5.239,-3.289,2
0.057,-0.068,1.035,-4.602,-8.117,-2.253,2
0.057,-0.141,1.070,6.014,-9.987,-1.562,2
0.049,-0.166,1.087,3.675,-4.772,3.274,2
0.046,-0.071,1.058,-2.017,0.875,6.313,2
0.057,-0.035,1.001,-3.729,3.285,1.754,2
0.064,-0.063,0.955,-3.205,4.508,-2.529,2
0.064,-0.074,0.939,1.125,-1.427,-2.253,2
0.054,-0.100,1.002,1.754,-3.657,0.131,2
0.046,-0.088,0.999,2.836,-0.204,0.407,2
0.055,-0.074,0.978,3.255,3.788,-3.945,2
0.061,-0.080,0.944,-0.097,3.069,-4.118,2
0.066,-0.133,0.921,1.998,-0.816,-6.017,2
0.079,-0.153,0.985,1.055,-4.196,-4.221,2
0.059,-0.183,1.033,-4.671,0.839,-1.424,2
0.057,-0.175,1.027,-4.776,3.321,2.721,2
0.064,-0.116,0.997,-4.636,4.723,6.348,2
0.071,-0.083,0.995,-3.938,3.069,5.554,2
0.080,-0.056,0.932,-4.951,1.486,5.346,2
0.071,0.011,0.954,-5.405,0.623,-1.907,2
0.054,0.020,0.961,-1.529,1.019,-11.993,2
0.057,-0.057,1.002,3.709,-0.024,-15.620,2
0.064,-0.087,1.023,13.068,5.227,-17.278,2
0.049,-0.167,1.030,10.589,5.910,-10.611,2
0.061,-0.191,0.964,4.827,7.457,-1.804,2
0.069,-0.155,0.940,-0.341,0.012,4.103,2
0.066,-0.114,0.997,-1.633,-3.333,5.623,2
0.062,-0.105,1.003,0.392,-5.455,4.966,2
0.056,-0.153,0.999,5.071,-2.290,2.169,2
0.046,-0.153,0.971,6.678,-1.859,5.519,2
0.059,-0.069,1.002,3.709,-1.751,7.799,2
0.079,0.003,1.023,0.462,3.213,3.032,2
0.075,-0.066,0.963,-4.636,2.457,-0.767,2
0.052,-0.087,0.945,-1.773,-0.636,-0.836,2
0.065,-0.118,1.048,2.452,11.665,5.450,2
0.069,-0.042,0.977,6.643,14.039,2.030,2
0.072,-0.104,0.969,3.989,8.536,0.856,2
0.080,-0.122,0.953,1.789,4.256,-0.871,2
0.071,-0.231,0.969,4.059,-0.204,-2.909,2
0.066,-0.153,0.947,2.068,-3.585,5.346,2
-0.075,-0.532,1.052,166.787,-138.207,-66.049,3
-0.366,-0.706,1.438,134.800,-139.753,-43.425,3
-0.533,-0.803,1.635,87.343,-111.520,-13.893,3
-0.646,-0.889,1.952,42.576,-53.146,10.804,3
-0.636,-0.733,1.866,-33.306,31.590,27.901,3
-0.622,-0.293,1.738,-88.131,95.934,23.618,3
-0.633,-0.373,1.592,-119.978,166.248,-0.284,3
-0.575,-0.592,2.383,-138.905,253.718,-2.218,3
-0.791,-0.801,2.707,-185.174,494.836,18.023,3
-1.157,-0.524,1.791,-259.519,701.930,-14.722,3
-1.408,-0.142,1.026,-275.967,848.313,42.097,3
-1.197,0.665,0.404,-122.911,849.752,29.732,3
-0.750,0.626,-0.089,-45.528,696.032,-58.830,3
-0.321,0.003,0.290,-88.201,592.880,-58.899,3
-0.413,-0.502,-1.483,-189.120,673.445,-40.730,3
-0.092,-0.543,-2.391,-138.660,272.888,49.662,3
0.674,0.925,-0.022,-31.630,117.801,34.395,3
0.620,0.083,-0.613,-72.382,168.802,-88.845,3
0.737,-0.573,-0.187,-73.848,88.237,-36.309,3
0.902,-0.117,-0.187,-72.801,102.624,21.062,3
1.010,0.139,-0.408,-66.515,86.798,4.897,3
1.082,-0.296,-0.316,-0.062,31.230,24.792,3
1.186,0.252,-0.148,30.249,15.441,6.382,3
1.157,0.530,-0.094,37.931,20.872,0.407,3
1.050,0.341,-0.291,17.817,21.592,-36.482,3
0.940,-0.097,-0.351,15.408,-20.093,-35.549,3
1.009,-0.043,0.068,10.100,-42.608,-10.266,3
1.007,0.085,0.090,23.404,2.673,-18.417,3
0.973,0.051,0.080,16.735,-7.937,-2.114,3
0.965,0.042,-0.166,5.071,16.664,-11.578,3
0.964,-0.038,-0.172,-7.290,1.019,10.355,3
0.983,0.036,-0.089,0.078,-17.036,25.621,3
0.989,0.178,-0.102,12.544,-12.073,11.425,3
1.023,0.286,-0.009,6.328,-4.088,3.723,3
1.003,0.171,-0.121,3.360,3.105,-8.677,3
0.940,-0.087,-0.193,-0.795,0.623,-9.506,3
0.923,-0.110,-0.190,6.468,-10.167,14.292,3
0.954,0.219,-0.090,21.135,-13.404,17.781,3
1.010,0.277,0.033,6.782,-8.261,8.697,3
0.987,0.071,-0.130,-6.627,-0.780,-0.077,3
1.011,0.121,-0.111,-2.506,-5.923,1.305,3
0.983,-0.009,-0.141,5.874,-16.533,5.864,3
0.957,0.126,-0.135,17.154,-24.014,8.110,3
0.992,0.241,0.062,10.030,-30.236,6.244,3
1.007,0.245,-0.069,-22.900,-19.050,-1.285,3
0.957,-0.035,-0.087,-23.843,-37.897,5.001,3
0.971,0.129,-0.124,9.506,-42.500,-2.080,3
0.947,0.112,-0.086,36.569,-60.987,-15.792,3
0.960,0.166,0.014,30.249,-54.369,-21.353,3
0.934,0.071,-0.091,9.017,-57.355,-15.136,3
0.955,-0.010,-0.026,-12.214,-60.304,-3.392,3
0.968,0.070,-0.074,1.998,-58.757,8.628,3
0.988,0.197,0.117,34.509,-90.480,0.338,3
0.969,0.165,0.072,42.541,-82.603,-13.478,3
0.970,0.072,0.167,30.179,-68.576,-9.437,3
0.978,0.111,0.159,17.992,-66.526,-4.601,3
0.986,0.000,0.256,20.681,-75.446,-1.907,3
0.968,0.057,0.100,29.690,-60.088,-2.391,3
0.953,0.097,0.187,35.382,-84.221,-1.562,3
0.952,0.108,0.245,30.493,-82.711,-5.672,3
0.950,0.185,0.298,26.512,-77.819,-11.129,3
0.943,-0.032,0.457,17.014,-80.733,-12.926,3
0.915,-0.147,0.377,9.262,-61.419,1.201,3
0.909,0.074,0.267,21.658,-54.837,18.333,3
0.893,0.093,0.225,36.500,-81.416,8.489,3
0.906,0.149,0.374,41.772,-87.782,-1.078,3
0.902,0.080,0.395,36.534,-79.905,-8.504,3
0.880,-0.005,0.382,22.462,-71.130,-3.427,3
0.858,-0.016,0.326,12.020,-76.884,7.211,3
0.872,0.123,0.606,14.779,-86.164,12.047,3
0.833,0.145,0.426,22.811,-95.731,4.172,3
0.830,0.145,0.570,13.766,-89.724,-8.919,3
0.845,0.017,0.607,2.941,-92.925,-3.600,3
0.829,0.041,0.489,-4.951,-73.755,2.307,3
0.805,0.005,0.632,-7.500,-59.477,4.759,3
0.796,0.102,0.687,-5.998,-48.399,1.098,3
0.775,-0.018,0.581,0.357,-51.456,-0.249,3
0.754,-0.050,0.557,5.805,-58.757,7.522,3
0.771,0.036,0.646,6.328,-74.007,17.263,3
0.827,0.217,0.704,6.189,-61.886,13.843,3
0.781,0.219,0.655,8.494,-51.672,-3.945,3
0.744,-0.076,0.613,9.890,-50.449,-19.074,3
0.697,-0.150,0.661,10.868,-66.598,2.618,3
0.661,-0.052,0.742,15.198,-73.108,21.718,3
0.623,0.037,0.802,0.636,-64.152,20.371,3
0.647,0.324,0.822,-16.370,-47.428,9.042,3
0.662,0.136,0.599,-4.078,-49.406,-5.845,3
0.618,0.081,0.640,7.097,-55.376,-14.514,3
0.638,-0.101,0.761,16.001,-73.144,5.726,3
0.632,-0.074,0.837,11.217,-72.137,23.514,3
0.671,0.167,0.944,8.878,-48.795,12.738,3
0.686,0.051,0.817,-2.332,-44.191,5.346,3
0.642,-0.017,0.748,-0.586,-45.522,7.315,3
0.616,0.131,0.942,17.573,-39.192,5.933,3
0.618,0.073,0.932,24.662,-41.817,1.789,3
0.561,-0.044,0.952,15.687,-40.558,6.279,3
0.590,-0.037,0.815,10.973,-27.503,10.942,3
0.576,0.041,0.751,6.049,-28.941,5.070,3
0.555,0.063,0.782,13.103,-32.142,1.098,3
0.546,-0.013,0.805,18.585,-34.516,3.688,3
0.496,0.003,0.912,11.671,-32.682,6.728,3
0.507,0.008,0.860,-7.186,-23.187,6.072,3
0.533,-0.008,0.782,-16.370,-17.756,3.896,3
0.530,0.191,0.740,-13.751,-32.214,2.963,3
0.505,0.132,0.905,0.602,-39.911,-5.050,3
0.457,-0.105,0.888,13.138,-29.876,-4.809,3
0.445,0.068,0.905,9.262,-21.748,-0.249,3
0.474,0.125,0.940,0.532,-28.078,1.789,3
0.473,-0.000,0.875,1.684,-27.538,-1.216,3
0.471,0.002,0.761,4.408,-31.747,3.101,3
0.500,0.153,0.805,1.055,-47.608,3.205,3
0.463,0.074,0.989,0.636,-42.464,-5.465,3
0.470,0.100,0.960,7.481,-28.330,-5.430,3
0.462,0.055,0.844,30.842,-26.567,-6.536,3
0.440,-0.075,0.862,40.341,-30.847,-1.355,3
0.402,-0.071,0.894,27.211,-35.955,9.111,3
0.377,0.000,1.047,25.395,-30.020,11.771,3
0.396,0.006,0.959,31.681,-22.755,12.254,3
0.390,0.078,0.793,24.138,-25.273,7.177,3
0.410,0.093,0.898,19.528,-36.602,0.200,3
0.408,-0.000,0.879,34.125,-37.681,-2.184,3
0.311,0.002,1.123,34.998,-33.869,0.200,3
0.317,-0.141,1.027,34.858,-17.216,4.068,3
0.306,-0.129,0.975,27.595,-10.634,8.006,3
0.311,-0.083,0.946,4.024,-11.533,8.040,3
0.319,-0.108,0.956,-14.484,-14.519,7.384,3
0.336,-0.009,0.908,-9.979,-13.907,5.415,3
0.323,-0.060,0.880,-5.929,-17.360,2.894,3
0.308,-0.023,0.951,-5.230,-17.648,0.960,3
0.297,-0.104,0.871,0.567,-12.684,-0.664,3
0.301,-0.049,0.828,-11.306,-24.517,0.511,3
0.297,-0.090,0.890,-11.132,-33.689,5.070,3
0.286,-0.072,0.925,-10.433,-39.479,13.083,3
0.272,0.038,1.129,-1.110,-29.085,7.039,3
0.273,0.014,1.101,0.951,-3.945,-5.638,3
0.311,-0.025,0.995,-11.236,-6.570,-6.743,3
0.310,-0.072,1.025,-8.059,-6.714,-3.703,3
0.303,-0.057,1.001,-3.589,-6.031,5.450,3
0.258,0.052,1.047,1.265,-3.513,3.170,3
0.271,-0.043,0.968,4.233,0.299,1.789,3
0.276,-0.054,0.942,5.979,3.860,-1.493,3
0.273,-0.062,0.844,-3.484,5.083,-0.767,3
0.260,-0.073,0.800,-5.719,-1.499,2.825,3
0.237,-0.019,0.906,-5.963,-15.022,5.174,3
0.222,0.032,1.020,0.916,-14.698,4.448,3
0.242,-0.035,0.929,-5.265,-8.512,-0.733,3
0.259,0.008,0.911,-8.303,-11.605,0.476,3
0.264,0.022,0.936,0.357,-15.993,-0.940,3
0.245,-0.001,0.984,7.027,-16.389,-1.009,3
0.209,0.028,1.120,6.678,-9.340,-7.744,3
0.224,-0.085,1.077,3.570,1.846,-6.328,3
0.252,-0.048,0.941,-1.075,5.083,-0.491,3
0.259,-0.013,0.918,-2.960,1.666,0.580,3
0.278,0.020,0.937,-7.151,-5.095,2.134,3
0.268,0.033,0.957,-4.392,-4.808,-1.216,3
0.248,-0.053,0.990,-2.471,-2.074,-1.216,3
0.244,-0.057,0.999,-7.709,0.731,4.655,3
0.206,0.003,0.953,-9.421,1.954,5.312,3
0.225,0.012,0.999,-10.294,-0.564,5.208,3
0.232,0.050,0.951,-7.430,0.012,1.236,3
0.237,0.057,0.983,-2.017,-3.081,-0.975,3
0.232,0.002,0.989,0.252,0.443,-4.636,3
0.228,-0.045,0.964,1.824,0.192,-1.700,3
0.238,-0.059,0.975,-0.341,0.875,1.029,3
0.244,-0.010,0.985,-1.808,0.012,5.519,3
0.243,0.031,0.995,-1.075,5.766,0.165,3
0.235,0.012,0.954,0.602,3.788,-1.527,3
0.237,-0.003,0.972,-0.691,2.098,-2.287,3
0.228,-0.063,0.928,-0.376,2.457,-1.078,3
0.245,0.011,0.955,-3.798,-1.679,3.136,3
0.235,0.026,0.973,-2.506,1.414,0.062,3
0.249,0.042,0.964,1.090,0.443,-0.146,3
0.249,-0.002,0.925,5.176,1.486,-3.531,3
0.252,-0.029,0.965,5.560,-2.290,-0.975,3
0.242,-0.006,0.953,0.741,-0.995,2.030,3
0.234,0.018,0.985,-0.795,-3.513,1.858,3
0.226,0.022,0.997,0.357,-1.859,-0.318,3
0.228,-0.012,0.989,2.522,0.048,-0.284,3
0.230,-0.012,0.988,0.078,-0.528,3.619,3
0.252,0.056,0.946,-2.157,-9.555,3.170,3
0.244,0.065,0.964,-2.821,-0.168,-1.838,3
0.229,0.017,0.980,1.998,2.386,-6.121,3
0.227,-0.019,0.994,7.201,4.436,-8.815,3
0.228,-0.102,0.969,6.049,2.565,-5.050,3
0.238,-0.072,0.958,-0.656,1.163,1.201,3
0.245,-0.007,0.965,-6.592,-0.851,3.861,3
0.225,0.033,0.969,-3.729,-0.492,1.581,3
0.237,0.017,0.986,-0.516,1.307,-3.116,3
0.237,-0.015,0.949,0.148,2.565,-4.256,3
0.248,-0.011,0.944,-2.716,-1.031,0.580,3
0.242,0.031,0.930,-2.297,-0.816,-0.629,3
0.237,0.051,0.943,0.357,-3.441,-0.284,3
0.241,0.037,0.948,2.068,-3.333,-4.325,3
0.243,-0.050,0.973,3.186,-3.009,-4.532,3
0.240,-0.040,0.981,-0.446,-1.139,1.029,3
0.228,-0.008,0.982,1.160,-1.535,4.276,3
0.224,-0.030,0.961,-0.097,-0.672,3.377,3
0.237,0.007,0.980,-6.348,-1.031,4.068,3
0.235,0.054,0.986,-5.405,-0.600,4.206,3
0.221,0.029,0.968,-2.471,-1.247,0.960,3
0.730,0.535,-0.689,-13.821,-14.087,78.675,4
0.986,0.663,-0.473,-13.367,-45.054,40.094,4
1.106,0.366,-0.106,-19.128,-31.711,0.269,4
1.169,0.420,-0.114,13.138,-21.532,-0.007,4
1.037,0.448,-0.372,60.769,5.910,-20.663,4
1.010,0.262,-0.224,32.833,-17.036,-32.164,4
0.931,0.040,-0.436,1.998,-10.239,-11.958,4
1.024,0.369,-0.193,18.481,-26.064,-11.682,4
0.966,0.178,-0.227,17.538,-9.879,-23.253,4
0.939,0.151,-0.226,-6.313,-11.426,-4.739,4
0.898,0.159,-0.280,-13.925,-10.922,-2.184,4
0.907,0.264,-0.214,12.370,-10.670,-3.289,4
0.878,0.148,-0.293,8.633,-18.727,-6.501,4
0.908,0.160,-0.242,17.573,-40.055,3.757,4
0.951,0.338,-0.111,28.503,-40.630,-0.698,4
0.945,0.246,-0.188,13.138,-20.165,-3.185,4
0.980,0.335,-0.172,16.211,-15.634,-2.978,4
0.958,0.271,-0.190,18.551,-9.807,-19.903,4
0.934,0.225,-0.251,37.757,-11.102,-21.215,4
0.974,0.285,-0.200,33.566,-24.517,-12.856,4
0.985,0.278,-0.151,17.747,-18.223,-15.205,4
0.998,0.115,-0.087,13.243,-19.194,-17.174,4
0.943,-0.043,-0.005,-0.586,15.190,0.338,4
0.910,0.309,-0.351,13.487,6.162,10.009,4
0.919,0.257,-0.210,9.960,-2.362,-1.596,4
0.930,0.286,-0.200,13.766,-4.196,-5.292,4
0.951,0.209,-0.162,7.935,-6.246,-9.230,4
0.952,0.171,-0.185,6.643,-4.700,-3.185,4
1.014,0.103,0.022,-0.516,-2.973,0.407,4
0.941,0.249,-0.289,0.148,18.786,6.382,4
0.968,0.289,-0.146,-1.389,4.759,4.414,4
0.933,0.239,-0.234,0.462,-0.780,1.098,4
0.934,0.210,-0.222,6.992,-5.203,-1.734,4
0.936,0.214,-0.179,15.932,-14.914,-0.698,4
0.950,0.236,-0.189,17.224,-20.093,-7.365,4
0.996,0.202,-0.055,2.732,-16.137,-4.636,4
0.975,0.244,-0.140,-4.741,3.249,5.174,4
0.959,0.230,-0.180,-3.205,-2.938,0.131,4
0.952,0.186,-0.159,3.500,-8.332,-8.435,4
0.958,0.166,-0.113,11.322,-9.447,-1.562,4
0.985,0.287,-0.140,11.322,-11.677,-0.007,4
0.980,0.254,-0.103,-1.354,3.788,-3.082,4
0.982,0.272,-0.153,2.767,-1.751,-7.434,4
0.961,0.165,-0.155,7.900,-1.103,-8.263,4
0.967,0.145,-0.123,7.341,-5.563,-1.424,4
0.983,0.213,-0.097,8.040,-4.017,0.338,4
0.977,0.254,-0.143,6.154,-1.607,-1.147,4
0.972,0.182,-0.133,-1.040,-3.585,-2.874,4
0.964,0.134,-0.129,0.741,-6.139,0.718,4
0.967,0.289,-0.144,7.027,-3.873,1.271,4
0.967,0.239,-0.124,3.709,-7.541,-4.912,4
0.969,0.190,-0.112,0.322,-3.837,-1.907,4
0.985,0.208,-0.091,1.719,-3.225,-2.218,4
0.954,0.200,-0.167,10.309,-3.009,-7.952,4
0.951,0.187,-0.125,12.055,-4.340,-2.080,4
0.920,0.200,-0.177,8.214,-5.491,-1.458,4
0.975,0.283,-0.089,-3.310,-6.354,-1.113,4
0.989,0.204,-0.105,-1.529,-4.592,-3.911,4
0.986,0.166,-0.125,5.386,-8.009,-7.434,4
0.964,0.156,-0.114,10.903,-9.232,-2.322,4
0.967,0.234,-0.074,9.890,-10.958,-2.874,4
0.998,0.177,-0.051,-5.056,-2.722,-4.049,4
0.976,0.161,-0.115,0.043,2.170,0.476,4
0.976,0.083,-0.096,2.452,-2.542,-0.733,4
0.999,0.223,-0.047,6.189,-2.398,1.305,4
0.972,0.207,-0.130,5.455,0.084,-5.603,4
0.960,0.187,-0.111,4.967,-2.074,-2.114,4
0.983,0.222,-0.068,-2.506,-3.189,-0.836,4
0.968,0.131,-0.111,-1.040,-2.110,-2.356,4
0.960,0.145,-0.104,4.582,-1.930,4.206,4
0.979,0.217,-0.090,4.513,-1.499,7.730,4
0.986,0.267,-0.062,7.621,-1.751,2.514,4
0.997,0.268,-0.087,-1.319,0.587,-9.748,4
0.964,0.109,-0.113,0.602,1.846,-10.059,4
0.941,0.091,-0.125,3.779,-1.067,-2.287,4
0.946,0.214,-0.120,10.379,-5.779,0.960,4
0.931,0.183,-0.104,9.087,-4.052,-3.323,4
0.952,0.214,-0.097,5.840,-3.405,-4.187,4
0.958,0.193,-0.137,6.503,-6.534,-6.156,4
0.963,0.162,-0.102,10.903,-11.749,-6.605,4
0.933,0.123,-0.168,6.014,-17.971,-1.804,4
0.945,0.173,-0.128,9.297,-36.242,0.787,4
0.960,0.238,-0.123,21.449,-59.908,-3.392,4
0.957,0.174,-0.051,17.643,-62.426,-7.675,4
0.911,0.076,-0.125,24.871,-68.216,-3.496,4
0.992,0.227,0.042,46.696,-102.492,15.432,4
0.978,0.234,0.076,24.836,-88.214,5.519,4
0.965,0.175,0.104,23.125,-93.213,11.771,4
0.950,0.255,0.004,25.779,-83.394,2.203,4
0.963,0.218,0.212,35.661,-90.695,-2.114,4
0.941,0.171,0.152,37.652,-81.452,-8.815,4
0.988,0.247,0.329,33.741,-72.892,-1.838,4
0.954,0.229,0.159,16.106,-47.931,-14.687,4
0.958,0.069,0.254,12.230,-51.996,-7.295,4
0.968,0.103,0.352,20.751,-44.371,-2.840,4
0.918,0.081,0.111,29.969,-46.852,-0.664,4
0.968,0.256,0.386,31.681,-54.010,3.136,4
0.983,0.277,0.325,13.871,-43.112,-8.055,4
0.943,0.159,0.198,9.157,-35.091,-17.554,4
0.939,0.064,0.339,14.954,-38.005,-12.960,4
0.899,0.120,0.130,31.436,-41.817,-6.674,4
0.912,0.188,0.362,38.420,-64.871,-11.475,4
0.938,0.167,0.436,28.608,-55.340,-19.350,4
0.926,0.100,0.385,13.976,-36.170,-16.449,4
0.886,0.050,0.270,11.427,-41.565,-7.295,4
0.881,0.105,0.312,22.671,-58.254,-3.012,4
0.885,0.201,0.467,31.681,-65.699,-5.396,4
0.875,0.111,0.439,27.735,-62.066,-11.475,4
0.863,0.149,0.424,12.090,-62.030,-2.943,4
0.863,0.043,0.496,19.424,-80.013,-8.573,4
0.845,0.087,0.457,33.601,-71.058,-19.903,4
0.832,0.159,0.506,44.147,-68.684,-16.587,4
0.850,0.167,0.584,38.909,-77.064,-26.189,4
0.810,0.002,0.526,14.814,-70.051,-28.607,4
0.742,-0.160,0.411,3.849,-73.863,-13.478,4
0.737,-0.103,0.616,-2.017,-77.532,2.928,4
0.739,0.155,0.863,0.148,-58.685,0.683,4
0.712,0.115,0.555,-0.900,-37.825,-14.238,4
0.717,0.068,0.407,18.725,-61.563,-25.429,4
0.822,-0.008,0.636,4.967,-64.296,-28.400,4
0.805,-0.031,0.574,-0.202,-41.457,-17.001,4
0.766,-0.099,0.549,4.338,-41.206,-8.781,4
0.750,-0.028,0.754,-3.973,-52.211,0.442,4
0.754,0.023,0.680,-4.217,-55.233,0.614,4
0.760,0.090,0.710,3.640,-53.470,-10.715,4
0.761,0.049,0.673,13.173,-62.210,-16.449,4
0.745,0.025,0.745,8.633,-65.375,-22.148,4
0.722,-0.061,0.822,7.376,-50.521,-17.347,4
0.676,-0.070,0.737,0.811,-45.665,-11.993,4
0.656,-0.051,0.701,-3.275,-38.220,-6.190,4
0.656,0.030,0.742,-6.243,-42.968,-4.705,4
0.669,0.029,0.691,0.078,-48.147,-4.394,4
0.658,0.039,0.682,2.452,-53.830,-9.195,4
0.621,-0.049,0.760,6.154,-57.067,-12.926,4
0.605,-0.048,0.837,2.173,-48.147,-5.879,4
0.596,0.005,0.848,-0.621,-45.701,-4.463,4
0.570,-0.053,0.777,-5.998,-43.004,-3.151,4
0.562,0.035,0.777,-14.798,-48.435,-0.526,4
0.570,0.074,0.891,-4.113,-53.938,-6.397,4
0.545,0.043,0.939,0.602,-35.091,-11.095,4
0.546,-0.036,0.804,1.335,-34.804,-8.297,4
0.543,0.038,0.829,-2.017,-42.105,-8.850,4
0.525,-0.114,0.865,-4.706,-40.378,-6.708,4
0.500,-0.009,0.918,-12.528,-29.984,0.200,4
0.510,0.060,0.874,-16.265,-25.273,-1.493,4
0.508,-0.011,0.835,-19.443,-26.495,-3.496,4
0.484,-0.047,0.834,-13.646,-29.049,0.027,4
0.467,0.003,0.848,-0.271,-33.329,3.308,4
0.470,0.052,0.890,9.017,-32.178,-1.493,4
0.473,0.043,0.849,-1.633,-31.171,-5.845,4
0.457,0.009,0.877,-12.214,-30.668,-9.575,4
0.452,-0.072,0.920,-11.970,-29.229,-8.884,4
0.433,-0.069,0.882,-10.259,-31.027,-1.285,4
0.424,-0.006,0.937,-3.519,-33.437,6.348,4
0.422,-0.011,0.907,-2.157,-32.682,9.077,4
0.413,0.055,0.882,-6.557,-29.732,6.072,4
0.410,0.016,0.817,-7.814,-34.552,4.345,4
0.394,0.008,0.835,-7.640,-44.694,6.866,4
0.360,0.117,1.105,-1.389,-42.249,6.555,4
0.369,0.040,0.999,0.741,-22.144,0.234,4
0.389,0.016,0.883,-4.462,-13.727,-0.318,4
0.390,0.032,0.850,-6.452,-19.806,1.823,4
0.383,0.098,0.930,-1.808,-27.610,0.580,4
0.366,0.072,0.986,7.062,-25.776,-1.942,4
0.360,0.050,1.025,13.557,-21.172,-1.873,4
0.351,0.003,1.014,21.798,-9.987,-4.325,4
0.339,-0.023,0.988,16.630,-6.570,-1.700,4
0.330,-0.046,1.000,9.611,-2.074,0.752,4
0.327,-0.043,0.937,2.278,-1.643,5.554,4
0.319,-0.011,0.962,-3.903,-2.002,4.103,4
0.318,-0.062,0.950,-2.052,-2.686,4.897,4
0.310,-0.050,0.940,-0.656,-3.045,9.042,4
0.315,-0.012,0.960,-4.183,-2.902,9.906,4
0.333,0.041,0.949,-10.119,-2.938,12.323,4
0.341,0.060,0.892,-15.462,-5.707,6.382,4
0.327,0.064,0.891,-5.579,-11.174,6.037,4
0.315,0.029,0.974,-3.694,-14.914,6.452,4
0.327,0.053,0.999,-4.532,-7.649,6.693,4
0.326,0.063,0.936,-6.767,-2.146,5.795,4
0.330,0.093,0.883,-7.081,-0.384,0.407,4
0.317,0.132,0.848,-5.265,-2.722,-2.736,4
0.309,0.074,0.924,2.138,-13.440,-4.463,4
0.293,-0.031,0.995,9.436,-10.131,-2.633,4
0.287,-0.011,1.026,2.208,-5.167,2.134,4
0.294,0.030,0.995,-4.916,-1.283,2.445,4
0.301,0.045,0.985,-7.605,-1.283,1.201,4
0.294,0.090,1.011,-3.973,-0.024,-1.665,4
0.302,0.019,0.986,-0.760,2.134,-1.804,4
0.309,-0.005,0.957,0.497,0.371,1.547,4
0.314,0.021,0.900,-1.703,-0.060,3.239,4
0.313,0.054,0.873,-5.335,-2.218,2.307,4
0.298,0.059,0.918,-5.160,-3.225,-0.180,4
0.301,-0.009,0.917,-2.611,-5.959,0.131,4
0.294,-0.016,1.009,-0.027,-5.203,2.894,4
0.303,0.016,0.989,-3.868,-3.549,7.695,4
0.300,0.076,0.978,-2.925,-2.074,6.382,4
0.295,0.076,0.958,-4.113,-0.420,3.239,4
0.295,0.107,0.955,-4.287,-0.060,0.856,4
0.286,0.055,0.934,2.941,-2.038,-0.595,4
0.282,0.039,0.968,3.744,-3.009,0.925,4
0.343,0.252,1.401,6.119,-67.785,31.321,5
0.229,0.272,1.376,2.278,-56.347,27.210,5
0.175,0.308,1.435,15.338,-41.134,18.506,5
0.158,0.189,1.655,9.017,-8.836,8.662,5
0.097,0.167,2.014,0.881,56.731,-4.221,5
0.072,0.054,2.424,-34.458,190.022,-24.048,5
-0.048,-0.322,2.271,-129.826,376.939,-18.452,5
-0.305,-0.364,1.531,-241.919,519.365,4.448,5
-0.333,-0.026,0.652,-214.752,531.342,46.242,5
-0.073,0.598,0.719,-149.835,427.220,14.430,5
0.031,0.830,1.616,-101.924,427.759,-101.729,5
-0.162,0.055,1.965,-60.439,542.492,-195.609,5
-0.761,-1.523,-0.019,197.517,795.982,-223.207,5
-0.214,0.794,-2.081,-75.839,485.233,10.493,5
0.308,-0.323,-0.220,-78.213,207.250,-92.852,5
0.367,-0.633,-0.382,-59.007,319.932,-26.396,5
0.501,-0.145,-0.565,-80.378,244.187,36.847,5
0.468,-0.174,-0.635,-53.979,118.737,22.651,5
0.635,-0.378,-0.643,-15.567,57.917,25.483,5
0.800,0.357,-0.610,-9.246,49.034,86.689,5
0.982,0.793,-0.622,-71.928,9.938,-9.057,5
0.813,-0.195,-0.564,-40.674,-10.886,-44.081,5
1.060,0.362,-0.401,18.970,-18.331,-6.846,5
0.781,0.039,-1.259,272.979,-78.898,-100.623,5
1.093,-0.092,-0.245,-18.605,10.334,-30.921,5
1.009,0.351,-0.482,-15.636,-67.461,-27.260,5
1.016,0.044,-0.157,-4.846,-53.075,-19.246,5
1.144,0.340,0.107,37.233,-58.757,2.790,5
1.102,0.250,-0.078,-19.827,-11.929,-12.718,5
0.995,0.085,-0.210,-28.033,-17.360,-19.281,5
0.972,0.022,-0.118,-30.443,-20.597,-16.518,5
0.981,0.071,0.010,-3.903,-26.891,-9.644,5
0.969,0.013,-0.069,24.033,-16.317,9.008,5
1.008,0.328,-0.173,30.039,-5.707,1.098,5
0.946,-0.031,-0.140,-6.767,-1.463,-13.305,5
0.970,-0.013,-0.088,5.281,-4.808,-0.526,5
0.944,0.033,-0.171,27.525,-9.915,8.973,5
0.963,0.178,-0.141,43.239,-10.383,13.740,5
0.962,0.243,-0.185,39.153,-13.799,4.517,5
0.950,0.114,-0.197,56.649,-36.926,-7.572,5
0.958,0.048,-0.087,65.972,-42.464,-3.392,5
0.928,0.049,-0.119,76.588,-46.565,-0.698,5
0.912,0.078,-0.177,81.372,-63.325,4.828,5
0.997,0.279,-0.015,65.867,-79.510,-1.458,5
0.974,0.076,0.013,33.357,-67.965,-2.114,5
0.924,0.096,-0.115,43.309,-75.985,10.216,5
0.955,0.202,-0.022,52.947,-105.082,2.618,5
0.980,0.183,0.139,50.607,-100.262,-6.846,5
0.933,0.139,0.000,42.401,-87.243,-8.919,5
0.923,0.079,0.000,43.099,-102.924,-8.124,5
0.962,0.103,0.238,29.585,-89.832,4.966,5
0.948,0.093,0.202,30.039,-89.544,5.105,5
0.956,0.205,0.265,38.839,-84.797,2.756,5
0.921,0.219,0.204,39.607,-90.372,-17.381,5
0.930,0.183,0.265,51.760,-103.391,-32.959,5
0.924,-0.150,0.438,45.893,-99.111,-26.293,5
0.886,-0.151,0.331,37.128,-85.264,-3.358,5
0.878,0.096,0.343,39.188,-85.876,4.414,5
0.869,0.151,0.404,32.658,-102.672,-1.769,5
0.883,0.242,0.454,26.408,-98.248,-14.618,5
0.843,-0.010,0.517,21.693,-89.652,-27.881,5
0.798,-0.153,0.324,27.630,-98.068,-13.375,5
0.801,-0.036,0.490,31.401,-129.215,-2.080,5
0.818,0.128,0.527,33.566,-116.843,-11.302,5
0.795,0.114,0.510,23.125,-127.417,-13.340,5
0.782,-0.051,0.663,16.351,-89.257,-22.217,5
0.752,-0.193,0.607,15.478,-93.429,-4.083,5
0.702,-0.170,0.650,5.490,-98.896,11.287,5
0.694,-0.040,0.745,-4.986,-91.127,17.919,5
0.725,0.210,0.767,-9.770,-71.345,9.767,5
0.712,0.099,0.711,4.059,-69.223,-8.539,5
0.686,-0.057,0.683,9.262,-80.193,-4.670,5
0.646,-0.037,0.670,0.671,-89.976,3.550,5
0.622,0.076,0.903,-10.049,-80.877,2.928,5
0.600,0.013,0.873,-24.646,-67.209,1.132,5
0.613,0.104,0.879,-9.246,-56.743,1.167,5
0.586,-0.070,0.697,10.763,-62.318,-7.537,5
0.564,-0.041,0.733,13.976,-75.302,-2.391,5
0.535,0.068,0.814,0.217,-75.805,-0.767,5
0.516,0.043,0.899,-11.411,-66.166,-4.670,5
0.514,-0.012,0.822,-21.503,-74.762,-3.703,5
0.540,0.014,0.876,-4.148,-69.151,-4.290,5
0.523,0.045,0.903,11.392,-63.397,-5.430,5
0.481,0.047,1.039,16.735,-52.032,-9.195,5
0.456,-0.037,0.860,11.113,-38.256,-11.578,5
0.448,-0.094,0.816,-5.021,-49.262,-7.952,5
0.467,-0.029,0.929,-10.817,-50.809,-3.703,5
0.461,-0.054,0.898,-8.513,-43.220,3.654,5
0.427,0.018,0.962,-3.275,-43.292,1.236,5
0.418,0.042,0.960,-1.983,-39.156,0.787,5
0.403,0.082,0.956,-2.821,-32.250,-4.498,5
0.396,-0.032,0.881,6.049,-31.962,-9.679,5
0.411,0.029,0.865,14.220,-33.761,-1.804,5
0.368,0.062,0.930,26.338,-36.602,-1.631,5
0.357,0.088,0.907,31.715,-28.186,-5.534,5
0.347,0.137,0.879,19.144,-37.753,-13.271,5
0.342,-0.068,0.910,12.684,-40.738,-20.939,5
0.296,-0.170,1.057,6.014,-38.652,-11.751,5
0.295,-0.166,1.069,-5.405,-22.000,-1.355,5
0.314,-0.060,0.948,-10.957,-12.864,1.961,5
0.332,-0.047,0.920,-12.982,-21.208,2.963,5
0.310,0.071,1.012,-10.154,-29.013,-0.215,5
0.319,0.069,1.062,14.430,-13.620,-12.856,5
0.300,-0.066,0.991,24.976,-8.261,-12.546,5
0.294,-0.121,1.017,20.960,-5.095,-5.948,5
0.298,-0.016,1.045,2.417,-3.909,-1.838,5
0.311,0.026,1.023,-1.459,10.082,-8.573,5
0.301,-0.199,0.883,5.805,4.579,-14.860,5
0.338,-0.175,0.970,-0.132,2.673,-2.633,5
0.341,-0.132,0.977,-3.065,8.608,4.828,5
0.324,0.013,1.008,3.395,20.692,1.409,5
0.276,0.010,0.905,2.836,17.168,-6.985,5
0.307,-0.044,0.936,1.230,12.888,-3.254,5
0.304,-0.086,0.901,-2.681,8.464,1.547,5
0.306,-0.034,0.918,-1.773,2.170,6.624,5
0.334,0.133,1.064,1.160,2.961,2.514,5
0.305,-0.064,0.896,8.214,26.159,-12.995,5
0.312,-0.191,0.813,9.052,15.190,-4.532,5
0.325,-0.160,0.824,8.424,3.788,7.453,5
0.351,0.030,0.966,12.963,-5.491,10.493,5
0.342,0.052,0.964,28.642,-4.664,3.412,5
0.325,0.006,0.984,18.725,-0.060,-1.769,5
0.312,-0.056,0.920,5.979,7.205,-6.605,5
0.324,-0.136,0.785,6.992,-2.146,-0.595,5
0.310,-0.065,0.878,10.728,-13.080,2.549,5
0.319,0.048,1.056,24.103,-5.563,-2.184,5
0.333,-0.155,0.939,19.703,6.090,-6.605,5
0.326,-0.210,0.953,11.043,8.464,1.754,5
0.328,-0.173,0.923,7.900,8.464,14.638,5
0.333,-0.078,0.897,15.652,1.127,20.268,5
0.306,0.005,1.048,21.519,-1.930,0.131,5
0.306,-0.036,0.980,29.027,6.558,-2.943,5
0.367,-0.116,1.022,14.674,8.392,0.027,5
0.309,-0.288,0.889,8.598,11.377,6.452,5
0.261,-0.206,0.877,2.452,6.881,19.128,5
0.347,0.181,0.938,7.167,-1.894,24.033,5
0.345,-0.002,0.884,13.522,-0.600,1.305,5
0.342,-0.012,0.815,13.033,-5.383,-11.682,5
0.328,-0.281,0.908,7.167,-7.793,-13.236,5
0.304,-0.169,0.969,-2.297,-4.448,2.549,5
0.302,-0.212,1.037,-1.494,-4.412,16.814,5
0.339,-0.031,0.931,4.408,3.608,18.955,5
0.359,0.181,0.877,2.243,7.025,-7.054,5
0.331,-0.037,0.947,-7.919,9.075,-30.610,5
0.301,-0.429,0.839,-11.411,6.126,-6.397,5
0.329,-0.209,0.937,-8.862,-1.391,6.659,5
0.344,-0.003,1.007,17.573,13.895,-7.468,5
0.354,-0.013,0.928,16.385,11.521,-8.055,5
0.325,-0.195,0.870,-16.824,9.255,-16.794,5
0.292,-0.406,0.914,-47.903,8.788,1.029,5
0.324,-0.169,1.018,-43.398,12.456,23.687,5
0.375,0.290,0.729,16.141,12.492,9.180,5
0.395,0.044,0.923,47.569,-12.397,-23.184,5
0.353,-0.107,0.938,33.112,-8.836,-16.829,5
0.350,-0.051,0.877,-1.529,-4.160,-2.322,5
0.337,-0.135,0.963,-5.440,-1.175,-2.011,5
0.302,-0.236,1.092,4.338,16.880,8.386,5
0.347,-0.049,0.692,-0.900,19.541,8.766,5
0.339,-0.180,0.734,-6.487,1.594,-2.253,5
0.366,-0.112,0.780,-5.824,-18.259,1.996,5
0.346,0.017,0.896,5.665,-25.704,3.308,5
0.307,-0.089,0.948,10.309,-17.216,0.545,5
0.308,-0.130,1.017,-7.465,-3.369,-7.019,5
0.328,-0.147,0.920,6.817,-1.643,12.634,5
0.332,-0.065,0.934,3.325,-2.002,12.911,5
0.351,-0.024,0.913,12.719,-4.304,7.488,5
0.313,-0.080,1.061,-3.868,-8.980,-13.582,5
0.293,-0.284,0.963,1.300,1.091,-8.539,5
0.322,-0.288,0.853,-4.811,-2.038,6.486,5
0.329,-0.076,0.944,-13.122,-6.786,11.253,5
0.335,-0.088,0.992,-13.855,-4.808,16.917,5
0.299,-0.176,0.913,-5.649,4.040,7.108,5
0.303,-0.092,0.939,-4.951,0.228,9.457,5
0.301,-0.156,0.906,1.929,-10.419,18.852,5
0.351,-0.083,0.908,-0.481,-11.174,14.223,5
0.340,-0.006,0.940,-15.008,-9.771,-7.330,5
0.308,-0.153,0.938,-7.046,-3.765,-9.990,5
0.278,-0.105,0.934,9.925,1.738,-4.705,5
0.319,0.085,0.989,-7.849,-3.621,-7.295,5
0.311,-0.120,1.063,-7.221,-5.635,6.935,5
0.315,-0.025,0.884,-7.919,1.810,7.419,5
0.323,-0.086,0.879,-4.741,1.019,-0.146,5
0.309,-0.101,0.877,8.179,-5.095,-6.466,5
0.283,-0.085,1.064,20.716,-4.988,-6.017,5
0.304,-0.181,0.883,18.166,-0.240,1.409,5
0.337,-0.058,0.868,1.265,-3.153,3.654,5
0.280,-0.044,1.031,-8.478,-12.433,3.101,5
0.281,-0.088,0.906,12.544,1.594,0.960,5
0.293,-0.132,0.918,17.328,-1.103,11.218,5
0.293,-0.208,0.885,7.970,0.803,11.011,5
0.332,-0.117,0.871,-21.189,-6.426,7.039,5
0.302,-0.053,1.031,-16.405,-6.930,4.897,5
0.303,-0.065,0.968,-13.855,-6.966,-1.804,5
0.286,-0.097,1.043,-6.452,-21.065,-1.251,5
0.294,-0.074,0.955,3.744,-11.318,2.894,5
0.289,-0.094,0.830,-15.427,-14.231,4.725,5
0.286,0.020,0.977,-16.579,-6.246,4.794,5
0.262,-0.131,0.910,-10.887,-9.375,-0.249,5
0.267,-0.130,0.987,-9.246,-5.887,3.896,5
0.289,-0.156,0.902,-29.989,-9.879,7.833,5
0.261,0.233,1.078,2.382,18.966,-32.303,6
0.291,-0.184,0.901,5.560,2.817,-19.488,6
0.205,-0.009,0.929,4.024,-13.440,-37.242,6
0.165,-0.283,0.968,-1.284,-28.438,-27.640,6
0.196,-0.153,1.069,6.643,-16.281,12.254,6
0.155,-0.141,0.989,5.246,-2.866,23.376,6
0.153,-0.072,1.047,2.732,-2.650,22.444,6
0.184,-0.082,0.972,0.811,-0.204,7.764,6
0.229,-0.060,0.962,8.109,-11.533,16.226,6
0.141,-0.050,1.034,2.348,4.867,9.318,6
0.150,-0.110,1.081,-0.900,8.752,9.767,6
0.181,-0.086,0.934,17.468,31.770,32.288,6
0.139,-0.017,0.883,9.401,19.937,24.620,6
0.219,-0.160,0.969,6.608,9.507,26.658,6
0.219,0.068,0.845,-13.751,-9.088,13.567,6
0.162,-0.108,1.078,-26.252,-32.322,-26.154,6
0.202,-0.159,1.031,-0.970,16.125,1.236,6
0.161,-0.020,0.947,4.268,6.594,-1.907,6
0.261,-0.172,1.064,6.259,5.119,-3.254,6
0.182,-0.033,0.953,5.071,20.513,4.172,6
0.227,-0.125,0.928,3.116,7.960,-4.878,6
0.215,-0.093,0.859,5.770,1.235,11.356,6
0.253,-0.079,0.917,10.938,-0.492,20.164,6
0.131,-0.051,0.912,1.579,0.228,17.815,6
0.173,-0.159,0.997,-0.970,-16.641,21.857,6
0.248,-0.089,0.965,-3.659,-2.290,19.646,6
0.265,-0.094,0.912,-9.560,5.191,9.698,6
0.240,0.012,0.876,-7.535,5.227,-4.532,6
0.239,-0.064,0.846,-8.129,-17.252,-24.048,6
0.197,-0.052,0.907,-21.887,-45.594,-28.158,6
0.160,-0.181,1.082,-32.608,-49.406,-14.134,6
0.183,-0.026,1.097,-34.528,-22.395,-1.009,6
0.165,-0.029,0.931,-23.493,-11.030,-9.679,6
0.155,-0.009,0.968,-14.100,-28.581,-13.305,6
0.164,-0.030,0.916,-10.119,-56.707,-18.901,6
0.156,-0.017,0.985,-9.875,-66.634,-30.783,6
0.108,0.023,0.931,-7.395,-57.966,-54.408,6
0.092,-0.138,0.973,-13.751,-75.014,-50.989,6
0.011,-0.236,1.221,-10.049,-66.778,5.795,6
0.067,-0.039,1.147,-41.861,-9.196,33.082,6
0.107,-0.134,0.891,-19.513,-2.254,-19.212,6
0.073,0.101,0.931,-4.881,-6.822,-15.378,6
0.074,0.085,0.773,21.833,-58.434,-35.273,6
0.189,0.088,0.750,48.268,-96.917,-26.742,6
0.151,0.332,0.809,16.071,-103.391,-87.843,6
0.334,0.713,0.208,107.318,-94.652,-118.550,6
0.226,-0.370,-0.655,4.792,-322.534,-207.837,6
-0.329,-0.628,0.312,-50.068,-398.387,-120.899,6
-0.950,-1.898,-0.862,36.360,-537.217,29.835,6
-0.908,0.147,-1.381,113.883,-770.926,229.409,6
-1.864,2.686,1.436,305.630,-838.615,-0.975,6
-2.719,-0.709,1.693,154.635,-531.462,-362.888,6
-3.130,-1.913,2.838,28.922,-232.079,-215.988,6
-2.246,-1.659,0.781,159.908,-78.467,-9.126,6
-0.778,-0.019,0.711,110.007,-122.382,211.345,6
-0.374,0.235,0.449,36.011,-104.578,150.070,6
-0.125,0.839,0.164,-10.259,-54.693,106.757,6
-0.634,0.241,-0.288,-79.855,-72.065,-30.541,6
-0.888,-0.718,-0.382,-69.728,-124.036,-72.646,6
-1.344,-0.648,0.919,-66.026,-122.921,0.891,6
-1.140,-0.146,0.514,-22.690,-8.153,11.045,6
-0.844,0.024,0.255,-4.462,2.206,-16.656,6
-0.883,0.213,0.346,24.522,17.096,-45.290,6
-1.072,-0.245,0.285,4.652,41.085,-84.700,6
-1.361,-0.905,0.324,10.484,32.633,-14.169,6
-1.150,-0.275,0.228,30.249,38.676,77.639,6
-0.597,0.504,-0.096,27.944,14.614,47.762,6
-0.831,0.133,0.448,3.290,5.083,-29.574,6
-1.063,-0.137,0.554,6.294,38.604,-37.622,6
-1.227,-0.425,0.385,9.471,75.937,-32.095,6
-1.039,-0.588,-0.451,16.036,59.644,-0.526,6
-0.799,-0.094,-0.011,23.754,-26.316,48.487,6
-0.923,-0.024,0.554,11.706,-7.721,14.534,6
-0.871,-0.090,0.417,16.560,25.943,1.236,6
-0.886,-0.060,0.244,-5.649,40.078,-0.560,6
-1.035,-0.286,0.266,-18.360,29.648,-16.621,6
-1.134,-0.420,0.268,4.373,44.970,3.792,6
-0.846,-0.156,0.155,23.893,22.455,35.258,6
-0.841,0.018,0.372,18.865,7.457,24.274,6
-1.020,-0.160,0.652,16.455,40.941,1.927,6
-1.164,-0.130,0.820,10.519,98.164,1.443,6
-1.040,-0.356,0.235,21.065,122.693,1.443,6
-0.873,-0.209,0.073,41.458,109.709,26.520,6
-0.706,-0.054,0.201,33.985,70.542,18.195,6
-0.852,-0.208,0.591,19.563,73.311,-4.221,6
-1.020,-0.237,0.726,-8.792,120.283,1.581,6
-1.070,-0.570,0.091,-0.970,119.024,7.211,6
-0.930,-0.380,0.412,22.811,65.938,52.736,6
-0.780,-0.093,0.866,52.214,91.222,49.696,6
-0.720,-0.093,0.482,53.890,116.327,25.967,6
-0.802,-0.193,0.679,-4.671,117.550,7.937,6
-0.878,-0.474,0.445,-41.233,122.693,21.580,6
-0.777,-0.293,0.429,-40.814,80.037,45.033,6
-0.632,-0.082,0.711,-9.421,93.560,20.026,6
-0.600,-0.322,0.677,26.827,114.097,-15.447,6
-0.761,-0.135,0.770,33.112,132.620,3.792,6
-0.814,-0.483,0.359,-17.382,123.160,-13.962,6
-0.729,-0.558,0.759,-4.986,60.004,47.313,6
-0.571,-0.029,0.916,-4.881,63.312,53.012,6
-0.609,-0.240,0.826,-8.373,106.904,10.838,6
-0.613,-0.348,0.808,14.709,105.681,11.909,6
-0.574,-0.225,0.655,-1.564,103.739,7.868,6
-0.548,-0.493,0.651,-16.230,79.281,9.664,6
-0.477,-0.229,0.958,-28.487,84.928,34.118,6
-0.385,-0.205,0.752,-57.960,108.198,15.087,6
-0.340,-0.106,0.640,-39.138,93.380,0.545,6
-0.484,-0.380,0.951,-23.389,86.223,-24.186,6
-0.433,-0.391,0.915,-9.979,77.088,2.134,6
-0.374,-0.254,0.981,-13.611,64.931,24.585,6
-0.298,-0.029,0.823,-38.823,82.303,10.769,6
-0.240,-0.240,0.609,-59.880,78.562,-12.200,6
-0.279,-0.273,0.845,-62.814,43.819,-4.601,6
-0.430,-0.334,0.981,-48.846,48.279,-6.087,6
-0.395,-0.196,0.947,-7.430,58.745,20.682,6
-0.270,-0.077,0.967,-17.347,44.646,3.723,6
-0.228,-0.149,0.931,-44.061,54.645,1.132,6
-0.215,-0.220,0.700,-71.055,62.305,-8.159,6
-0.299,-0.181,0.950,-58.483,37.381,5.208,6
-0.272,-0.092,0.980,-20.944,31.590,6.555,6
-0.248,-0.024,0.967,13.033,21.340,3.308,6
-0.216,-0.018,0.994,6.922,49.358,-11.544,6
-0.095,-0.119,0.824,-12.354,53.278,-12.373,6
-0.086,-0.143,0.733,-25.868,40.438,-8.055,6
-0.084,-0.100,0.856,-17.347,6.306,-2.391,6
-0.254,-0.128,1.164,-5.614,-1.966,-4.912,6
-0.252,-0.065,1.164,3.814,35.079,-17.278,6
-0.183,-0.049,0.966,-2.017,53.206,-11.578,6
-0.036,-0.161,0.759,4.513,29.144,-23.460,6
-0.073,-0.181,0.921,-11.271,8.716,-13.305,6
-0.190,-0.164,1.039,-10.538,-2.686,-4.290,6
-0.193,-0.010,1.186,-10.992,25.548,-0.146,6
-0.164,-0.013,0.872,-13.960,43.603,-12.995,6
-0.066,-0.100,0.810,3.675,20.117,-17.865,6
-0.028,-0.156,0.810,6.049,-4.916,-15.240,6
-0.187,-0.181,1.030,-5.230,-17.684,-5.810,6
-0.274,-0.091,1.304,-7.360,18.786,7.246,6
-0.136,0.003,0.941,-25.798,42.020,-17.243,6
0.043,-0.158,0.751,-32.643,21.304,-7.917,6
-0.023,-0.076,0.874,-25.519,-5.779,-15.551,6
-0.091,-0.177,0.970,-14.903,-20.165,-2.253,6
-0.263,-0.017,1.314,-10.294,-4.736,9.526,6
-0.190,-0.005,1.182,-10.363,28.641,12.669,6
-0.057,-0.019,0.904,-14.484,24.505,1.478,6
0.006,-0.013,0.818,-10.887,-0.887,-4.705,6
-0.079,-0.044,1.011,-2.437,-15.274,-6.190,6
-0.139,-0.052,1.158,-1.668,7.169,6.728,6
-0.140,-0.054,1.075,-0.097,13.355,10.458,6
-0.112,0.021,0.949,0.497,22.635,11.184,6
-0.005,0.016,0.871,-6.173,15.441,3.447,6
0.019,-0.075,0.873,0.567,-8.908,8.697,6
-0.076,-0.016,1.004,-0.725,-11.102,2.445,6
-0.244,-0.064,1.240,0.217,5.335,0.407,6
-0.098,0.019,0.964,-1.040,22.347,-0.249,6
-0.051,-0.069,0.769,1.649,6.090,-4.360,6
-0.075,-0.128,0.928,6.049,-11.641,-2.529,6
-0.093,-0.062,1.021,3.884,-13.979,4.759,6
-0.196,-0.058,1.195,-2.332,-2.002,4.897,6
-0.107,-0.006,1.123,-1.144,23.066,8.110,6
-0.006,-0.046,0.849,6.363,14.075,1.961,6
-0.022,-0.038,0.909,2.487,-6.426,-1.078,6
-0.112,-0.102,1.009,-2.995,-7.937,1.029,6
-0.102,-0.038,0.996,-1.354,-0.348,3.827,6
-0.089,-0.015,1.016,1.090,0.911,7.246,6
-0.030,0.060,0.936,-5.684,8.644,2.203,6
-0.047,-0.078,0.959,-2.541,-2.254,-2.909,6
-0.073,-0.069,0.968,1.021,-8.944,4.586,6
-0.122,-0.100,1.038,3.186,-5.095,10.493,6
-0.081,-0.027,0.986,1.719,-1.679,8.317,6
-0.059,-0.037,0.969,-3.903,-0.564,8.420,6
-0.028,0.001,0.990,-3.554,-1.319,2.445,6
-0.056,-0.025,0.946,-6.068,-0.636,2.203,6
-0.087,0.037,0.991,-4.008,-3.153,2.549,6
-0.103,0.008,1.030,-1.529,0.515,4.655,6
-0.076,0.007,0.968,0.532,0.192,4.276,6
-0.078,0.004,0.951,1.894,-3.513,1.789,6
-0.054,0.005,0.924,3.849,-8.296,-4.325,6
-0.090,-0.047,0.982,4.932,-9.447,-7.641,6
-0.128,-0.095,1.002,-0.097,-5.923,-3.807,6
-0.116,-0.052,1.040,0.217,-4.628,0.649,6
-0.103,-0.022,1.066,4.862,-0.600,-0.975,6
-0.062,0.004,0.953,8.843,-2.254,-10.162,6
-0.118,-0.085,1.030,-0.376,-4.232,-6.950,6
-0.144,-0.112,1.010,-6.068,-1.930,-1.078,6
-0.121,-0.042,1.019,-2.646,-2.650,5.968,6
-0.114,-0.026,1.035,2.802,2.206,0.200,6
-0.077,0.029,0.998,2.767,2.242,-0.215,6
-0.106,-0.030,0.985,1.125,-1.894,-0.215,6
-0.137,-0.042,1.033,-2.157,2.242,4.103,6
-0.124,-0.066,1.011,-1.738,9.615,3.585,6
-0.095,-0.036,1.011,-1.564,9.687,1.789,6
-0.076,0.002,0.984,-2.925,11.197,3.067,6
-0.054,-0.019,0.955,-1.668,4.256,1.858,6
-0.077,-0.026,0.978,0.881,-0.672,1.063,6
-0.141,-0.055,1.039,6.503,2.817,2.030,6
-0.081,-0.030,0.968,5.770,5.622,6.175,6
-0.057,-0.087,0.930,-1.459,4.400,1.409,6
-0.063,-0.062,0.953,-5.894,2.457,0.062,6
-0.065,-0.038,0.955,-3.205,-0.240,-0.215,6
-0.114,-0.064,1.004,3.989,-1.607,2.203,6
-0.057,-0.060,1.012,2.313,2.673,5.312,6
-0.421,-0.821,-0.751,-20.386,-442.770,-113.990,7
-0.923,-0.522,-0.867,41.353,-651.158,-2.184,7
-1.151,0.795,-0.909,31.681,-793.081,-39.763,7
-2.530,0.486,0.838,27.874,-824.840,-125.112,7
-2.794,-0.193,1.535,-0.097,-518.407,-143.799,7
-2.262,0.179,1.389,-4.846,-265.779,-134.715,7
-1.401,-0.012,0.425,30.074,-224.670,-175.403,7
-1.124,-0.673,-0.116,-30.128,-227.044,-122.833,7
-0.960,0.235,0.257,11.392,-249.523,64.238,7
-0.926,-0.061,0.708,-58.344,-418.169,55.015,7
-1.099,0.463,0.029,-17.941,-173.130,-50.471,7
-1.457,-0.073,0.248,-16.195,-72.604,12.772,7
-1.842,-0.065,0.676,-2.262,-35.271,-74.166,7
-1.315,-0.476,0.429,-35.960,5.227,16.952,7
-1.069,0.183,0.265,-25.274,66.082,105.271,7
-0.862,0.414,0.148,-24.785,48.782,57.502,7
-0.873,0.447,0.148,-38.055,47.307,15.121,7
-1.001,0.313,-0.349,-19.652,40.294,-19.108,7
-1.057,0.011,-0.129,-13.052,19.541,-32.130,7
-1.074,-0.041,0.080,-2.017,12.960,2.134,7
-1.000,0.144,0.079,9.681,12.096,15.225,7
-0.883,0.444,-0.075,16.351,-5.491,7.799,7
-0.832,0.138,-0.091,11.916,-0.240,-36.309,7
-1.009,-0.122,-0.102,-2.262,1.666,-9.575,7
-1.046,-0.005,0.089,-5.056,-5.599,18.230,7
-1.016,0.166,0.116,-5.021,-2.434,18.852,7
-0.792,0.319,0.051,9.087,4.759,3.896,7
-0.846,0.241,-0.070,3.395,-3.729,-16.172,7
-1.018,0.071,-0.051,3.465,-3.441,-25.326,7
-1.150,-0.160,-0.052,5.176,-4.952,-9.886,7
-1.080,0.032,0.019,2.068,-11.390,25.034,7
-0.998,0.266,0.066,-3.833,-7.865,16.745,7
-0.936,0.233,0.032,11.427,0.407,1.271,7
-0.957,0.237,0.008,1.929,7.709,-10.853,7
-0.999,0.111,-0.008,-0.725,7.025,-19.108,7
-1.065,-0.014,-0.074,-5.544,9.471,-8.919,7
-1.039,-0.023,-0.085,-3.554,3.429,7.108,7
-0.922,0.179,-0.038,-6.452,2.745,20.889,7
-0.939,0.228,-0.003,-7.570,2.601,2.825,7
-1.029,0.112,0.016,-2.262,6.054,-6.812,7
-1.064,0.090,0.035,-0.586,16.484,-3.600,7
-1.121,0.010,0.051,-11.621,14.075,4.863,7
-1.124,0.079,-0.112,7.376,9.507,16.261,7
-0.958,0.117,-0.055,17.398,-17.612,10.838,7
-0.938,0.078,0.133,26.547,-20.093,25.138,7
-1.128,0.084,0.261,48.128,-4.772,42.926,7
-1.019,0.186,0.109,58.918,17.527,31.252,7
-0.961,-0.009,-0.007,43.972,40.726,16.192,7
-0.989,0.093,-0.192,39.922,31.230,44.204,7
-1.087,0.030,0.034,30.284,4.472,14.914,7
-1.095,-0.182,0.147,41.319,27.706,16.779,7
-1.005,-0.073,0.196,23.928,-0.204,42.753,7
-0.901,0.407,-0.175,-17.627,47.451,42.235,7
-0.879,0.024,0.101,-14.240,26.267,-35.549,7
-1.055,0.074,0.368,4.024,26.087,22.375,7
-1.091,-0.197,0.426,-1.144,155.638,38.540,7
-1.122,-0.093,0.059,-87.432,104.026,117.637,7
-1.153,-0.089,0.166,-89.632,103.703,110.314,7
-0.896,0.154,-0.232,-62.639,103.271,71.491,7
-1.027,-0.138,0.311,-4.078,68.456,30.284,7
-0.976,-0.389,0.801,21.204,121.362,58.711,7
-1.236,-0.093,0.885,47.185,268.212,178.324,7
-0.987,0.187,-0.313,-19.303,294.396,108.380,7
-0.796,0.207,-0.268,-19.687,104.818,18.333,7
-0.898,-0.415,0.416,-29.011,49.897,6.693,7
-0.923,-0.228,0.635,-6.068,73.419,27.279,7
-0.762,0.255,0.622,-25.554,104.350,22.202,7
-0.767,-0.035,0.590,-42.211,114.708,-46.257,7
-0.964,-0.697,0.305,-33.166,106.508,-25.913,7
-0.799,-0.809,0.442,7.271,58.961,52.528,7
-0.874,0.553,0.811,-7.675,47.883,82.855,7
-0.749,-0.170,0.523,-11.271,77.016,-4.947,7
-0.670,0.023,0.597,-12.843,71.872,-9.402,7
-0.803,-0.120,0.710,-29.779,73.671,-23.391,7
-0.853,-0.621,0.717,-22.620,73.851,-12.131,7
-0.718,-0.459,0.780,4.198,86.295,50.836,7
-0.645,0.508,0.578,13.452,79.893,47.382,7
-0.533,-0.031,0.537,6.014,64.967,-21.319,7
-0.689,-0.163,0.835,2.941,83.885,-24.842,7
-0.795,-0.595,0.951,16.770,106.940,-1.804,7
-1.033,-0.588,0.590,22.776,77.339,60.438,7
-0.536,0.347,0.465,-5.160,80.900,37.883,7
-0.423,0.141,0.572,-29.674,54.932,-17.001,7
-0.547,-0.149,0.698,-46.995,38.280,-51.818,7
-0.724,-0.549,1.064,-35.401,49.358,-38.451,7
-0.653,-0.538,1.108,7.970,94.172,14.327,7
-0.582,0.185,0.784,19.249,95.826,61.025,7
-0.430,-0.205,0.480,-1.459,45.905,-8.573,7
-0.463,0.068,0.963,4.757,46.588,-0.526,7
-0.462,-0.333,0.922,5.351,61.982,-19.488,7
-0.599,-0.292,0.867,8.074,62.773,26.692,7
-0.494,0.088,0.927,-9.525,68.851,-4.739,7
-0.299,0.218,0.639,-8.862,59.248,-43.563,7
-0.354,-0.277,0.714,-48.706,25.296,-67.050,7
-0.616,-0.340,1.211,-52.093,38.891,-37.069,7
-0.413,-0.257,1.040,-26.392,82.087,-10.715,7
-0.301,0.082,0.769,-15.776,75.001,2.618,7
-0.290,0.033,0.552,-12.319,50.436,-29.125,7
-0.396,-0.212,0.627,2.208,5.227,-24.082,7
-0.539,-0.370,1.228,22.566,-7.002,4.725,7
-0.476,-0.106,1.328,34.125,48.171,22.962,7
-0.319,0.020,0.854,21.344,66.082,23.376,7
-0.267,-0.147,0.600,-13.995,39.611,-3.565,7
-0.283,-0.129,0.854,-21.398,20.944,7.937,7
-0.363,-0.384,0.953,-2.890,1.055,20.095,7
-0.490,0.058,1.169,6.747,2.529,47.693,7
-0.366,0.002,0.971,2.382,45.329,7.004,7
-0.225,0.069,0.885,-0.446,50.221,-9.851,7
-0.210,-0.279,0.703,-32.433,33.964,-31.197,7
-0.239,-0.181,0.935,-27.684,15.981,2.825,7
-0.352,-0.277,1.240,-6.033,21.232,8.420,7
-0.349,0.075,1.053,24.103,59.536,28.350,7
-0.164,-0.008,0.785,21.484,54.213,-10.646,7
-0.154,-0.155,0.719,4.792,20.189,-5.914,7
-0.172,-0.100,0.740,-15.252,-8.261,-11.406,7
-0.333,-0.251,1.184,-33.411,-3.009,-8.884,7
-0.314,-0.133,1.175,-14.938,30.583,15.570,7
-0.238,0.119,0.923,14.814,50.005,5.450,7
-0.148,-0.137,0.639,1.195,24.181,-13.616,7
-0.159,-0.029,0.914,1.055,-4.484,-10.749,7
-0.248,-0.142,1.071,-3.310,-5.311,-13.029,7
-0.274,-0.178,1.177,-12.808,19.146,-4.118,7
-0.237,-0.165,0.970,0.881,28.713,8.489,7
-0.163,0.170,0.920,-3.694,35.582,-0.456,7
-0.162,-0.118,0.853,-35.401,26.231,-33.235,7
-0.179,-0.228,0.898,-23.808,0.623,-4.221,7
-0.281,-0.130,1.215,-13.192,4.076,7.281,7
-0.229,-0.052,1.119,5.421,48.926,16.917,7
-0.142,0.015,0.818,38.385,56.227,8.904,7
-0.100,0.013,0.747,32.169,28.389,-9.230,7
-0.020,-0.135,0.791,-3.484,-0.456,-15.482,7
-0.152,-0.019,0.990,-20.909,-22.072,-7.434,7
-0.251,-0.154,1.289,-23.284,-0.060,-7.606,7
-0.184,-0.062,1.026,-7.151,25.116,6.244,7
-0.135,-0.026,0.866,-4.741,20.764,2.445,7
-0.100,-0.034,0.689,5.840,0.120,-7.123,7
-0.124,-0.133,0.958,5.490,-29.625,-5.258,7
-0.237,-0.070,1.203,-5.300,-17.756,0.131,7
-0.205,-0.098,1.216,-7.465,21.376,-0.906,7
-0.138,-0.073,0.919,-3.030,24.541,0.269,7
-0.081,-0.040,0.881,4.478,11.629,3.447,7
-0.104,0.011,0.924,-13.297,0.731,-3.427,7
-0.133,-0.085,0.964,-23.598,1.738,-12.787,7
-0.181,-0.103,1.034,-18.814,5.910,-3.876,7
-0.141,-0.048,0.978,-12.249,7.960,3.481,7
-0.116,-0.037,0.957,-14.170,2.062,-0.560,7
-0.128,-0.035,0.934,1.719,-4.412,2.894,7
-0.109,-0.054,0.895,9.367,-12.828,-1.527,7
-0.140,-0.049,1.039,-6.662,-5.959,-0.698,7
-0.168,-0.035,1.071,-18.779,7.673,-3.600,7
-0.139,-0.037,1.002,-22.201,20.225,-3.496,7
-0.145,-0.008,0.951,-15.147,11.269,0.511,7
-0.107,0.049,0.903,-5.195,-3.621,-1.078,7
-0.115,-0.002,0.996,-7.395,-11.641,-6.363,7
-0.168,-0.034,1.061,-8.967,-3.297,-5.741,7
-0.155,-0.017,1.066,-6.522,7.780,-0.802,7
-0.128,0.013,0.969,-3.694,12.024,-2.114,7
-0.147,-0.024,0.982,-2.227,5.802,-1.665,7
-0.114,-0.032,0.921,7.306,-3.369,0.338,7
-0.115,0.011,0.988,6.189,-7.649,2.652,7
-0.127,0.000,1.000,-1.668,-4.916,-3.254,7
-0.139,-0.021,1.076,-10.503,2.134,-0.871,7
-0.143,0.017,0.956,-14.100,12.600,-2.080,7
-0.137,-0.041,0.926,-9.141,5.407,-1.804,7
-0.122,0.014,0.902,13.312,-2.902,4.448,7
-0.129,0.005,1.012,10.624,-8.225,-1.734,7
-0.119,-0.052,1.011,1.963,-1.823,-0.318,7
-0.110,0.018,1.042,-5.300,-0.887,4.310,7
-0.134,0.123,1.075,-11.132,8.644,1.098,7
-0.142,-0.005,1.009,-12.808,11.989,-9.230,7
-0.113,-0.038,0.824,5.141,3.141,1.167,7
-0.103,0.037,0.946,14.989,-17.864,5.174,7
-0.195,0.006,1.108,-2.297,-4.196,-6.950,7
-0.145,-0.032,1.062,-1.913,12.996,-0.698,7
-0.142,-0.005,0.939,5.630,5.407,0.752,7
-0.126,-0.043,0.938,4.617,-1.823,-1.251,7
-0.114,-0.028,0.904,13.417,-11.713,6.970,7
-0.179,-0.013,1.032,1.894,-9.088,-2.080,7
-0.207,-0.134,1.057,4.792,-1.355,2.652,7
-0.144,-0.015,0.933,29.306,-1.247,16.503,7
-0.102,0.074,0.968,25.849,-10.347,7.488,7
-0.144,-0.020,1.025,0.671,-1.715,-6.536,7
-0.124,-0.077,0.969,10.763,-5.203,3.723,7
-0.170,-0.017,1.102,20.925,-10.311,10.804,7
-0.169,-0.006,1.067,7.481,12.096,3.619,7
-0.130,-0.071,0.914,16.141,2.709,-1.113,7
-0.105,-0.102,0.956,23.684,-3.333,6.382,7
-0.101,-0.083,0.968,26.722,-7.038,18.437,7
-0.168,0.009,1.043,19.179,-6.930,16.330,7
-0.156,-0.033,0.938,9.367,5.730,-1.009,7
-0.138,-0.144,0.907,-1.354,2.350,0.096,7
-0.129,-0.077,0.859,-2.925,0.767,0.511,7
-0.084,-0.113,0.956,-5.475,-7.685,4.966,7
-0.169,-0.090,1.091,5.351,-3.297,5.761,7
-0.164,-0.124,1.013,14.011,2.206,14.672,7
-0.144,0.066,0.957,-3.240,5.874,4.552,7
-0.129,-0.090,0.941,1.335,-11.354,0.442,7
-0.141,-0.027,0.998,-9.176,-11.138,-3.496,7
-0.185,-0.126,1.123,-14.903,-1.894,-4.567,7
-0.165,-0.108,1.001,-9.386,15.154,3.136,7
-0.520,0.629,-0.822,-41.896,-341.668,-90.365,8
-1.076,0.355,-1.585,-40.500,-540.202,-218.579,8
-1.551,0.480,0.054,-50.103,-736.542,-227.075,8
-2.624,-0.489,2.299,-120.397,-659.323,-298.919,8
-2.178,-1.215,1.817,-30.198,-368.895,-114.370,8
-1.087,0.525,0.229,51.515,-341.524,21.926,8
-1.270,0.267,0.697,54.623,-323.361,-38.934,8
-0.991,0.715,0.968,64.715,-281.784,-7.883,8
-1.151,0.969,0.706,46.382,-250.170,-87.291,8
-1.212,0.492,0.706,21.274,-222.116,-162.485,8
-1.658,-0.172,0.704,-28.801,-97.601,-114.543,8
-1.527,-0.340,0.537,-95.499,-24.517,-21.492,8
-1.173,0.124,0.054,-86.001,8.320,118.915,8
-0.919,0.648,0.044,-61.906,8.068,103.372,8
-0.817,0.591,-0.090,-7.221,-8.296,47.106,8
-0.944,0.281,0.112,32.973,-31.135,15.363,8
-1.021,0.169,0.061,-8.198,-0.168,23.549,8
-1.003,0.207,-0.159,-34.528,5.047,45.171,8
-0.853,0.382,-0.022,-16.195,-0.672,33.635,8
-0.763,0.528,0.099,6.119,-0.096,-11.717,8
-0.838,0.304,0.157,18.935,12.564,-23.149,8
-1.018,0.180,0.136,9.820,15.981,-6.087,8
-1.066,0.227,0.018,3.395,30.907,10.320,8
-0.939,0.351,-0.204,-10.992,16.952,11.943,8
-0.928,0.335,-0.120,-0.970,-6.606,-0.318,8
-0.897,0.367,0.236,-0.725,-5.923,-11.648,8
-0.967,0.307,0.244,3.151,23.318,-17.692,8
-0.987,0.217,-0.024,-4.462,38.783,-7.295,8
-0.928,0.207,-0.221,1.021,11.989,-8.021,8
-0.979,0.117,-0.135,-3.135,-0.528,8.731,8
-0.984,0.169,0.008,-11.376,-2.398,23.342,8
-0.941,0.283,0.187,-11.551,-0.851,23.100,8
-0.889,0.404,0.193,-8.967,7.061,16.986,8
-0.949,0.371,0.106,-7.675,26.699,3.619,8
-0.957,0.301,-0.066,-0.760,19.074,-6.294,8
-1.035,0.171,-0.070,2.173,0.515,-8.228,8
-1.130,0.057,0.044,0.811,4.579,7.315,8
-1.074,0.190,0.151,-1.633,15.801,26.450,8
-0.905,0.438,0.056,2.313,17.743,27.348,8
-0.864,0.452,0.090,10.903,10.334,1.927,8
-1.001,0.299,0.173,-2.716,24.217,-25.913,8
-1.154,0.071,0.021,-20.944,41.049,-16.725,8
-1.108,0.113,0.043,-30.757,29.864,5.933,8
-1.056,0.193,0.056,-17.732,31.015,19.024,8
-1.011,0.234,0.235,-11.341,41.445,26.174,8
-0.969,0.267,0.304,2.173,71.513,11.115,8
-0.949,0.300,0.217,3.465,76.368,18.333,8
-0.960,0.224,0.235,7.830,82.986,14.914,8
-1.006,0.221,0.425,12.509,88.453,28.488,8
-1.010,0.134,-0.028,9.262,103.091,27.418,8
-0.912,0.277,0.101,25.744,77.591,26.485,8
-0.884,0.274,0.285,27.420,72.016,0.269,8
-0.675,0.075,0.407,31.576,84.461,4.863,8
-1.148,0.306,0.497,46.766,101.868,43.859,8
-1.059,0.458,0.266,-38.195,105.465,15.985,8
-0.859,0.051,0.256,-34.703,82.662,-5.845,8
-0.829,0.246,0.250,2.068,86.187,55.050,8
-0.785,0.142,0.262,16.106,59.284,12.116,8
-0.861,0.001,0.631,23.823,70.542,12.945,8
-1.173,0.025,0.701,28.293,116.794,61.958,8
-0.942,0.321,0.126,6.608,110.860,54.981,8
-0.887,0.112,0.373,-12.354,69.678,39.507,8
-0.905,0.117,0.421,1.789,64.967,47.036,8
-0.891,0.103,0.605,17.957,57.342,41.994,8
-0.971,0.011,0.806,30.703,80.576,36.813,8
-0.907,0.132,0.370,50.991,118.269,54.843,8
-0.658,0.187,0.367,23.474,65.255,42.235,8
-0.593,-0.135,0.686,-3.868,66.190,24.447,8
-0.946,-0.135,0.965,-14.205,100.178,79.539,8
-1.003,-0.084,0.632,-41.792,141.791,111.903,8
-0.622,0.092,0.232,-2.157,98.128,101.472,8
-0.483,0.190,0.551,11.601,65.614,54.290,8
-0.608,0.138,0.939,15.792,80.792,1.685,8
-0.816,0.080,0.877,10.065,123.052,-16.518,8
-0.739,-0.279,0.558,-18.884,106.688,20.993,8
-0.649,-0.174,0.601,-39.557,79.174,72.596,8
-0.494,0.069,0.594,-34.528,48.746,89.107,8
-0.575,0.054,0.845,-40.709,39.323,77.743,8
-0.672,0.030,1.073,-16.195,56.551,38.194,8
-0.657,-0.001,0.830,26.373,90.431,13.705,8
-0.433,0.018,0.406,22.566,74.534,18.472,8
-0.467,-0.035,0.773,-6.592,26.123,9.906,8
-0.653,-0.200,1.011,-3.449,46.480,-0.871,8
-0.552,0.014,0.929,4.792,68.312,4.932,8
-0.556,-0.054,1.078,23.160,95.394,-15.654,8
-0.528,-0.156,0.750,17.293,104.925,-6.121,8
-0.378,-0.236,0.513,11.008,62.629,18.057,8
-0.389,0.005,0.797,-14.938,29.432,32.875,8
-0.481,-0.075,0.992,-20.141,42.740,15.708,8
-0.542,-0.114,1.118,-2.856,58.097,-0.007,8
-0.385,0.137,0.896,8.074,85.576,-7.779,8
-0.181,-0.278,0.420,1.055,65.866,-11.440,8
-0.193,-0.016,0.573,-44.655,13.067,3.274,8
-0.426,-0.073,0.970,-61.033,-5.707,-6.743,8
-0.632,-0.227,1.358,-31.350,29.828,-20.904,8
-0.351,-0.039,0.998,7.830,71.369,10.804,8
-0.210,0.160,0.486,15.059,52.810,0.614,8
-0.247,0.061,0.880,29.236,-14.483,-23.046,8
-0.294,-0.068,1.070,26.966,23.749,-20.179,8
-0.463,-0.152,1.064,33.461,18.139,-20.524,8
-0.412,-0.188,1.300,33.776,50.077,-7.537,8
-0.311,-0.129,0.855,11.776,89.712,16.054,8
-0.178,-0.048,0.645,-22.516,49.861,20.820,8
-0.163,0.000,0.859,-44.934,20.081,15.881,8
-0.305,-0.060,1.108,-51.499,23.318,13.014,8
-0.351,-0.060,1.252,-28.277,48.854,20.371,8
-0.246,-0.057,0.888,-1.075,73.131,23.376,8
-0.095,0.086,0.602,33.112,31.950,25.725,8
-0.078,0.110,0.729,25.535,-15.885,-11.958,8
-0.222,-0.037,0.976,12.859,-26.244,-25.187,8
-0.399,-0.126,1.382,0.357,-1.607,-21.871,8
-0.236,-0.145,1.140,-1.284,61.262,5.692,8
-0.114,0.010,0.750,-6.208,57.917,15.501,8
-0.059,-0.013,0.658,-0.865,15.297,4.690,8
-0.158,-0.044,0.910,-5.929,-18.727,-11.233,8
-0.280,-0.103,1.191,-4.183,-10.203,-9.092,8
-0.281,-0.124,1.203,4.128,22.635,-2.563,8
-0.142,-0.036,0.918,6.608,37.453,12.082,8
-0.094,0.004,0.806,-8.617,21.196,3.585,8
-0.091,-0.024,0.802,-7.256,-4.880,-1.251,8
-0.201,-0.012,1.001,-4.916,-21.029,-5.603,8
-0.302,-0.071,1.246,-0.725,-3.945,-8.677,8
-0.198,-0.095,1.101,6.328,30.979,3.205,8
-0.105,-0.023,0.867,1.963,31.518,11.011,8
-0.058,0.029,0.706,6.922,0.767,3.757,8
-0.102,-0.009,0.896,-4.706,-21.280,-11.371,8
-0.267,-0.088,1.173,-9.421,-15.993,-14.998,8
-0.246,-0.067,1.299,-6.627,23.102,-4.774,8
-0.147,-0.093,0.918,-2.122,47.271,1.201,8
-0.106,-0.034,0.768,3.395,17.491,10.320,8
-0.113,-0.038,0.826,7.551,-9.160,0.891,8
-0.169,-0.050,1.046,-3.589,-13.620,-3.531,8
-0.210,-0.083,1.194,-5.789,6.090,-0.560,8
-0.139,-0.054,1.059,-8.129,33.209,10.596,8
-0.074,0.049,0.815,-8.059,23.534,5.795,8
-0.078,-0.017,0.894,-8.548,6.917,-3.807,8
-0.131,-0.046,0.931,-5.056,-9.052,-1.769,8
-0.130,-0.044,1.030,1.265,-9.807,6.417,8
-0.157,0.028,1.126,5.525,-1.715,6.106,8
-0.121,-0.015,1.001,0.497,16.592,2.790,8
-0.089,0.025,0.899,3.186,11.089,0.062,8
-0.088,-0.061,0.836,3.395,-3.297,-4.360,8
-0.094,0.019,0.984,5.421,-9.088,2.652,8
-0.154,-0.025,1.071,-10.468,0.479,-8.090,8
-0.156,-0.056,1.114,0.252,7.780,4.655,8
-0.126,0.019,0.961,3.011,11.845,0.925,8
-0.100,-0.029,0.859,8.074,0.443,-2.045,8
-0.073,-0.017,0.924,8.284,-11.210,0.062,8
-0.127,-0.027,1.022,3.465,-13.152,-5.430,8
-0.184,-0.055,1.127,-4.043,3.860,-5.327,8
-0.142,-0.099,1.019,-2.157,13.535,-0.042,8
-0.096,-0.010,0.888,9.855,7.637,5.415,8
-0.086,-0.043,0.832,5.630,-3.801,-1.389,8
-0.089,-0.003,0.935,9.262,-20.489,-0.906,8
-0.125,-0.048,0.974,0.846,-25.488,-6.743,8
-0.180,-0.098,1.165,-10.817,-16.461,1.927,8
-0.161,-0.051,1.092,-7.395,12.348,13.463,8
-0.116,0.044,0.795,8.109,16.916,6.728,8
-0.108,0.017,0.881,9.227,-15.454,-9.057,8
-0.131,-0.010,1.048,18.620,-13.727,-13.755,8
-0.196,-0.102,1.064,9.227,-4.592,-10.784,8
-0.166,-0.080,1.095,4.513,0.192,1.823,8
-0.143,-0.062,0.994,-8.478,15.225,7.868,8
-0.125,-0.060,0.953,-16.509,13.463,8.351,8
-0.116,0.000,0.900,-4.008,9.147,9.767,8
-0.139,-0.033,1.010,-4.392,-3.657,-3.116,8
-0.151,-0.074,1.016,-4.252,6.773,-0.180,8
-0.148,-0.064,1.003,-2.995,3.285,3.516,8
-0.101,-0.011,0.959,0.671,8.140,6.417,8
-0.090,0.015,0.845,1.125,-4.448,-0.560,8
-0.109,-0.026,0.954,-3.938,-12.541,-3.047,8
-0.143,-0.025,0.996,1.614,-13.943,-2.114,8
-0.177,-0.053,1.079,2.068,-11.929,-3.185,8
-0.168,-0.060,1.030,5.595,0.048,-1.562,8
-0.141,-0.056,0.968,4.582,-1.247,2.410,8
-0.122,0.005,0.925,8.528,-5.095,8.006,8
-0.126,-0.045,0.961,-0.027,-13.224,-1.596,8
-0.153,-0.038,1.050,-1.459,-6.570,2.169,8
-0.203,-0.053,1.060,-6.836,4.723,-4.014,8
-0.180,-0.091,1.023,-4.148,13.715,0.683,8
-0.128,-0.007,0.942,2.976,17.168,6.279,8
-0.093,-0.002,0.881,5.665,-2.110,-0.560,8
-0.119,-0.009,0.979,-2.471,-3.189,-2.840,8
-0.152,-0.042,0.978,-8.268,-2.614,-3.841,8
-0.184,-0.058,1.083,-5.684,1.450,-1.769,8
-0.146,-0.061,0.958,-0.865,10.910,2.963,8
-0.100,0.003,0.926,1.090,1.666,5.554,8
-0.123,0.009,0.969,-2.052,-2.973,-0.733,8
-0.137,-0.025,1.001,-0.970,-4.412,-0.940,8
-0.145,-0.064,0.965,1.684,-4.160,1.029,8
-0.155,-0.033,0.970,-0.481,-3.477,1.132,8
-0.164,-0.043,1.019,-5.125,-0.816,-0.180,8
-0.152,-0.027,1.021,-3.973,1.990,0.614,8
-0.116,-0.012,0.937,11.427,2.242,2.859,8
-0.114,0.001,0.945,17.189,-15.777,-0.664,8
-0.160,0.012,0.978,8.913,-1.211,-6.156,8
-0.181,-0.121,1.055,-0.411,-8.081,-7.606,8
-0.167,-0.058,1.042,1.649,4.184,7.419,8
-0.161,-0.012,0.982,-5.125,5.479,2.376,8
-0.157,-0.037,1.011,-6.697,8.284,-0.111,8
-0.138,0.497,-1.118,136.930,-394.035,-249.147,9
-0.990,0.927,-1.915,-107.931,-683.852,-341.991,9
-1.174,-0.586,-0.619,-100.772,-931.552,5.139,9
-1.278,2.288,-1.402,29.515,-719.494,-93.059,9
-2.583,0.883,1.040,84.934,-775.278,-455.974,9
-4.122,-1.703,2.176,157.568,-358.716,-559.699,9
-1.201,-0.961,1.541,428.584,231.707,-210.911,9
-0.937,4.284,-5.712,-149.101,23.965,-235.296,9
-1.362,0.585,2.738,109.134,-273.440,-283.998,9
-1.889,-0.638,0.798,-26.462,-92.170,-7.123,9
-1.391,0.293,0.378,-55.131,-62.246,123.094,9
-1.578,-0.302,0.200,-58.449,31.482,105.513,9
-0.766,0.923,-0.147,-95.883,24.613,98.640,9
-0.425,0.565,-0.182,-18.570,16.844,-23.702,9
-0.767,0.394,0.134,6.852,22.850,-16.760,9
-0.819,0.418,0.204,4.268,13.319,-17.658,9
-0.982,0.354,-0.045,-5.335,7.888,-11.164,9
-1.225,0.265,0.217,-34.738,16.412,17.159,9
-1.105,0.320,0.109,-32.852,7.133,36.813,9
-0.932,0.366,-0.143,-11.690,21.771,63.409,9
-0.720,0.598,-0.089,-0.935,-2.794,43.237,9
-0.943,0.307,0.199,8.598,16.772,25.034,9
-1.110,0.040,-0.001,-3.344,17.851,37.192,9
-1.211,-0.029,0.079,-33.655,10.406,88.623,9
-0.942,0.364,-0.143,-39.941,0.983,113.768,9
-0.725,0.575,-0.029,-29.150,-9.160,73.114,9
-0.805,0.305,0.085,-5.614,-2.758,4.794,9
-0.923,-0.010,0.030,-2.367,9.327,39.230,9
-1.083,0.052,0.110,-16.614,14.506,72.596,9
-0.989,0.165,-0.006,-32.293,-6.462,111.212,9
-0.846,0.575,-0.136,-9.141,12.708,75.532,9
-0.913,0.138,0.049,-22.271,8.356,40.128,9
-1.120,-0.018,0.195,-51.360,12.276,51.009,9
-1.299,0.026,0.214,-62.080,47.847,67.830,9
-1.050,0.031,-0.340,-70.531,38.999,86.309,9
-0.906,-0.073,-0.267,-97.664,-32.070,94.633,9
-1.246,-0.018,0.345,-15.846,-21.820,94.875,9
-1.575,0.735,-0.063,427.327,-114.973,143.024,9
-1.164,0.526,-0.170,855.519,-325.879,-96.651,9
-0.422,-0.049,0.562,424.987,-197.012,-208.044,9
-0.304,-0.110,0.429,346.591,228.937,-89.501,9
-0.858,0.618,-0.261,386.086,371.112,-9.713,9
-1.698,-0.523,0.068,258.418,373.090,-56.308,9
-1.254,-0.295,-0.680,-23.179,-71.813,217.424,9
-0.951,0.395,0.067,-93.858,-90.084,215.973,9
-1.024,-0.118,-0.121,-152.419,-112.203,159.741,9
-1.235,-0.247,0.397,-256.062,-65.015,175.526,9
-1.352,0.202,0.674,-279.040,103.127,182.953,9
-0.844,0.106,-0.292,-218.139,50.472,176.908,9
-0.769,0.351,0.006,-216.847,24.936,117.499,9
-1.164,-0.261,0.499,-229.243,41.445,87.725,9
-1.273,-0.627,0.705,-212.377,130.965,133.145,9
-1.175,-0.818,0.114,-220.688,207.106,205.853,9
-0.739,0.133,-0.966,-265.491,138.122,209.272,9
-0.730,-0.223,0.650,-331.874,20.225,159.396,9
-0.809,-0.017,0.840,-411.911,146.574,108.000,9
-1.029,-0.707,0.737,-420.013,216.637,78.434,9
-0.862,0.332,0.290,-363.162,208.688,96.913,9
-0.493,0.175,0.199,-85.232,65.434,-4.601,9
-0.693,-0.003,0.640,48.093,28.965,-62.733,9
-0.949,-0.450,1.173,113.918,77.447,-75.478,9
-0.783,-0.294,0.916,116.118,153.300,-34.202,9
-0.474,-0.007,0.518,106.829,156.825,-16.829,9
-0.441,0.038,0.364,52.877,109.098,-49.089,9
-0.571,-0.031,0.702,-7.465,90.575,-69.848,9
-0.741,-0.410,0.866,-27.439,87.626,-67.741,9
-0.793,-0.613,0.957,2.697,100.789,-25.049,9
-0.520,-0.042,0.524,56.753,84.892,-7.192,9
-0.509,0.149,0.839,61.817,69.607,-35.169,9
-0.496,-0.156,0.798,21.274,72.592,-50.091,9
-0.580,-0.292,0.891,0.776,69.103,-48.571,9
-0.533,-0.403,0.674,-16.824,73.851,-24.497,9
-0.461,-0.238,0.618,-8.129,50.580,-5.016,9
-0.427,0.077,0.871,1.055,50.005,-18.452,9
-0.539,-0.445,1.010,2.557,42.380,-26.189,9
-0.522,-0.321,1.185,-0.341,35.259,7.384,9
-0.536,-0.061,1.229,-4.357,65.183,9.353,9
-0.552,-0.154,0.801,0.881,76.476,-7.779,9
-0.498,-0.210,0.753,2.697,72.915,-9.851,9
-0.418,-0.309,0.756,0.078,56.623,-0.836,9
-0.550,-0.568,1.106,-4.043,53.134,23.618,9
-0.273,0.027,0.777,-5.021,92.949,18.644,9
-0.162,-0.028,0.532,-14.903,72.520,-1.665,9
-0.264,-0.208,0.834,-7.640,47.020,-12.235,9
-0.305,-0.389,0.749,0.252,37.525,0.131,9
-0.396,-0.298,1.063,-10.398,40.977,14.430,9
-0.310,-0.012,0.954,-15.113,59.716,19.128,9
-0.219,-0.078,0.857,-26.182,42.380,6.521,9
-0.301,-0.240,1.131,-29.535,31.087,9.629,9
-0.255,-0.060,1.084,-23.738,39.035,10.286,9
-0.337,-0.250,1.192,-23.843,39.323,12.082,9
-0.277,-0.007,1.104,-36.833,63.996,18.644,9
-0.145,-0.123,0.708,-18.290,59.788,9.284,9
-0.075,0.065,0.698,-12.005,33.568,5.657,9
-0.132,-0.083,0.775,-14.030,9.363,-5.119,9
-0.247,-0.286,0.929,-7.116,5.011,-0.387,9
-0.117,-0.053,0.841,-15.008,15.981,7.660,9
-0.147,-0.032,1.012,-27.893,12.780,0.062,9
-0.169,-0.071,1.019,-17.767,15.010,-1.424,9
-0.135,-0.019,0.962,-14.240,9.615,-7.468,9
-0.237,-0.208,1.088,-13.332,5.551,-5.016,9
-0.213,-0.182,0.971,-23.773,19.721,10.286,9
-0.127,0.061,0.966,-24.262,16.772,5.692,9
-0.138,0.048,0.968,-18.709,18.534,-7.744,9
-0.083,0.134,0.826,-7.849,4.400,-15.861,9
-0.311,-0.582,1.100,-5.894,-5.923,-15.067,9
-0.194,-0.267,1.172,-0.970,18.966,21.269,9
-0.001,0.074,0.876,-12.319,23.893,18.333,9
-0.073,0.171,0.991,-4.567,9.902,-3.254,9
-0.148,-0.125,1.110,4.687,-0.851,-4.256,9
-0.199,-0.202,1.260,9.855,6.953,13.152,9
-0.215,-0.072,1.332,3.186,28.677,14.396,9
-0.127,-0.024,0.964,1.335,42.632,10.320,9
-0.060,0.057,0.870,11.811,26.231,8.869,9
-0.032,0.071,0.876,15.862,16.125,-2.045,9
-0.154,-0.170,0.859,15.373,16.412,-16.483,9
-0.127,-0.153,0.756,8.808,23.390,9.526,9
-0.108,-0.183,0.545,-2.646,17.671,7.937,9
-0.050,0.062,0.689,-21.154,-1.103,5.035,9
-0.083,-0.096,0.983,-19.128,-6.282,-2.287,9
-0.019,0.086,1.061,-9.281,-2.038,1.754,9
-0.059,-0.099,1.065,-12.668,-2.794,-4.843,9
-0.129,-0.103,1.158,-15.741,6.378,-0.007,9
-0.083,-0.009,0.976,-13.401,14.111,3.723,9
-0.095,-0.027,1.031,-10.922,7.529,-3.047,9
-0.057,0.034,1.001,0.636,2.529,-10.715,9
-0.157,-0.129,1.042,5.770,-9.268,-17.243,9
-0.261,-0.258,1.230,4.198,6.450,8.282,9
-0.114,-0.056,0.997,1.160,21.340,6.797,9
-0.047,-0.023,0.911,-3.205,12.456,9.215,9
-0.065,-0.016,1.018,-4.497,4.831,0.580,9
-0.061,0.018,1.012,-1.075,7.565,-0.767,9
-0.106,-0.060,1.097,0.741,8.680,0.752,9
-0.080,-0.020,1.025,1.265,18.786,7.799,9
0.009,0.141,0.899,0.322,14.974,8.731,9
0.014,0.087,0.932,-2.960,7.421,-2.356,9
0.032,0.066,0.895,3.535,-1.823,-9.472,9
-0.047,-0.083,0.992,4.757,-6.498,-13.651,9
-0.103,-0.174,1.103,2.627,12.024,6.141,9
0.016,0.012,0.861,-0.202,13.715,6.693,9
0.039,-0.019,0.800,-11.306,1.055,-4.290,9
-0.023,-0.056,0.915,-4.671,-9.843,-6.950,9
-0.142,-0.192,1.131,2.382,-8.296,-4.152,9
-0.101,-0.100,1.051,4.268,9.687,8.317,9
0.005,0.144,0.913,1.160,11.125,6.106,9
-0.038,-0.021,0.914,-9.421,-1.031,-6.501,9
-0.069,-0.037,1.024,1.090,-12.145,-5.707,9
-0.106,-0.122,1.114,2.068,-3.729,-3.185,9
-0.057,-0.056,1.005,4.373,8.212,6.244,9
0.013,0.086,0.890,-1.040,5.155,1.720,9
-0.031,-0.028,0.896,-6.732,-3.765,-6.570,9
-0.054,-0.045,0.982,1.649,-11.030,-6.536,9
-0.120,-0.193,1.071,2.522,-5.779,-4.221,9
-0.087,-0.142,1.048,3.675,2.062,3.723,9
-0.021,-0.013,0.946,0.497,7.888,4.414,9
0.003,0.029,0.874,-2.297,0.228,-0.353,9
-0.052,-0.044,0.969,-8.338,-8.117,-4.601,9
-0.101,-0.081,1.050,-3.554,-7.505,-2.425,9
-0.126,-0.098,1.106,-7.570,-0.060,1.409,9
-0.070,-0.023,1.030,-7.709,4.256,6.244,9
-0.033,0.072,0.981,-0.691,2.853,4.725,9
-0.007,0.012,0.919,2.906,-2.254,-4.429,9
-0.049,-0.026,0.973,8.249,-8.404,-3.012,9
-0.138,-0.209,1.103,-0.446,-2.254,-1.562,9
-0.077,-0.058,1.018,-0.830,4.579,8.006,9
-0.014,0.055,0.932,-6.348,1.738,0.027,9
-0.056,-0.078,0.983,-2.471,-4.124,-1.078,9
-0.075,-0.004,1.061,5.316,-2.398,1.512,9
-0.077,-0.051,1.015,-0.935,2.673,3.239,9
-0.057,0.017,1.001,-3.624,5.874,2.514,9
-0.017,0.029,0.907,-3.310,4.184,-0.491,9
-0.033,0.009,0.968,0.706,-1.355,-0.975,9
-0.018,0.063,0.958,0.602,-1.535,-1.907,9
-0.050,0.018,1.008,-3.659,-3.729,-7.226,9
-0.110,-0.071,1.063,-1.075,0.515,-4.601,9
-0.103,-0.091,1.044,4.897,6.558,4.794,9
-0.016,0.021,0.903,5.700,6.342,2.790,9
-0.041,-0.014,0.953,3.605,-4.880,-4.498,9
-0.070,-0.029,1.034,4.094,-4.017,-5.327,9
-0.098,-0.107,1.072,0.182,3.608,-2.080,9
-0.052,-0.026,1.006,-0.795,6.486,3.170,9
-0.013,0.019,0.902,-0.691,5.802,0.752,9
-0.030,0.015,0.952,-2.017,-2.110,-1.873,9
-0.082,-0.032,1.035,-3.868,-2.722,-4.567,9
-0.097,-0.058,1.074,-1.459,0.623,-2.494,9
-0.083,-0.069,1.048,4.513,3.249,1.547,9
-0.044,-0.002,0.983,1.859,4.400,-0.664,9
-0.065,-0.067,0.982,1.998,0.623,-0.353,9
-0.058,-0.041,1.007,4.687,0.875,0.096,9
-0.046,-0.033,0.982,-0.865,4.687,-1.838,9
-0.047,-0.017,0.982,-1.703,5.083,0.649,9
-0.015,0.013,0.885,2.802,0.084,-1.113,9
-0.062,-0.045,0.979,2.697,-3.873,-3.082,9
-0.099,-0.093,1.071,-0.551,-0.744,0.511,9
-0.083,-0.100,0.988,0.532,6.630,6.797,9
-0.013,0.017,0.928,-2.925,8.320,6.555,9
-0.009,-0.019,0.915,-3.519,1.630,1.547,9
-0.018,-0.034,0.932,-1.389,-4.592,0.062,9
-0.026,0.018,0.968,-4.078,-6.534,-2.356,9
-0.067,-0.011,1.052,-3.798,-0.492,-0.111,9
0.372,1.264,-1.026,3.325,-90.587,-101.832,10
0.586,0.405,-2.241,-4.881,-453.272,-214.710,10
-0.817,1.106,-0.641,30.284,-580.736,-189.461,10
-2.385,-0.835,0.085,98.692,-672.990,-273.878,10
-2.673,-1.704,1.288,53.506,-595.159,-170.360,10
-1.913,-0.893,0.447,-6.941,-412.558,-0.698,10
-1.411,0.767,0.542,31.576,-444.388,9.802,10
-1.291,1.862,0.954,42.541,-356.091,-121.417,10
-1.497,0.069,-0.514,93.280,-397.740,-159.135,10
-2.294,-2.184,0.663,78.474,-341.992,-132.262,10
-1.300,-0.428,-1.000,16.316,-342.100,18.437,10
-1.329,0.105,-0.347,-0.516,-429.138,64.825,10
-1.399,0.841,0.905,74.563,-412.090,-6.225,10
-1.180,0.770,0.771,88.740,-254.917,-94.821,10
-1.118,-0.216,0.030,80.883,-188.739,-107.255,10
-1.167,-0.534,-0.418,55.496,-198.271,-79.692,10
-1.372,-0.289,0.069,-8.024,-184.747,-30.852,10
-1.248,0.328,0.376,-37.496,-133.423,-12.407,10
-1.026,0.719,0.227,-11.236,-62.246,-23.322,10
-1.193,0.493,0.411,38.630,-34.840,-33.201,10
-1.305,0.048,0.144,66.426,55.004,-23.737,10
-0.983,0.079,-1.156,25.535,64.284,23.653,10
-0.748,-0.003,-0.948,-7.535,-3.441,28.005,10
-0.867,0.120,-0.413,-20.420,-21.784,27.936,10
-0.847,0.475,-0.123,-7.500,-4.736,26.347,10
-0.893,0.352,-0.196,7.970,33.029,2.238,10
-0.832,0.200,-0.665,0.986,47.559,-2.184,10
-0.852,0.011,-0.783,-18.884,11.557,1.754,10
-0.913,-0.006,-0.616,-29.709,-3.441,19.404,10
-0.894,0.227,-0.400,-33.969,-14.447,28.454,10
-0.929,0.481,0.017,-8.792,3.536,18.610,10
-1.042,0.327,-0.020,8.005,47.811,4.276,10
-0.971,0.216,-0.474,5.630,69.391,9.249,10
-0.732,0.167,-0.856,-5.056,39.467,6.210,10
-0.815,0.039,-0.558,-14.170,1.774,6.970,10
-1.092,-0.129,-0.148,-23.389,6.665,23.031,10
-1.206,0.054,0.225,-23.109,55.004,44.101,10
-0.869,0.631,-0.194,-19.862,83.849,36.018,10
-0.731,0.362,-0.558,-9.979,65.866,-3.531,10
-1.006,-0.252,-0.396,-13.960,46.228,6.693,10
-1.145,-0.435,-0.036,-23.493,62.953,53.668,10
-0.975,0.343,-0.407,-56.842,55.724,83.200,10
-0.855,0.768,0.044,-30.477,59.860,51.043,10
-0.895,0.620,-0.017,16.979,87.338,-6.501,10
-1.001,-0.016,-0.331,30.563,95.394,-24.946,10
-1.360,-0.833,-0.260,5.700,98.164,-1.320,10
-1.266,-0.564,-0.273,-38.893,94.100,69.626,10
-0.763,0.583,-0.368,-80.972,67.341,85.169,10
-0.688,0.981,-0.029,-49.090,61.298,21.442,10
-1.167,0.055,0.269,-32.433,91.150,-43.977,10
-1.397,-0.762,0.006,-41.023,124.635,-6.708,10
-1.237,-0.642,-0.076,-42.420,135.353,60.404,10
-0.929,0.072,-0.310,-20.839,127.296,102.957,10
-0.791,0.540,-0.070,7.376,108.666,71.905,10
-1.145,0.128,0.365,9.401,135.029,25.034,10
-1.261,-0.371,0.236,-20.630,155.530,22.167,10
-1.076,-0.354,-0.252,-46.960,142.798,55.637,10
-0.849,-0.043,-0.120,-52.791,94.747,68.555,10
-0.947,0.107,0.368,-27.195,101.365,56.466,10
-1.251,-0.144,0.610,-18.151,148.013,65.930,10
-1.101,-0.004,0.316,-53.979,157.868,40.370,10
-0.892,-0.065,-0.003,-52.198,144.488,34.360,10
-0.829,-0.167,0.011,-39.487,110.069,38.505,10
-0.859,-0.117,0.191,-16.998,81.943,31.804,10
-1.138,-0.439,0.808,-16.893,88.777,24.585,10
-1.142,-0.296,0.828,-15.217,151.610,61.889,10
-0.754,0.151,0.139,-28.627,178.441,59.367,10
-0.571,0.128,-0.050,-28.592,92.050,14.534,10
-0.845,-0.321,0.527,-6.348,58.241,13.118,10
-0.940,-0.264,1.011,5.001,80.648,24.343,10
-1.004,-0.392,1.014,-1.179,151.430,43.168,10
-0.601,0.230,0.174,-25.903,152.761,40.716,10
-0.456,0.036,0.103,-16.370,79.281,-2.598,10
-0.571,-0.206,0.398,7.481,19.937,1.063,10
-0.676,-0.212,0.739,21.693,1.342,6.762,10
-0.834,-0.319,1.062,13.033,31.518,17.504,10
-0.714,-0.165,0.847,0.043,71.261,20.406,10
-0.517,0.066,0.356,-12.598,54.896,-1.424,10
-0.525,-0.136,0.333,-6.941,16.592,-10.197,10
-0.718,-0.236,0.844,5.665,-8.764,-6.605,10
-0.912,-0.553,1.141,2.173,19.577,1.581,10
-0.844,-0.381,1.076,-4.287,76.188,44.273,10
-0.553,0.057,0.545,-4.846,93.452,40.474,10
-0.441,0.163,0.435,-13.576,61.730,6.659,10
-0.515,-0.163,0.570,-9.909,35.403,-8.677,10
-0.636,-0.254,0.750,9.611,22.131,-9.057,10
-0.820,-0.662,1.066,5.176,34.899,12.876,10
-0.669,-0.205,0.975,1.405,75.613,43.824,10
-0.468,0.158,0.748,-10.224,71.765,28.212,10
-0.432,-0.020,0.625,-15.741,61.694,0.994,10
-0.516,-0.218,0.703,-9.106,41.625,-2.391,10
-0.663,-0.480,1.001,-6.103,40.330,8.869,10
-0.619,-0.363,0.939,-7.744,62.773,37.192,10
-0.402,0.065,0.664,-14.414,71.045,26.070,10
-0.299,0.071,0.599,-18.290,46.408,-5.085,10
-0.398,-0.193,0.675,-10.573,20.836,-19.488,10
-0.557,-0.444,0.956,-1.249,8.212,-7.744,10
-0.502,-0.252,0.968,-11.027,31.806,11.667,10
-0.414,-0.152,0.809,-20.595,36.194,9.906,10
-0.342,-0.005,0.757,-22.655,27.094,-0.215,10
-0.330,-0.118,0.712,-16.684,13.175,-12.511,10
-0.433,-0.297,0.825,-9.944,3.968,-6.639,10
-0.521,-0.377,1.021,-3.519,3.141,15.674,10
-0.446,-0.078,0.939,-8.129,18.750,15.121,10
-0.418,-0.096,0.903,-16.020,22.706,2.307,10
-0.381,-0.085,0.803,-16.893,20.548,-6.087,10
-0.400,-0.122,0.909,-8.862,3.393,-7.399,10
-0.446,-0.210,0.928,0.357,3.177,-9.506,10
-0.429,-0.151,0.914,0.986,4.651,1.443,10
-0.389,-0.101,0.913,4.862,8.859,-1.009,10
-0.369,-0.059,0.851,1.370,8.931,-5.396,10
-0.423,-0.273,0.890,-0.935,1.019,-12.511,10
-0.464,-0.265,0.896,-7.500,7.421,-2.391,10
-0.459,-0.255,1.000,-8.652,12.708,6.072,10
-0.394,-0.100,0.958,-8.338,28.677,6.728,10
-0.352,-0.100,0.866,-6.592,33.856,-4.636,10
-0.342,-0.154,0.818,-4.567,19.541,-6.881,10
-0.338,-0.077,1.149,17.817,28.641,9.249,10
-0.339,-0.087,0.758,12.684,39.934,9.664,10
-0.413,-0.214,0.969,2.313,19.865,0.200,10
-0.400,-0.216,0.980,-2.681,28.713,10.182,10
-0.318,-0.050,0.847,-0.691,30.583,-3.634,10
-0.314,-0.150,0.853,-7.011,17.096,-10.335,10
-0.363,-0.162,0.945,-8.303,11.413,-17.174,10
-0.409,-0.147,1.011,1.055,13.787,-17.865,10
-0.532,-0.479,1.166,2.348,29.792,-14.169,10
-0.386,-0.196,1.052,4.303,62.521,23.238,10
-0.227,0.072,0.903,10.624,66.765,13.187,10
-0.164,-0.007,0.715,10.205,50.041,-3.945,10
-0.142,-0.001,0.790,-4.322,17.923,1.996,10
-0.217,-0.204,0.850,-6.487,4.903,-12.856,10
-0.266,-0.254,0.898,-10.852,6.594,-3.392,10
-0.252,-0.136,0.934,-14.833,9.003,0.752,10
-0.241,-0.110,1.003,-19.862,14.218,-6.156,10
-0.223,-0.207,0.877,-13.925,0.479,-2.529,10
-0.244,-0.175,0.990,-7.744,-1.679,4.932,10
-0.359,-0.207,1.130,-17.068,5.371,-3.703,10
-0.378,-0.146,1.167,-15.462,26.015,8.662,10
-0.270,-0.206,1.003,-7.500,36.841,14.948,10
-0.206,-0.046,0.912,-7.954,28.101,15.916,10
-0.211,-0.044,0.940,-7.290,27.994,5.692,10
-0.163,-0.014,1.003,10.170,23.893,-1.044,10
-0.254,-0.131,1.027,18.062,31.338,-1.734,10
-0.246,-0.179,1.031,14.290,42.776,19.508,10
-0.143,-0.121,0.886,1.963,48.422,21.926,10
-0.075,-0.150,0.699,-1.110,27.778,27.038,10
-0.011,0.071,0.841,-16.020,14.758,20.855,10
-0.028,-0.049,0.670,-33.550,1.702,-10.473,10
-0.246,-0.227,1.120,-60.439,-31.099,-26.742,10
-0.375,-0.260,1.372,-30.827,8.320,8.179,10
-0.188,0.098,1.137,-27.020,50.868,27.832,10
0.091,0.288,0.353,-57.087,32.381,-9.575,10
0.000,0.016,0.825,-52.547,-24.625,-39.245,10
-0.215,-0.060,0.784,-23.947,-10.023,-40.143,10
-0.336,-0.071,1.464,30.109,-9.052,-4.221,10
-0.209,0.057,1.261,20.541,33.496,-7.503,10
-0.098,-0.037,0.767,9.052,53.566,-14.722,10
-0.058,-0.063,0.743,13.976,17.959,-22.010,10
-0.137,-0.185,0.942,19.389,-12.001,-20.766,10
-0.226,-0.160,1.128,29.411,-19.050,-4.325,10
-0.212,-0.098,1.242,30.214,16.161,8.213,10
-0.099,-0.073,0.909,28.677,30.151,5.623,10
-0.090,-0.120,0.790,12.544,11.917,-4.705,10
-0.070,-0.030,0.836,-8.373,-4.232,-0.767,10
-0.069,-0.091,1.003,8.074,-32.250,-7.641,10
-0.204,-0.244,1.033,4.478,-18.043,-4.809,10
-0.218,-0.294,0.999,-6.522,2.134,6.866,10
-0.126,0.018,0.977,-13.855,17.419,11.736,10
-0.091,-0.116,0.833,2.522,6.773,-1.907,10
-0.079,-0.056,0.816,7.446,-10.167,-2.114,10
-0.159,-0.153,1.027,17.678,-22.215,-1.700,10
-0.173,-0.038,1.061,19.878,-15.849,4.966,10
-0.174,-0.094,1.077,7.062,-1.679,-1.009,10
-0.158,-0.034,0.960,-7.640,2.278,-1.251,10
-0.140,-0.064,0.879,-4.986,-8.764,-3.289,10
-0.168,-0.117,1.011,5.735,-16.892,-4.809,10
-0.211,-0.145,1.164,4.722,-10.131,3.516,10
-0.205,-0.161,1.112,-10.852,7.960,6.659,10
-0.127,-0.012,0.938,-20.525,20.944,11.736,10
-0.139,-0.043,0.961,-13.017,5.587,8.628,10
-0.139,-0.074,0.919,-0.202,-2.290,6.486,10
-0.152,-0.078,0.943,-5.859,-4.592,-1.942,10
-0.195,-0.131,1.029,-9.002,-3.657,0.062,10
-0.173,-0.082,0.998,-11.132,7.277,8.593,10
-0.157,-0.108,0.942,-17.208,3.716,-4.118,10
-0.138,-0.006,0.984,-17.313,2.170,-6.674,10
-0.135,-0.094,0.947,-16.265,-0.708,-4.567,10
-0.187,-0.077,1.012,-11.621,-2.506,-0.491,10
-0.148,-0.025,0.965,-5.230,6.090,3.999,10
-0.157,-0.071,1.042,-5.370,0.479,-0.111,10
-0.176,-0.072,1.037,-6.068,5.658,12.393,10
-0.142,-0.067,0.891,10.693,9.795,5.899,10
-0.165,-0.089,1.039,21.833,1.702,10.631,10
-0.200,-0.175,1.083,4.024,18.894,-1.976,10
-0.130,-0.131,0.932,-2.052,19.290,16.710,10
-0.082,-0.037,0.874,16.385,-1.175,20.855,10
-0.123,-0.095,0.983,2.976,-2.830,10.458,10
-0.099,0.080,0.960,-15.671,5.191,6.313,10
-0.110,-0.019,0.979,-10.573,5.083,-8.297,10
-0.150,-0.156,0.953,-8.094,0.803,-1.424,10
-0.046,-0.387,1.295,12.649,-27.790,-34.617,11
0.052,0.198,1.012,2.382,7.025,-1.182,11
0.022,0.218,1.014,-12.808,6.773,9.906,11
0.047,0.087,0.853,-13.506,4.939,28.316,11
0.116,0.257,0.943,-4.183,20.477,31.908,11
0.152,0.288,0.891,-1.389,48.890,-17.934,11
0.147,0.227,0.734,-0.237,22.527,5.968,11
0.175,0.269,0.943,4.513,-11.641,-3.185,11
0.122,0.179,0.928,0.392,-32.646,-2.425,11
0.049,0.186,1.202,-4.008,-35.667,8.110,11
0.140,0.104,0.934,-12.528,12.348,23.653,11
0.160,0.021,1.014,-1.319,-16.677,69.557,11
0.101,0.267,1.040,1.789,-13.799,92.353,11
0.070,0.305,1.025,-0.202,5.874,78.295,11
0.021,0.559,0.992,21.519,-0.276,26.209,11
0.002,0.433,0.932,34.509,-17.360,-12.338,11
0.046,0.118,0.884,34.858,-43.723,-31.370,11
0.067,-0.039,0.962,32.554,-58.398,10.009,11
0.074,0.093,1.264,46.801,-5.491,49.178,11
0.041,-0.140,1.148,53.995,45.833,87.863,11
0.084,-0.177,0.644,104.594,39.898,131.937,11
0.623,0.839,1.216,30.039,20.297,-14.549,11
0.035,-0.531,0.726,-1.424,-19.338,9.422,11
0.049,0.208,0.868,-8.408,-18.763,21.857,11
0.112,0.234,1.337,-2.332,-19.842,16.917,11
0.043,0.068,1.034,-0.900,34.036,2.099,11
-0.019,-0.009,0.800,-10.678,34.144,12.565,11
0.031,0.043,1.029,-20.525,9.291,30.043,11
0.042,0.082,1.014,-4.462,-0.708,31.321,11
0.042,0.031,1.041,9.157,2.853,31.424,11
0.068,-0.011,1.013,8.703,19.793,40.716,11
0.063,-0.097,0.774,-16.300,10.406,54.255,11
0.214,0.565,0.986,-25.484,-2.362,69.211,11
0.187,0.546,0.964,-38.090,15.369,19.128,11
0.126,0.657,1.039,-24.785,1.019,0.545,11
0.266,1.247,1.563,-3.414,0.947,-43.114,11
0.191,1.063,1.312,11.566,75.577,-137.236,11
0.090,0.825,0.678,-0.341,109.349,-191.533,11
0.196,1.614,1.151,-15.217,88.525,-239.061,11
-0.177,2.102,0.827,-22.585,118.557,-365.997,11
-1.339,2.190,-0.785,34.404,95.862,-544.328,11
-1.499,-0.849,0.561,94.397,-310.629,-668.432,11
-1.000,-0.217,1.014,175.377,-111.376,-547.126,11
-0.959,-0.547,1.008,111.718,0.335,-544.984,11
-0.820,-0.438,0.812,20.122,49.573,-513.207,11
-1.027,-1.103,1.000,-8.548,0.803,-503.467,11
-0.938,-1.057,1.165,-32.573,-45.701,-410.692,11
-0.814,-1.337,0.803,-31.735,-6.642,-287.625,11
-0.545,-0.862,1.016,-32.677,-56.168,-194.089,11
-0.292,-0.612,1.076,-5.021,-35.847,-165.628,11
-0.228,-0.474,1.246,2.662,-22.467,-136.753,11
-0.203,-0.658,1.641,9.367,-5.455,-82.732,11
-0.182,-0.593,1.196,16.909,71.872,-9.057,11
-0.158,-0.363,0.908,5.874,48.063,18.886,11
0.101,-0.161,0.909,4.757,23.282,27.659,11
0.140,-0.068,1.020,3.709,-10.634,22.789,11
0.088,-0.396,1.067,-1.878,3.932,22.202,11
0.089,-0.294,0.799,-3.449,56.263,28.765,11
0.049,-0.298,0.947,7.062,47.056,37.814,11
0.139,0.032,0.746,18.900,36.661,64.894,11
0.124,-0.140,1.083,46.242,21.627,52.563,11
0.031,-0.422,0.980,68.521,47.919,69.729,11
0.009,-0.420,0.740,44.112,35.187,76.327,11
-0.016,-0.608,0.793,29.969,16.125,85.860,11
-0.019,-0.514,0.778,31.785,10.910,113.976,11
0.131,-0.237,0.945,42.087,-16.856,145.994,11
0.172,-0.002,0.968,50.363,-17.180,143.438,11
0.195,-0.311,0.927,34.509,-30.380,143.784,11
0.117,-0.288,0.998,15.792,0.335,156.460,11
0.148,-0.310,0.915,-0.795,5.371,140.848,11
0.157,-0.221,0.833,20.716,-2.362,153.662,11
0.095,-0.063,0.794,35.207,-43.364,127.481,11
0.114,-0.448,1.043,26.931,-44.551,115.461,11
0.109,-0.470,0.878,15.722,-14.591,135.736,11
0.086,-0.360,0.585,3.186,-30.488,171.900,11
0.219,0.411,0.967,17.887,-74.187,170.000,11
0.175,-0.048,0.974,32.763,-81.092,123.854,11
0.092,-0.470,0.890,29.795,-98.428,157.013,11
0.078,-0.235,1.061,16.211,-90.228,167.824,11
0.199,-0.215,0.935,-1.424,-54.909,143.162,11
0.063,-0.277,0.963,-12.913,-54.585,130.520,11
0.019,-0.293,0.907,-11.202,-62.030,137.774,11
0.030,-0.058,0.952,-9.036,-69.871,136.841,11
0.051,-0.267,0.994,-4.427,-83.862,121.747,11
0.056,-0.327,1.032,-20.281,-53.542,115.081,11
0.014,-0.390,0.845,-35.925,-42.968,115.046,11
-0.013,-0.164,0.882,-29.395,-54.801,119.606,11
-0.006,0.132,1.040,-10.817,-66.274,112.732,11
0.016,-0.152,1.128,-7.709,-46.169,75.947,11
-0.022,-0.489,0.906,-25.658,-45.090,91.835,11
-0.000,-0.097,0.957,-31.246,-49.874,101.437,11
0.032,-0.010,0.990,-26.252,-43.220,85.791,11
-0.059,-0.092,1.078,-9.909,-37.825,75.049,11
-0.076,-0.269,0.941,-11.865,-46.493,76.983,11
0.144,-0.123,0.877,-32.049,-64.979,89.141,11
0.132,-0.458,0.990,-60.334,-75.446,59.816,11
-0.149,-0.179,1.081,-50.417,-61.527,90.419,11
-0.255,0.488,1.362,-21.363,-49.334,81.957,11
-0.200,0.189,1.178,-1.354,-29.589,49.938,11
-0.150,-0.246,0.940,-18.919,-18.978,30.768,11
-0.106,-0.238,0.879,-51.290,-14.555,39.852,11
-0.131,0.075,0.921,-47.449,-16.785,43.928,11
-0.132,0.113,1.088,-15.986,1.091,17.815,11
-0.166,-0.165,0.756,5.944,-12.505,9.560,11
-0.131,-0.071,1.072,7.132,-23.906,23.860,11
-0.100,0.049,1.066,1.684,-1.067,19.059,11
-0.059,0.076,1.035,-14.274,12.564,6.244,11
-0.191,0.019,1.012,-15.846,18.103,-1.769,11
-0.138,-0.064,1.012,-8.582,-4.304,6.659,11
-0.137,-0.001,1.111,1.859,-1.679,8.110,11
-0.093,0.008,1.037,6.468,13.032,7.488,11
-0.082,0.051,0.895,0.567,23.642,-2.805,11
-0.084,-0.058,0.922,-7.779,15.297,-10.266,11
-0.067,-0.031,0.887,-6.871,5.479,-9.022,11
-0.064,-0.097,0.945,-3.833,-5.707,-7.468,11
-0.053,-0.090,0.978,0.322,-5.419,-2.909,11
-0.033,-0.114,0.933,-2.821,-3.477,-5.154,11
-0.078,0.047,1.024,-13.890,-8.045,-1.355,11
-0.096,-0.033,1.103,-13.855,-9.915,-3.254,11
-0.104,-0.125,1.050,-14.903,-0.600,-5.119,11
-0.105,-0.025,1.019,-8.757,2.098,-2.563,11
-0.096,0.047,1.048,-6.697,10.406,-2.633,11
-0.174,0.019,0.909,-8.827,14.111,-10.473,11
-0.107,-0.008,1.001,-13.087,-0.816,-4.947,11
-0.092,-0.057,0.970,-9.316,2.781,-4.256,11
-0.063,-0.006,0.950,-5.230,2.493,-1.251,11
-0.076,0.037,0.941,-0.656,3.932,-4.981,11
-0.084,0.003,0.901,-0.411,0.084,-5.292,11
-0.090,0.061,1.007,1.859,-3.369,-3.772,11
-0.084,-0.015,0.994,2.976,-0.528,-3.461,11
-0.092,0.018,0.985,3.954,0.695,-1.942,11
-0.100,-0.125,0.977,-0.900,3.536,-7.434,11
-0.108,-0.026,1.032,-9.316,0.983,-2.356,11
-0.083,0.004,1.027,-8.233,5.730,-3.738,11
-0.110,0.081,1.031,-5.510,4.867,-6.743,11
-0.123,-0.041,0.933,1.300,2.529,-11.648,11
-0.104,-0.041,1.003,-0.516,-9.843,-4.843,11
-0.083,-0.127,0.970,-7.256,-3.873,-1.769,11
-0.062,0.009,0.968,-13.960,0.515,3.101,11
-0.061,0.070,0.965,-14.135,-0.024,1.236,11
-0.090,0.026,1.027,-8.548,3.716,-2.702,11
-0.124,-0.030,0.948,1.963,-2.254,-1.216,11
-0.113,-0.061,0.977,0.427,-5.779,3.481,11
-0.088,0.053,0.963,-5.824,-3.441,4.794,11
-0.101,0.068,1.008,-10.224,-4.916,-0.042,11
-0.110,0.043,1.044,-6.732,-4.808,-2.909,11
-0.116,0.101,0.993,5.386,-0.384,-5.223,11
-0.106,-0.010,1.033,11.671,3.249,-3.427,11
-0.088,-0.064,1.008,8.703,2.889,-1.942,11
-0.079,-0.049,0.949,-2.890,-2.002,0.234,11
-0.081,0.049,1.016,-3.030,0.192,-1.113,11
-0.092,0.020,1.051,4.268,7.457,-1.182,11
-0.107,0.015,0.973,7.341,4.256,-2.598,11
-0.122,-0.079,0.986,0.671,-8.081,0.891,11
-0.125,-0.012,0.993,-5.510,-10.670,3.688,11
-0.104,0.025,1.019,-11.306,-9.160,3.585,11
-0.087,0.075,1.102,-6.278,0.443,2.134,11
-0.089,0.046,1.035,3.709,15.261,-1.251,11
-0.101,0.005,0.892,2.173,7.241,-3.323,11
-0.104,0.047,0.916,1.090,7.780,-0.698,11
-0.093,-0.035,1.004,0.671,1.163,4.483,11
-0.102,0.016,0.969,3.046,-0.168,1.512,11
-0.070,0.015,1.043,0.532,-1.571,1.063,11
-0.075,0.006,1.032,-3.833,3.105,0.994,11
-0.096,0.037,0.969,-1.983,11.881,-1.838,11
-0.075,0.021,0.992,-3.763,1.486,1.996,11
-0.077,0.025,0.991,-2.157,1.774,1.340,11
-0.111,0.022,0.930,3.814,1.271,-1.804,11
-0.092,-0.000,0.991,-0.656,-0.348,-0.664,11
-0.095,0.068,1.015,-1.808,-2.398,0.234,11
-0.085,-0.088,0.972,-11.446,-5.203,1.512,11
-0.105,0.056,1.036,-3.554,0.515,3.136,11
-0.091,-0.059,0.940,5.211,-2.578,6.210,11
-0.092,0.039,0.980,1.894,-1.930,6.486,11
-0.095,0.066,1.031,1.440,-2.434,1.478,11
-0.088,0.030,0.992,0.357,1.342,-1.147,11
-0.101,-0.045,0.990,-0.795,-0.959,0.062,11
-0.095,-0.031,1.007,-2.681,-1.391,4.103,11
-0.088,0.042,0.969,-3.379,-3.117,6.141,11
-0.085,0.103,1.001,-0.202,1.414,0.649,11
-0.102,0.065,0.943,5.700,6.018,-3.911,11
-0.106,-0.063,1.012,5.071,-1.067,-2.045,11
-0.102,-0.002,0.992,-0.621,1.954,4.241,11
-0.106,0.073,0.985,-0.656,1.702,1.996,11
-0.087,0.022,1.002,0.113,3.285,-1.907,11
-0.115,0.018,0.991,-0.237,5.155,-1.147,11
-0.098,-0.049,1.034,1.230,-0.887,2.549,11
-0.084,0.023,1.009,1.021,0.659,6.935,11
-0.078,0.042,0.955,3.465,1.414,3.032,11
-0.064,0.071,0.962,-0.271,1.666,0.580,11
-0.106,0.064,0.977,1.265,6.594,-0.767,11
-0.088,-0.070,1.030,-0.656,-2.866,0.303,11
-0.103,-0.030,0.954,-1.110,1.019,3.550,11
-0.080,0.009,1.020,-2.925,-0.096,8.144,11
-0.091,0.097,0.968,-0.725,-1.643,8.697,11
-0.092,0.103,1.032,1.440,-2.902,-0.491,11
-0.125,0.027,0.975,1.405,0.839,-4.809,11
-0.102,-0.091,1.048,-0.551,-1.283,-0.975,11
-0.094,0.003,0.972,-0.795,0.515,3.827,11
-0.080,0.025,0.985,1.230,-0.564,8.524,11
-0.101,0.370,1.202,-0.865,-1.823,2.928,12
-0.134,0.621,1.228,11.147,18.498,-16.863,12
-0.015,0.614,1.322,21.868,56.659,-67.499,12
-0.106,1.431,1.509,42.995,119.492,-123.213,12
-0.401,2.002,1.185,67.998,131.109,-256.435,12
-0.599,1.171,1.317,89.823,157.364,-396.185,12
-0.628,0.975,1.350,115.070,194.374,-411.348,12
-0.857,1.844,1.548,135.289,278.067,-443.574,12
-1.212,0.502,-0.353,111.683,303.100,-617.312,12
-0.892,-0.622,0.271,93.105,143.625,-560.735,12
-0.732,-0.155,-0.153,99.705,97.588,-528.302,12
-0.875,-1.612,0.381,45.788,86.619,-528.060,12
-0.862,-1.229,0.576,-0.970,93.812,-414.146,12
-0.797,-1.089,0.845,-19.547,99.998,-379.675,12
-0.665,-1.075,0.442,-30.303,93.920,-316.984,12
-0.526,-1.180,0.409,-39.138,22.922,-204.141,12
-0.223,-0.381,1.165,-34.144,-60.627,-120.070,12
-0.316,-0.628,1.404,-39.417,-20.921,-151.398,12
-0.262,-1.104,1.246,-42.036,-1.283,-104.354,12
-0.065,-0.667,1.038,-39.312,-3.621,-38.589,12
0.052,-0.234,1.354,-33.131,-16.677,-31.197,12
-0.063,-0.644,1.159,-22.271,18.139,-41.387,12
-0.050,-0.619,0.990,-14.868,-5.419,-0.249,12
0.057,-0.476,1.120,-3.519,-3.765,36.985,12
0.086,-0.407,1.037,-2.297,3.105,46.104,12
0.046,-0.500,0.918,2.557,6.414,57.191,12
-0.026,-0.437,0.889,6.328,6.054,50.525,12
-0.111,-0.786,0.853,0.811,0.263,59.506,12
-0.042,-0.540,0.907,-3.414,2.817,89.486,12
0.087,-0.186,0.942,-9.525,3.608,91.214,12
0.054,-0.502,0.892,-13.960,-1.175,93.424,12
0.099,-0.576,0.969,-4.636,-3.837,122.680,12
0.060,-0.672,0.683,-1.703,6.378,140.917,12
0.169,-0.045,0.939,3.570,-24.913,173.040,12
0.291,0.455,1.137,0.148,-13.332,113.561,12
0.165,-0.421,0.992,-0.516,1.594,55.015,12
0.135,-0.570,1.024,23.195,-7.865,83.753,12
0.088,-0.601,0.876,5.770,-2.002,102.854,12
0.154,-0.113,0.968,-0.167,-3.225,128.828,12
0.191,0.160,0.851,5.421,-8.548,92.353,12
0.192,-0.413,0.980,7.481,-25.812,78.399,12
0.151,-0.472,1.049,15.268,9.255,106.273,12
0.057,-0.810,0.671,-2.821,0.479,134.734,12
0.078,-0.215,0.766,-0.341,-17.899,181.053,12
0.181,0.293,0.850,8.843,-29.732,131.004,12
0.118,-0.305,0.798,3.151,-28.438,96.084,12
0.072,-0.468,0.852,5.246,-46.709,129.450,12
0.085,-0.303,0.872,6.154,-61.491,142.471,12
0.063,-0.198,0.971,2.348,-64.728,148.447,12
0.086,0.074,1.050,-1.319,-50.665,138.188,12
0.075,-0.139,1.008,-3.065,-45.054,106.826,12
0.075,-0.379,1.139,-5.544,-43.615,119.847,12
0.124,-0.167,1.169,-15.427,-20.525,122.991,12
0.075,-0.354,0.806,-9.909,-8.476,117.257,12
0.061,-0.184,0.957,-10.817,-19.734,132.006,12
0.091,0.112,0.991,-10.049,-28.977,111.351,12
0.126,-0.056,1.109,-13.855,-39.551,93.873,12
0.109,-0.260,1.039,-13.192,-23.474,95.220,12
0.095,-0.244,0.947,-13.262,-14.555,108.035,12
0.110,-0.103,0.868,-4.811,-29.193,120.504,12
0.132,0.268,0.950,8.074,-38.005,91.317,12
0.163,-0.016,1.161,5.595,-41.529,59.229,12
0.084,-0.265,0.992,-3.659,-14.015,57.019,12
0.069,-0.382,0.995,-15.811,-35.271,91.283,12
0.098,-0.091,0.863,-9.560,-38.904,108.207,12
0.141,0.118,0.936,7.586,-54.801,98.674,12
0.126,0.050,1.029,8.040,-34.948,74.082,12
0.100,-0.114,1.016,-1.633,-27.107,67.001,12
0.088,-0.128,0.982,-5.719,-16.065,60.162,12
0.100,-0.153,0.902,-1.738,-23.654,73.183,12
0.085,0.161,0.994,13.417,-25.380,64.548,12
0.076,0.122,1.062,27.595,-25.021,36.571,12
0.086,0.004,1.079,19.668,-9.196,17.677,12
0.042,-0.208,0.864,-2.192,-4.700,-5.707,12
-0.007,-0.415,0.782,-29.500,-26.388,27.176,12
0.058,-0.088,0.904,-29.185,-35.523,45.689,12
0.171,-0.091,0.883,-21.224,-48.471,36.951,12
0.023,-0.110,1.067,-21.119,-35.451,36.018,12
0.052,0.016,1.222,-23.249,-29.265,24.033,12
-0.050,0.019,1.114,-10.748,4.543,13.843,12
-0.033,-0.092,1.058,-12.179,8.500,24.413,12
-0.029,-0.090,1.021,-9.665,-5.347,32.115,12
-0.024,-0.151,0.923,-3.868,-10.742,32.909,12
-0.017,-0.057,0.970,-13.681,-16.425,34.740,12
0.015,0.018,0.989,-21.992,-19.230,21.338,12
0.014,-0.095,0.945,-22.900,-5.671,14.914,12
0.019,-0.005,0.942,-17.697,-14.303,13.221,12
0.036,-0.061,0.980,-14.973,-17.935,13.705,12
0.024,-0.061,1.042,-13.751,-12.145,15.605,12
0.021,0.173,1.042,-8.303,-5.419,7.971,12
-0.040,-0.075,0.891,-7.430,-3.009,-14.860,12
-0.028,-0.102,1.109,-15.881,-12.037,9.353,12
-0.027,0.031,0.992,-10.328,-4.664,10.182,12
-0.027,0.110,0.972,-6.836,-1.894,2.928,12
-0.035,0.062,0.930,-1.494,-6.894,-7.123,12
-0.031,0.046,1.017,6.294,-13.763,-5.845,12
-0.045,-0.018,1.060,13.522,-10.095,-5.638,12
-0.045,-0.094,1.021,9.332,0.263,-2.978,12
-0.034,-0.021,0.994,-5.649,5.011,-0.664,12
-0.017,0.065,0.947,-13.506,5.515,-0.526,12
-0.032,-0.008,0.962,-12.738,3.285,-4.463,12
-0.057,-0.050,0.945,-5.160,-0.564,-5.258,12
-0.030,-0.044,1.062,0.986,-4.017,7.108,12
-0.006,-0.025,0.983,2.068,-3.081,7.108,12
0.007,0.038,0.984,-4.322,-6.426,3.101,12
0.013,0.172,0.994,-7.849,-6.031,-0.077,12
-0.026,0.007,1.033,-5.754,-2.110,-9.230,12
-0.035,-0.055,1.025,-2.611,4.831,-0.595,12
-0.039,0.019,1.013,2.871,4.615,5.933,12
-0.033,0.022,1.017,0.846,9.327,4.172,12
-0.012,0.077,1.052,-3.519,12.852,-1.700,12
-0.027,0.011,0.897,-5.440,5.299,-9.333,12
-0.040,-0.001,1.027,5.735,-2.146,-3.358,12
-0.082,-0.066,0.997,9.855,-2.614,-0.491,12
-0.030,-0.043,1.087,4.827,-4.484,11.184,12
-0.022,0.005,1.042,2.802,-0.887,5.208,12
0.008,0.065,1.001,2.033,5.766,-3.669,12
0.013,0.077,0.970,2.348,8.464,-17.312,12
0.009,-0.084,0.949,-7.535,-3.405,-13.236,12
0.011,0.023,0.940,-16.055,0.731,-0.802,12
-0.001,0.027,0.965,-11.236,-2.326,-3.012,12
-0.030,0.028,1.023,-6.208,-0.096,-2.114,12
-0.061,0.002,0.968,2.836,2.673,-4.325,12
-0.072,-0.085,0.961,2.173,-5.095,-0.975,12
-0.043,-0.068,1.010,-2.017,-2.578,2.169,12
-0.041,-0.005,1.009,6.189,1.810,1.581,12
-0.034,0.014,1.016,-0.027,-1.247,2.099,12
-0.061,0.079,0.941,4.862,3.716,-2.771,12
-0.069,0.012,1.045,5.840,8.176,-1.147,12
-0.069,-0.095,1.048,-1.075,-0.384,-1.044,12
-0.027,-0.002,1.027,-4.148,3.464,1.512,12
-0.009,0.032,0.978,-7.011,6.162,1.478,12
-0.011,0.042,0.876,-3.484,8.284,0.925,12
-0.013,-0.001,0.979,-1.040,2.206,3.067,12
-0.043,0.011,0.925,1.684,3.824,2.410,12
-0.007,0.014,1.033,-3.379,-0.672,8.386,12
-0.001,0.039,1.003,0.671,0.767,3.688,12
0.011,0.116,0.973,5.595,1.127,-1.804,12
0.001,-0.030,0.963,4.582,2.961,-7.330,12
-0.016,-0.103,0.945,0.776,-2.830,-2.943,12
-0.030,-0.059,1.012,-1.948,-2.326,2.859,12
-0.024,-0.055,0.970,-2.646,-2.722,5.346,12
-0.027,0.012,0.993,-2.960,-0.887,6.279,12
-0.037,0.004,1.010,-1.040,-2.182,6.728,12
-0.048,0.072,1.056,-0.621,-1.319,4.483,12
-0.035,-0.025,1.062,-4.741,-2.398,2.238,12
-0.035,0.018,1.049,-4.532,2.601,2.652,12
-0.034,0.012,0.972,-0.551,4.615,1.996,12
-0.036,0.046,1.000,1.614,1.378,0.856,12
-0.028,0.074,0.993,1.614,2.493,-1.113,12
-0.005,0.012,0.921,-2.017,1.163,-4.498,12
-0.012,0.041,0.993,-0.271,0.084,-2.114,12
-0.019,-0.003,0.942,5.176,1.271,-3.289,12
-0.032,0.023,0.941,2.243,-0.240,-4.118,12
-0.024,-0.015,1.007,-0.376,-3.873,-1.527,12
-0.012,-0.028,1.032,-3.344,-2.254,-0.698,12
-0.013,-0.035,1.003,-2.856,-0.420,-0.284,12
-0.022,0.042,1.032,-1.354,1.558,0.027,12
-0.041,0.018,1.048,0.043,3.429,-2.978,12
-0.058,-0.144,1.017,-3.205,-2.110,-4.394,12
-0.018,0.005,0.980,-2.821,-1.607,3.619,12
-0.014,0.004,0.951,-2.437,0.335,4.932,12
0.001,0.063,0.975,-2.541,2.278,4.725,12
-0.015,0.122,0.975,0.881,2.709,-1.009,12
-0.043,0.037,0.941,1.963,3.213,-8.643,12
-0.039,-0.047,0.995,0.881,-5.131,-1.838,12
-0.045,-0.025,1.025,1.544,-3.441,2.203,12
-0.039,-0.004,1.026,1.335,-2.146,4.586,12
-0.032,0.022,1.003,-0.202,-0.600,4.068,12
-0.031,0.040,1.025,0.322,2.493,-0.077,12
-0.047,-0.029,1.001,-0.656,2.781,-0.871,12
-0.037,-0.031,1.000,-3.205,1.630,5.277,12
-0.021,0.008,0.983,1.544,0.875,7.730,12
-0.013,0.037,0.967,5.281,0.407,6.417,12
-0.012,0.052,0.906,2.068,-0.132,4.759,12
-0.009,0.030,0.976,-3.414,-1.643,1.029,12
-0.027,0.031,0.990,0.008,-0.096,-1.389,12
-0.027,-0.059,1.037,-0.097,0.048,0.234,12
-0.038,-0.040,0.994,-0.481,0.228,4.655,12
-0.026,-0.014,0.972,-1.529,-1.427,6.866,12
-0.015,0.064,0.968,-0.830,-1.247,4.897,12
-0.028,0.046,0.969,-1.179,-2.686,4.621,12
-0.039,0.011,1.002,-0.760,-5.419,1.098,12
-0.036,0.027,1.041,0.881,-1.499,1.340,12
-0.030,0.017,0.988,1.614,1.342,0.822,12
-0.023,0.036,0.992,1.929,1.127,1.201,12
-0.029,-0.032,0.974,-0.725,-4.124,1.685,12
-0.031,0.040,1.007,0.706,-4.664,1.823,12
-0.026,0.083,1.026,4.338,-1.679,-2.114,12
-0.047,-0.018,0.974,2.452,-0.851,-4.601,12
-0.040,-0.052,1.009,-1.668,-1.607,2.030,12
-0.035,0.030,0.999,2.208,-1.966,2.894,12
-0.049,-0.017,1.003,4.443,-1.463,1.374,12
-0.045,-0.010,0.988,5.595,-1.679,3.965,12
-0.036,-0.033,0.995,6.503,-4.196,5.554,12
-0.037,0.005,1.009,1.509,-4.520,9.664,12
-0.039,0.015,1.003,-0.306,-1.966,6.141,12
-0.037,0.032,0.996,-2.646,0.875,4.621,12
-0.024,0.028,1.017,0.182,1.450,1.961,12
-0.042,-0.097,0.957,-2.925,-1.966,2.756,12
-0.052,0.696,1.076,-12.494,110.608,-151.467,13
0.003,0.709,0.886,12.684,94.100,-197.302,13
0.086,1.193,1.183,38.734,113.881,-241.859,13
-0.007,1.259,1.107,84.061,153.192,-356.809,13
-0.235,1.880,0.759,128.619,185.634,-438.324,13
-1.532,1.953,-0.960,122.438,196.280,-620.973,13
-2.106,-1.552,0.233,7.376,-350.084,-698.447,13
-1.012,-0.556,1.737,109.832,-122.094,-434.145,13
-0.972,-0.649,0.449,175.482,-0.528,-496.939,13
-0.704,-1.230,0.512,154.530,-56.743,-424.681,13
-0.807,-1.088,0.881,122.822,-29.445,-382.714,13
-0.844,-1.412,1.107,64.121,-0.923,-306.380,13
-0.610,-0.683,1.396,29.550,37.489,-221.825,13
-0.242,-0.506,1.704,4.722,37.417,-182.380,13
-0.222,-0.478,1.226,-5.614,101.760,-184.038,13
-0.264,-0.503,0.762,9.541,98.344,-159.066,13
-0.415,-0.630,0.714,27.176,47.667,-146.148,13
-0.344,-0.606,1.091,27.071,11.773,-88.742,13
-0.249,-0.562,1.159,11.287,29.900,-61.835,13
-0.129,-0.408,1.169,5.211,68.204,-33.926,13
-0.004,-0.328,0.926,-1.389,90.179,-32.579,13
-0.066,-0.688,0.536,-4.741,71.117,-18.866,13
-0.107,-0.706,0.394,-9.944,11.089,19.611,13
0.006,-0.408,0.661,-10.922,-15.813,49.731,13
0.041,-0.264,0.942,-13.471,-13.907,51.596,13
0.089,-0.470,0.978,-19.722,1.594,76.879,13
0.111,-0.390,0.694,-17.382,1.846,98.018,13
-0.009,-0.581,0.776,-17.278,-45.378,105.928,13
-0.107,-0.205,1.078,-6.906,-55.664,129.588,13
-0.067,0.229,1.290,0.182,-39.623,100.436,13
-0.104,-0.299,1.414,-7.430,-8.872,73.253,13
-0.154,-0.511,1.101,-9.979,35.546,111.178,13
-0.082,-0.506,0.672,-22.970,48.171,149.759,13
0.094,0.049,0.603,-24.017,17.024,157.255,13
0.177,0.222,0.681,-7.640,-41.529,125.339,13
0.133,-0.328,0.907,15.512,-67.101,133.525,13
-0.006,-0.468,1.221,33.846,-76.345,166.408,13
-0.172,-0.851,1.057,13.766,-29.049,158.498,13
-0.324,-0.827,0.781,-23.668,-34.660,210.550,13
-0.206,-0.074,1.116,-22.166,-58.398,216.906,13
-0.110,0.051,1.056,-18.430,-37.897,170.414,13
-0.090,0.009,1.121,-21.747,-35.811,171.485,13
-0.092,-0.153,0.896,-16.195,-32.646,151.935,13
-0.140,-0.418,0.753,-25.658,-48.399,170.656,13
-0.123,-0.312,0.671,-35.611,-44.371,190.482,13
-0.017,0.214,0.866,-15.497,-76.489,185.439,13
-0.068,-0.000,0.963,-3.240,-79.222,149.759,13
-0.058,-0.246,1.260,-27.195,-85.049,164.992,13
-0.094,-0.293,1.242,-45.284,-32.250,150.934,13
-0.181,-0.313,1.023,-46.122,-10.562,161.779,13
-0.097,0.237,1.153,-34.249,-31.279,184.369,13
0.000,0.667,1.136,-16.998,-16.317,114.286,13
-0.098,-0.121,1.112,-26.112,-21.568,84.858,13
-0.161,-0.232,1.111,-53.769,2.314,98.363,13
-0.132,-0.033,0.879,-53.001,11.161,99.572,13
-0.121,0.031,0.859,-20.560,-5.203,92.630,13
-0.093,0.067,0.799,27.385,-22.251,83.235,13
0.021,0.085,0.814,61.398,-17.612,78.641,13
-0.054,-0.269,0.937,30.039,-17.756,67.692,13
-0.081,-0.425,1.115,-6.208,-3.261,86.309,13
-0.052,-0.068,0.984,-9.525,2.386,92.077,13
-0.058,0.114,0.881,3.500,-6.462,80.299,13
-0.028,0.025,0.941,-12.878,-21.100,60.058,13
-0.044,0.156,1.098,-30.931,-18.331,34.636,13
-0.078,-0.149,1.023,-29.185,-8.944,26.485,13
-0.101,-0.114,1.103,-21.747,-8.045,33.324,13
-0.123,-0.100,1.061,-9.665,5.263,33.186,13
-0.107,-0.148,0.872,-12.075,7.421,30.457,13
-0.090,-0.051,1.015,-14.240,7.852,25.967,13
-0.111,-0.130,0.880,-11.516,3.644,25.311,13
-0.113,-0.289,0.904,-4.567,-11.641,34.740,13
-0.083,-0.177,0.947,-2.681,-13.763,57.778,13
-0.031,-0.055,1.006,-0.306,-13.404,59.091,13
-0.036,-0.022,0.886,-7.814,-10.814,52.977,13
-0.038,0.085,0.990,-18.709,-13.224,39.161,13
-0.047,0.025,1.048,-16.754,-10.526,29.421,13
-0.054,-0.127,0.935,-8.408,-7.757,23.825,13
0.062,0.048,1.030,-12.982,-8.476,31.770,13
-0.040,-0.121,1.071,-15.881,-8.584,23.065,13
-0.160,0.105,1.142,-18.360,-2.254,23.376,13
-0.166,0.091,1.120,-6.592,2.817,14.258,13
-0.120,0.027,1.067,3.744,6.773,7.764,13
-0.091,-0.112,0.882,7.655,13.643,3.447,13
-0.057,-0.135,0.869,-5.929,1.199,12.393,13
-0.001,-0.051,1.041,-17.801,1.414,22.133,13
-0.016,0.066,1.121,-6.138,13.427,20.717,13
-0.072,-0.079,0.923,-1.494,9.291,3.067,13
-0.081,-0.093,0.886,-5.195,0.803,9.837,13
-0.069,-0.056,0.935,-7.989,-0.384,11.598,13
-0.065,-0.040,1.062,-6.767,1.091,7.799,13
-0.058,0.028,1.092,-1.284,13.427,4.725,13
0.009,0.106,1.102,11.776,27.526,-4.498,13
-0.070,-0.066,0.801,25.290,32.525,-18.694,13
-0.006,-0.178,0.859,21.728,4.472,-4.360,13
-0.009,-0.239,0.891,-15.462,-7.721,13.118,13
-0.060,0.292,1.056,-22.201,-3.189,12.289,13
-0.023,0.297,1.252,-3.100,-3.117,-16.207,13
-0.096,0.041,0.917,9.506,7.960,-39.107,13
-0.043,-0.317,1.028,0.741,-13.368,-22.735,13
-0.015,-0.157,0.985,-15.078,-4.232,2.134,13
-0.023,-0.098,1.022,-20.281,-8.656,10.320,13
-0.026,0.021,1.085,-17.732,5.263,2.859,13
-0.038,0.020,0.920,-14.309,17.707,-11.337,13
-0.046,0.014,0.868,-15.217,2.961,-15.482,13
-0.050,0.180,0.809,-7.430,-15.634,-21.941,13
-0.041,0.095,0.795,1.160,-46.709,-35.480,13
-0.118,-0.205,1.103,-0.481,-47.428,-53.545,13
-0.148,-0.295,1.206,-4.951,-21.928,-17.105,13
-0.114,-0.178,1.099,-2.786,3.213,-8.746,13
-0.048,0.030,1.033,3.535,0.371,5.761,13
0.007,0.131,1.017,0.706,2.493,-8.366,13
-0.052,0.078,0.936,-5.824,5.730,-24.946,13
-0.074,-0.129,1.069,-13.401,2.062,-18.279,13
-0.069,-0.142,1.047,-13.401,18.426,-8.055,13
-0.039,0.008,0.956,-10.014,21.592,3.481,13
-0.063,0.111,0.955,3.116,15.945,-2.702,13
-0.072,0.012,0.951,4.303,3.644,-9.126,13
-0.091,0.025,0.972,-0.760,9.183,-5.119,13
-0.080,-0.037,1.108,0.741,6.665,-0.940,13
-0.065,-0.052,0.978,-1.144,11.989,5.450,13
-0.063,0.015,0.970,-2.751,4.112,8.662,13
-0.040,0.110,1.064,4.373,-1.859,8.420,13
-0.046,-0.036,0.994,14.395,4.076,-0.387,13
-0.003,-0.012,0.999,9.017,-0.600,8.386,13
-0.020,0.047,1.043,0.776,5.515,6.313,13
-0.045,0.153,0.986,3.325,10.658,3.343,13
-0.045,0.039,0.992,-2.506,-1.751,-4.636,13
-0.068,0.017,0.858,-1.598,-3.189,-9.851,13
-0.058,-0.048,0.880,-0.551,-0.887,-4.774,13
-0.047,0.020,0.957,-1.983,-8.764,-0.318,13
-0.059,0.024,1.013,-9.665,-5.923,-4.014,13
-0.116,0.028,1.001,-12.179,1.630,-10.370,13
-0.097,-0.165,1.142,-9.281,-7.469,-8.781,13
-0.062,-0.109,1.144,-4.357,-2.074,6.486,13
-0.018,-0.053,1.091,0.148,5.551,9.802,13
0.013,0.067,1.048,-6.278,11.197,12.634,13
-0.015,0.229,1.059,-7.500,15.082,3.308,13
-0.068,0.061,0.998,-6.592,14.506,-12.649,13
-0.068,-0.307,1.005,-3.973,2.781,-3.185,13
-0.023,-0.208,0.980,16.874,0.515,23.825,13
-0.011,-0.103,0.982,19.458,3.105,30.733,13
-0.007,0.128,0.992,11.811,4.184,30.112,13
-0.007,0.270,0.862,10.693,11.737,11.011,13
-0.021,0.089,0.878,-9.665,3.069,-7.226,13
-0.058,-0.057,0.916,-12.598,-9.196,-11.682,13
-0.060,-0.063,0.962,-14.554,-4.484,-4.290,13
-0.066,0.029,0.944,-8.163,-4.880,1.443,13
-0.080,0.076,1.020,-1.179,-7.361,5.588,13
-0.091,0.035,1.108,-2.960,-12.684,4.310,13
-0.067,0.091,1.173,-2.646,-3.585,-2.184,13
-0.028,0.033,1.091,-3.135,4.364,-4.981,13
-0.008,0.057,1.045,-3.310,8.356,-3.772,13
-0.020,0.039,1.001,0.706,7.673,-6.190,13
-0.027,0.168,1.052,6.154,7.888,-19.937,13
-0.044,-0.137,0.932,2.767,3.680,-24.220,13
-0.037,-0.250,0.924,2.906,-2.650,-9.506,13
-0.010,-0.090,1.027,6.817,0.479,14.810,13
-0.011,0.130,0.989,10.693,8.068,17.435,13
-0.030,0.202,0.908,12.160,10.298,6.313,13
-0.030,0.076,0.963,4.722,-1.607,-3.807,13
-0.047,-0.031,0.944,2.941,-1.966,-7.054,13
-0.043,-0.070,0.990,3.325,-4.017,-0.387,13
-0.047,-0.034,1.001,2.417,-2.002,2.307,13
-0.028,-0.029,1.007,3.186,-1.607,4.379,13
0.007,-0.043,1.040,3.884,-0.348,6.003,13
0.021,0.023,0.954,1.894,0.048,4.448,13
0.008,-0.012,0.972,-4.148,-1.679,5.623,13
-0.042,-0.070,0.969,-5.440,0.048,-2.080,13
-0.060,-0.138,0.921,-4.287,-4.844,-0.007,13
-0.060,-0.042,0.990,4.582,-11.390,-1.251,13
-0.067,-0.140,1.039,9.087,-6.498,-1.665,13
-0.007,0.026,1.041,6.433,-0.456,13.291,13
-0.025,-0.073,0.971,-0.446,-2.614,7.730,13
-0.148,0.054,1.209,-5.160,-2.398,12.427,13
-0.038,0.217,1.078,0.602,10.478,6.866,13
-0.013,0.050,0.881,-0.376,2.098,0.925,13
-0.057,0.000,1.053,1.090,1.558,-1.700,13
-0.055,-0.001,0.946,0.846,6.234,3.896,13
-0.031,0.027,0.882,-0.167,-0.240,2.514,13
0.002,-0.003,1.077,-1.459,-0.024,4.034,13
0.021,-0.000,0.937,-1.703,1.414,1.581,13
0.024,-0.018,0.908,-1.703,-4.988,2.479,13
-0.003,0.004,0.990,-0.551,-9.375,-2.702,13
-0.040,-0.081,0.986,-3.240,-5.347,-2.391,13
-0.028,-0.107,0.952,-7.989,-5.311,-0.975,13
-0.055,-0.092,0.944,-5.475,-4.736,0.200,13
-0.106,-0.073,0.992,-3.344,-5.383,9.733,13
-0.124,-0.033,1.062,-0.306,-8.908,13.256,13
-0.108,0.072,1.144,2.871,-7.433,14.776,13
-0.088,0.075,1.136,1.894,-0.096,9.180,13
-0.059,0.083,1.047,-2.646,5.874,6.659,13
-0.056,0.083,1.016,-1.284,7.744,3.377,13
-0.046,0.060,0.982,4.862,6.773,-0.284,13
-0.035,0.016,0.903,5.351,3.464,1.547,13
-0.012,-0.031,0.948,-2.157,0.299,-0.940,13
0.007,0.040,0.976,-2.227,0.263,1.374,13
-0.015,0.018,0.984,-2.437,-0.744,-4.152,13
-0.044,0.040,0.945,-1.808,2.817,-6.190,13
-0.049,-0.095,0.997,-1.703,-3.153,-6.017,13
-0.060,-0.067,0.991,-1.354,-2.470,0.891,13
0.116,0.580,1.184,-4.916,2.565,-1.907,14
0.279,1.284,1.331,13.522,31.806,-65.876,14
0.233,0.860,0.969,18.131,86.187,-148.496,14
0.412,1.650,1.208,46.452,99.818,-195.851,14
0.194,3.328,1.296,113.394,158.407,-349.175,14
-1.708,2.802,-0.720,95.235,196.819,-680.417,14
-1.812,-2.029,0.808,-5.859,-210.931,-779.790,14
-0.927,1.998,1.540,205.479,52.954,-474.350,14
-1.985,0.920,-0.109,210.263,179.520,-760.654,14
-2.015,-3.784,1.014,62.725,106.760,-681.695,14
-1.160,-3.317,0.123,38.141,61.586,-315.740,14
-0.346,0.732,0.988,41.109,-2.254,-170.257,14
-0.652,-0.951,1.653,-17.033,39.790,-321.543,14
-0.425,-1.236,0.590,-13.332,66.370,-207.353,14
0.052,0.031,1.393,-7.430,18.211,-172.916,14
-0.231,-0.552,1.367,-30.024,57.270,-253.948,14
-0.190,-0.546,0.963,-20.455,51.587,-174.160,14
-0.131,-0.437,1.386,-8.932,0.623,-129.085,14
-0.153,-0.582,0.894,7.097,17.851,-103.076,14
0.063,-0.267,0.837,19.843,21.951,-56.239,14
0.101,-0.254,0.919,31.122,-2.326,-78.932,14
-0.143,-0.966,1.086,7.236,42.704,-90.158,14
-0.237,-0.755,0.750,14.674,38.064,-23.737,14
-0.114,-0.510,0.555,14.116,12.384,18.437,14
-0.209,-0.532,0.609,5.106,-5.527,14.776,14
-0.133,-0.587,0.902,18.830,-22.899,61.647,14
-0.095,-0.808,1.084,15.268,-30.991,98.571,14
-0.096,-0.958,0.792,4.024,-24.409,160.916,14
0.134,0.063,1.306,6.119,-45.054,231.896,14
0.061,-0.168,1.036,4.094,9.327,148.274,14
-0.050,-0.746,0.535,16.351,-0.312,188.859,14
-0.176,-1.197,0.719,-40.430,-44.730,341.389,14
0.223,0.641,0.986,-51.360,-58.685,363.668,14
0.171,0.064,1.023,-25.239,6.162,168.549,14
0.107,-0.524,1.269,-18.151,27.130,175.388,14
0.086,-0.822,0.851,-18.500,21.232,182.055,14
0.063,-0.467,0.582,-16.579,9.795,207.303,14
0.061,0.834,0.681,-17.103,-51.384,206.820,14
0.068,-0.114,1.153,-41.128,-127.489,165.751,14
0.121,-0.071,1.079,-46.087,-93.321,143.887,14
0.117,-0.319,0.889,-46.646,-68.180,149.828,14
0.109,0.183,0.917,-7.186,-58.362,166.201,14
0.106,0.701,1.143,44.601,-58.937,112.698,14
0.090,-0.220,1.480,46.871,-54.549,75.532,14
0.132,-0.026,1.149,15.163,28.605,81.093,14
0.219,-0.246,0.880,11.462,46.157,78.779,14
0.200,-0.217,0.781,11.392,49.645,77.536,14
0.175,-0.427,0.994,8.703,-5.060,80.022,14
0.153,0.013,1.067,14.639,-18.547,71.456,14
0.058,-0.067,1.162,11.392,-1.283,64.825,14
0.003,-0.207,0.527,3.570,-3.621,52.010,14
0.091,-0.240,0.515,-3.589,-26.459,58.297,14
0.036,-0.323,0.796,-25.239,-72.388,106.169,14
-0.034,-0.096,0.928,13.522,-65.699,99.192,14
0.085,0.466,1.699,45.684,-63.936,64.894,14
-0.062,-0.347,1.634,30.493,-19.230,42.201,14
-0.184,-0.514,1.142,4.024,42.704,64.894,14
-0.023,-0.425,0.811,-6.278,-1.067,98.122,14
0.252,0.285,1.231,25.150,-39.659,107.586,14
0.150,-0.095,1.624,19.843,-9.124,59.644,14
0.153,-0.179,1.018,-39.906,45.401,50.698,14
0.130,-0.397,0.784,-82.404,48.171,53.046,14
0.164,-0.018,0.464,-49.753,41.841,67.657,14
0.196,0.274,0.321,-23.109,4.004,69.695,14
0.251,0.766,0.615,-26.916,-5.635,36.018,14
0.174,0.315,0.661,-37.706,-8.332,-17.934,14
0.141,0.004,0.799,-23.249,-43.867,-17.416,14
0.105,-0.184,0.991,39.677,-54.801,-5.741,14
0.119,-0.049,1.249,26.023,-29.984,0.096,14
0.137,0.102,1.127,-24.751,-0.240,-0.698,14
0.136,0.118,1.168,-45.109,26.303,-33.304,14
0.025,-0.209,0.845,6.887,-5.275,-30.576,14
-0.110,-0.661,1.013,61.258,-48.795,2.099,14
0.063,-0.274,1.165,29.166,-26.567,29.801,14
0.340,0.660,1.294,-13.157,15.190,-0.111,14
0.295,0.341,1.318,-36.623,50.185,-51.162,14
0.174,-0.392,0.954,-13.855,27.346,-33.961,14
0.182,-0.305,1.266,0.532,19.002,3.205,14
0.166,-0.172,0.860,-38.335,48.494,10.596,14
0.191,0.495,0.789,-62.255,70.254,-8.988,14
-0.020,0.036,0.605,-53.804,61.586,-53.649,14
-0.142,-0.572,0.380,18.062,-8.404,-31.750,14
-0.055,-0.527,1.004,23.823,-35.919,13.463,14
0.103,-0.101,1.056,-9.665,-21.029,41.683,14
0.262,0.379,1.361,-35.366,-12.037,10.804,14
0.230,0.121,1.247,-36.379,27.022,-20.973,14
0.161,-0.210,0.987,-0.167,5.694,-8.159,14
0.201,-0.257,1.176,14.465,-30.811,32.633,14
0.233,0.164,1.128,11.532,-21.136,32.840,14
0.266,0.418,1.180,15.827,-4.268,8.593,14
0.201,0.113,0.865,33.461,14.218,-19.730,14
0.170,-0.065,0.730,59.023,4.004,-16.898,14
0.142,-0.219,0.743,47.604,-15.742,-4.049,14
0.122,-0.122,0.984,28.817,-30.883,-0.595,14
0.063,-0.236,0.918,18.131,-21.100,-1.907,14
0.048,-0.295,0.889,9.471,-31.531,16.848,14
0.053,-0.053,1.047,15.408,-44.802,26.036,14
0.095,0.288,1.392,8.144,-30.164,24.033,14
0.024,-0.293,1.206,-20.700,8.104,-5.430,14
0.037,-0.271,1.324,-36.973,16.125,-1.285,14
0.056,-0.274,0.965,-12.109,16.484,20.302,14
0.084,-0.232,0.956,11.462,-12.001,29.041,14
0.104,-0.129,1.014,13.138,-14.986,32.046,14
0.144,0.008,1.145,-8.338,-5.887,21.580,14
0.114,-0.155,0.984,-20.351,22.347,13.912,14
0.124,-0.169,0.816,-18.779,24.936,28.247,14
0.162,0.002,0.673,-2.821,11.809,39.818,14
0.180,0.197,0.618,7.970,-9.160,17.332,14
0.135,0.104,0.786,-0.446,-11.282,-0.215,14
0.102,-0.122,0.919,-14.240,-12.972,4.241,14
0.164,0.132,0.871,-18.919,-16.713,15.225,14
0.126,0.173,1.198,25.255,-39.192,5.484,14
0.004,0.134,1.500,54.693,-30.308,1.616,14
-0.108,-0.170,1.456,47.604,-10.347,-5.776,14
-0.000,-0.276,1.337,17.293,3.536,11.045,14
0.160,-0.288,1.127,-13.157,16.376,24.620,14
0.212,-0.094,1.030,-3.135,19.685,13.498,14
0.065,-0.237,0.795,10.344,26.771,4.206,14
0.034,-0.334,0.749,3.814,7.529,18.368,14
0.058,-0.232,0.599,-3.833,2.134,28.626,14
0.081,-0.080,0.505,-21.992,-25.740,27.936,14
0.080,0.045,0.849,-31.420,-34.696,28.247,14
0.102,0.182,0.874,-11.167,-40.846,19.266,14
0.182,0.057,1.097,7.062,-38.688,7.902,14
0.128,0.124,0.680,13.732,-8.296,-9.022,14
0.098,0.103,0.940,-12.633,-25.237,-0.111,14
0.048,0.141,1.199,-40.744,-18.295,11.011,14
0.109,0.216,1.278,-19.687,-8.944,-7.675,14
0.057,-0.107,1.341,24.382,-2.758,-24.566,14
-0.050,-0.488,1.236,29.481,-2.686,-2.045,14
-0.022,-0.232,1.106,17.922,10.874,12.289,14
0.052,-0.037,0.865,-28.766,23.965,16.848,14
0.092,0.083,0.978,-45.633,22.670,7.211,14
0.085,0.013,0.969,-19.617,12.456,2.721,14
0.081,-0.075,0.970,25.220,-2.362,4.759,14
0.047,-0.275,0.994,16.036,-8.261,16.952,14
0.076,-0.144,0.967,-16.474,8.068,28.903,14
0.076,0.014,0.781,-35.611,6.306,32.219,14
0.042,0.186,0.894,-9.909,-11.462,29.663,14
0.006,-0.031,0.982,23.474,-22.179,13.498,14
-0.018,-0.133,0.976,8.459,-21.460,12.151,14
-0.019,-0.218,1.013,-21.887,-9.843,24.102,14
0.078,0.144,0.871,-32.084,-0.816,28.868,14
0.142,0.288,0.961,-7.500,-11.821,18.057,14
0.146,0.154,0.997,21.449,-21.460,2.134,14
0.108,-0.066,1.103,12.649,-15.670,4.310,14
0.114,0.055,1.063,-9.665,12.456,20.233,14
0.110,0.039,0.908,-20.106,23.534,10.838,14
0.108,0.201,0.944,-1.284,8.284,6.106,14
0.056,0.043,1.048,10.274,6.917,-19.350,14
-0.070,-0.304,0.733,-13.681,6.342,-11.129,14
-0.034,-0.257,1.149,-46.331,-5.707,25.552,14
-0.001,-0.065,1.072,-50.417,9.579,24.309,14
0.048,0.261,1.024,-19.128,8.212,15.156,14
0.028,0.051,0.994,-5.684,5.155,-3.220,14
0.014,0.004,1.028,-7.675,8.176,-13.133,14
0.034,-0.202,1.218,-15.916,15.046,13.567,14
0.055,-0.166,1.051,-25.519,35.546,37.572,14
0.083,0.079,0.786,-9.525,31.986,42.650,14
0.119,0.183,0.949,-0.167,3.644,29.697,14
0.133,0.164,1.050,0.986,13.751,12.393,14
0.086,-0.020,0.765,14.639,26.843,4.206,14
0.052,-0.087,1.112,25.046,-21.100,20.820,14
0.078,0.149,1.131,46.172,-14.267,10.424,14
0.075,-0.020,1.070,29.935,5.443,12.047,14
0.102,0.103,1.188,25.395,7.385,-0.698,14
0.085,-0.015,1.056,30.703,1.918,-0.491,14
0.085,0.057,1.118,34.649,7.313,6.141,14
0.071,0.109,1.108,26.303,15.945,1.789,14
0.033,-0.026,0.996,1.929,10.406,4.137,14
0.061,-0.039,0.846,-15.951,33.748,6.037,14
0.109,0.065,0.868,-15.287,21.951,5.968,14
0.140,-0.036,0.896,-2.681,9.795,-1.562,14
0.135,-0.182,0.811,-3.554,6.054,0.234,14
0.140,-0.122,0.869,-6.697,-12.828,16.503,14
0.080,-0.181,1.010,-4.357,29.972,23.825,14
0.150,-0.042,1.049,5.525,16.952,27.936,14
0.107,-0.101,0.812,13.033,-9.699,23.825,14
0.105,-0.092,1.167,15.862,0.335,30.561,14
0.056,-0.224,1.116,19.319,-1.103,45.448,14
0.056,-0.072,0.998,21.309,-0.816,59.264,14
0.196,0.689,0.997,21.833,-0.816,36.536,14
0.144,0.314,0.769,0.113,-13.476,2.756,14
0.078,0.157,0.854,-20.595,-23.330,-11.648,14
0.051,-0.028,0.872,-39.452,-57.714,3.136,14
0.077,0.049,1.107,-35.401,-36.962,0.234,14
0.092,-0.089,1.210,-7.640,12.780,11.115,14
0.119,0.123,1.106,23.579,22.922,10.700,14
0.092,0.026,0.687,16.874,22.922,-2.356,14
0.134,0.054,0.932,-6.278,-8.800,-0.077,14
0.127,-0.180,1.146,-5.684,-0.420,-4.118,14
0.106,-0.226,1.183,14.884,39.898,9.249,14
0.144,-0.094,0.866,35.312,34.539,21.926,14
0.134,-0.088,0.605,25.919,11.557,12.013,14
0.118,-0.133,0.713,-1.983,1.954,9.318,14
0.137,0.009,0.834,-18.290,-24.086,20.199,14
0.118,-0.020,0.988,-7.640,-40.918,16.883,14
0.100,-0.110,1.011,9.192,-4.556,9.249,14
0.136,0.112,1.020,15.268,-0.708,5.726,14
0.060,-0.270,0.929,-21.049,-12.433,8.455,14
0.001,0.303,1.396,-29.325,-67.389,71.767,15
-0.034,0.103,1.035,-39.766,-32.142,65.895,15
-0.130,-0.033,0.712,-72.102,-32.286,57.399,15
-0.070,0.293,0.801,-81.810,-48.795,59.436,15
