ACC-X,ACC-Y,ACC-Z,GYRO-X,GYRO-Y,GYRO-Z,TEST
-0.102,-0.622,2.646,8.738,71.657,17.781,1
-0.217,-0.470,4.025,-30.198,337.412,59.678,1
-0.723,-0.328,4.603,-106.289,718.691,63.201,1
-1.534,-0.009,2.878,-138.381,1084.108,76.188,1
-1.616,0.222,0.710,-71.893,1173.592,110.142,1
-0.906,0.284,-1.435,58.395,862.592,38.781,1
-0.697,-0.651,-2.308,-85.826,661.972,53.634,1
-0.713,0.860,-3.614,97.540,110.932,98.294,1
0.375,0.770,-0.094,-17.697,56.011,-6.639,1
0.918,0.419,-0.842,-62.255,61.766,-65.081,1
0.932,0.243,0.404,-70.880,-120.332,-87.118,1
1.081,-0.218,0.403,-74.686,15.945,-43.252,1
1.123,0.501,-0.185,-34.598,-8.009,-11.855,1
0.871,-0.248,0.301,-34.598,-26.567,-77.032,1
0.887,-0.626,0.021,-28.941,22.527,-10.404,1
1.004,-0.144,-0.173,-59.322,-0.923,53.046,1
1.009,0.406,0.358,-8.792,-31.495,47.762,1
1.141,0.693,0.242,-5.405,19.218,-5.016,1
0.955,0.231,-0.037,-26.636,14.470,-57.344,1
0.955,-0.014,-0.028,-5.614,-10.958,-43.010,1
0.940,-0.302,0.160,14.989,-25.021,-16.241,1
0.954,-0.068,0.103,0.182,-4.160,44.239,1
1.027,0.248,0.071,-3.310,1.271,37.572,1
1.059,0.374,-0.097,20.471,-4.160,23.860,1
1.050,0.458,0.014,8.074,-44.011,-27.778,1
0.990,-0.260,0.363,-9.630,-31.099,-46.568,1
0.975,-0.116,0.158,-0.132,14.470,23.480,1
1.003,0.216,-0.042,6.678,3.680,24.378,1
0.996,0.219,-0.010,11.147,-14.195,4.068,1
0.973,0.043,0.117,-0.202,-14.123,-8.435,1
0.914,-0.240,0.147,-12.843,1.990,-0.111,1
0.936,-0.090,0.038,-0.237,7.421,39.714,1
1.048,0.302,0.085,6.468,-3.909,35.465,1
1.082,0.431,0.111,0.776,-6.498,-10.128,1
1.037,0.175,0.109,1.021,-8.368,-40.869,1
0.938,-0.166,0.148,-2.960,3.393,-25.187,1
0.902,-0.137,-0.006,-1.459,7.960,19.473,1
0.931,0.099,-0.020,-0.306,-5.671,31.562,1
1.013,0.176,0.128,-0.062,-9.735,25.552,1
1.088,0.370,0.111,10.170,-8.548,10.182,1
1.026,0.280,0.150,-1.110,-9.591,-32.095,1
0.971,-0.070,0.117,-5.056,2.637,-28.331,1
0.957,0.027,0.087,10.135,5.515,4.068,1
0.972,0.160,0.024,6.084,2.853,1.616,1
1.014,0.090,0.157,-5.684,-10.454,-4.152,1
0.960,0.062,0.176,-1.983,2.457,-7.330,1
0.969,-0.051,0.015,-7.151,10.010,3.516,1
0.990,0.180,0.026,-12.389,-6.139,12.047,1
0.993,0.181,0.111,-26.706,-5.095,-9.437,1
0.975,-0.001,0.129,-7.221,-3.189,-15.585,1
0.940,-0.075,0.084,9.297,2.673,1.823,1
0.970,0.071,0.030,14.151,-5.491,15.847,1
1.020,0.186,0.130,6.433,-10.347,10.907,1
1.012,0.236,0.104,-0.551,-4.988,-5.430,1
0.989,0.002,0.153,-18.465,-7.865,-19.972,1
0.923,-0.126,0.119,-3.310,3.249,8.731,1
0.941,0.102,-0.011,-1.249,2.493,27.383,1
1.024,0.259,0.095,1.195,-14.447,14.258,1
1.060,0.226,0.216,-2.192,-11.965,-6.052,1
1.023,0.108,0.208,1.370,1.738,-13.616,1
0.978,-0.008,0.137,9.506,6.630,-10.231,1
0.943,-0.056,0.060,-2.017,5.694,3.032,1
0.965,0.043,0.083,-3.484,-2.038,13.187,1
0.985,0.166,0.078,2.697,-0.024,10.458,1
0.989,0.205,0.077,-6.383,-8.368,-6.846,1
0.991,-0.006,0.235,-12.424,-7.182,-13.444,1
0.985,0.089,0.123,2.033,14.003,9.077,1
0.979,0.154,0.018,-5.125,6.737,4.034,1
0.990,0.123,0.062,-2.052,-4.196,2.307,1
0.992,0.165,0.102,-1.983,-6.282,-4.152,1
0.974,0.011,0.148,-1.598,-3.297,-10.024,1
0.986,0.092,0.095,10.868,0.407,7.177,1
0.982,0.195,0.069,14.465,-4.376,0.372,1
0.973,-0.010,0.132,-4.113,-8.296,-8.504,1
0.990,0.029,0.184,-5.510,-0.995,12.323,1
0.989,0.186,0.122,1.370,4.651,4.068,1
0.980,0.166,0.026,4.338,-2.758,-11.578,1
0.961,0.025,0.114,11.252,-13.620,-15.412,1
0.964,-0.027,0.150,-8.163,-4.376,-0.007,1
1.002,0.075,0.132,-11.341,-0.492,13.740,1
1.025,0.148,0.186,-11.551,-2.002,8.593,1
1.006,0.119,0.166,-13.716,4.328,-2.805,1
0.975,0.030,0.100,-9.386,6.989,-1.389,1
0.978,0.109,0.093,6.468,1.594,7.902,1
0.975,0.147,0.101,2.068,1.199,1.443,1
0.978,-0.067,0.169,-12.109,-2.290,1.167,1
1.021,0.035,0.271,-13.262,7.816,24.758,1
1.015,0.286,0.118,-10.817,30.871,16.883,1
0.973,0.226,-0.054,-18.884,16.592,-15.723,1
0.930,0.025,-0.014,-4.252,-2.578,-12.546,1
0.938,0.094,0.065,21.030,-6.174,5.070,1
0.976,0.100,0.125,-3.798,-8.872,4.897,1
0.999,0.076,0.144,2.836,-5.203,4.310,1
1.017,0.149,0.157,13.976,-1.643,9.249,1
0.991,0.123,0.115,-11.621,2.421,-1.424,1
0.957,-0.006,0.125,-35.087,-0.528,-0.249,1
0.980,0.102,0.118,20.716,7.133,18.057,1
0.941,0.030,0.073,-15.706,12.168,0.649,1
0.949,-0.094,0.061,-24.122,6.558,13.325,1
0.989,0.148,0.059,-0.970,0.443,38.401,1
0.996,0.329,0.011,2.138,-5.527,20.509,1
0.992,0.249,0.026,4.408,-20.561,-0.042,1
0.963,0.190,0.088,23.858,-30.955,-7.399,1
0.932,0.031,0.111,25.430,-31.495,-8.504,1
0.899,0.037,0.009,26.477,-23.978,15.812,1
0.907,0.203,-0.086,8.878,-43.184,27.072,1
0.973,0.409,-0.064,12.405,-79.762,25.242,1
0.920,0.496,0.106,12.474,-107.168,-9.022,1
0.900,0.196,0.336,9.436,-96.630,-46.361,1
1.010,-0.001,0.319,15.443,-60.699,-35.273,1
0.900,0.194,-0.017,38.315,-56.779,-9.195,1
0.857,0.261,-0.027,38.630,-115.296,-38.796,1
0.831,0.063,0.231,-4.252,-155.579,-56.895,1
0.831,-0.021,0.409,-17.313,-153.061,-40.558,1
0.798,-0.103,0.408,-44.585,-133.387,-24.635,1
0.821,-0.253,0.496,-65.188,-121.770,-8.470,1
0.841,-0.050,0.503,-33.725,-106.628,43.997,1
0.800,0.317,0.479,-0.027,-114.001,17.954,1
0.829,0.113,0.677,-11.097,-117.310,-7.917,1
0.790,0.125,0.503,9.541,-118.749,2.065,1
0.745,0.002,0.788,29.306,-142.487,-18.590,1
0.780,-0.317,0.868,-15.147,-99.147,7.557,1
0.744,0.044,0.772,-7.046,-65.986,51.768,1
0.730,0.221,0.696,11.182,-65.483,35.224,1
0.675,0.184,0.626,29.062,-76.525,25.000,1
0.659,0.272,0.597,57.033,-80.409,17.781,1
0.720,0.080,0.609,16.106,-95.695,-6.605,1
0.701,-0.187,0.859,-10.678,-107.384,2.272,1
0.645,0.144,0.964,8.144,-75.086,43.099,1
0.657,0.385,0.780,-0.795,-42.141,24.413,1
0.541,0.299,0.562,21.693,-52.103,-13.547,1
0.534,0.249,0.594,72.363,-95.623,-26.742,1
0.572,0.109,0.684,75.261,-118.102,-40.005,1
0.506,-0.038,0.957,50.957,-121.195,-32.648,1
0.524,-0.012,0.993,45.893,-73.863,-12.027,1
0.479,0.034,0.844,24.941,-56.132,-11.233,1
0.442,-0.051,0.711,15.897,-65.375,-15.171,1
0.482,-0.144,0.809,9.506,-92.170,-2.149,1
0.379,-0.111,0.948,32.204,-85.660,0.269,1
0.439,-0.017,0.894,34.509,-78.107,4.552,1
0.442,0.146,1.003,83.048,-91.594,0.476,1
0.383,0.079,1.042,82.210,-70.015,-35.031,1
0.477,0.184,1.485,-217.091,-39.911,-42.285,1
0.508,0.027,0.483,125.546,-88.933,50.007,1
0.323,0.236,0.889,42.261,-155.938,-8.297,1
0.659,-0.302,1.013,-15.462,-140.221,-42.112,1
0.122,-0.602,1.096,-95.045,-172.734,31.873,1
0.101,0.155,1.354,-46.715,-194.530,59.816,1
0.115,0.294,1.385,-48.322,-64.116,10.769,1
0.093,-0.046,0.826,-42.246,-9.411,-27.191,1
0.088,-0.117,1.047,-11.970,-58.793,-2.494,1
0.108,0.023,1.278,-11.621,-17.540,11.045,1
0.097,0.154,1.054,-8.268,20.584,9.318,1
0.118,0.197,0.887,1.789,15.477,-3.012,1
0.129,0.145,0.915,11.113,-0.780,-14.756,1
0.125,0.092,1.054,18.620,-7.218,-16.103,1
0.118,0.051,1.032,24.452,0.335,-19.523,1
0.124,-0.045,1.047,20.960,9.327,-17.899,1
0.136,-0.040,0.936,13.522,12.996,-7.226,1
0.162,-0.025,0.942,3.814,3.824,-5.534,1
0.160,-0.085,0.991,-5.789,2.098,-5.638,1
0.140,-0.072,0.994,-13.192,6.378,5.554,1
0.137,-0.012,0.987,-11.271,3.141,12.047,1
0.130,0.105,1.007,4.024,2.026,12.496,1
0.143,0.113,0.994,6.433,7.025,-2.425,1
0.148,0.001,0.920,-2.716,8.032,-5.638,1
0.145,0.005,0.970,-4.602,-0.096,3.930,1
0.137,0.048,1.007,-4.846,3.069,3.654,1
0.133,-0.007,0.972,-5.475,3.429,-2.460,1
0.143,-0.016,1.035,-4.183,1.450,4.621,1
0.146,0.064,1.000,-5.475,10.550,7.557,1
0.141,0.116,0.921,2.487,3.464,1.927,1
0.162,0.059,0.984,6.189,-1.607,-8.470,1
0.144,-0.021,0.968,5.211,2.170,-6.674,1
0.146,0.014,0.972,7.795,-0.564,1.098,1
0.145,-0.050,1.012,-1.913,-1.031,-2.425,1
0.132,-0.019,1.005,-3.065,2.421,6.141,1
0.149,0.023,1.001,-4.776,3.213,4.310,1
0.152,0.045,0.960,-4.078,7.457,3.032,1
0.162,0.059,0.938,-2.192,1.019,1.512,1
0.157,0.058,0.974,-1.040,-0.312,-0.284,1
0.149,0.031,0.982,-0.481,-0.851,-1.527,1
0.140,-0.006,0.968,-1.110,-2.866,1.547,1
0.140,0.048,1.023,2.487,-4.304,7.902,1
0.151,0.098,1.012,3.814,0.803,-0.077,1
0.156,0.003,0.993,1.579,0.839,-8.021,1
0.152,-0.027,0.973,-2.192,3.788,-1.285,1
0.145,-0.007,0.956,-1.703,1.235,2.721,1
0.133,0.029,0.960,-0.306,-0.204,5.001,1
0.140,0.050,0.967,3.046,-3.549,3.585,1
0.151,0.083,1.002,7.900,-2.182,1.340,1
0.154,0.055,0.971,5.525,-0.096,-6.259,1
0.156,0.016,0.970,1.894,-1.535,-3.220,1
0.153,0.044,0.992,-0.097,-2.074,1.478,1
0.144,0.059,1.011,-0.795,0.228,-0.940,1
0.131,0.004,1.009,-1.144,0.803,-4.809,1
0.116,-0.038,1.039,2.836,3.177,-1.078,1
0.139,0.011,1.056,11.601,4.975,3.757,1
0.149,0.092,1.038,18.585,12.600,0.752,1
0.157,0.079,0.914,12.265,13.643,-7.157,1
0.178,0.189,1.241,56.229,-11.318,-18.279,2
0.261,-0.031,1.573,20.192,-32.142,-66.912,2
0.367,-0.748,2.435,-69.239,1.702,-46.188,2
0.091,-0.168,3.497,-69.553,102.732,114.183,2
-0.171,0.999,3.857,-69.239,329.319,87.380,2
-0.464,0.562,3.054,-98.362,580.364,-113.783,2
-0.900,-0.612,2.354,-143.933,761.922,-202.206,2
-1.246,-0.681,1.631,45.299,1046.056,-95.477,2
-1.329,-0.394,-1.116,269.243,1130.109,102.957,2
-0.747,1.001,-2.310,651.899,553.030,235.592,2
-0.176,1.641,-0.591,341.598,267.062,53.737,2
-0.409,0.341,-1.053,-26.427,393.915,-153.712,2
-0.435,-1.079,-2.313,-143.235,190.166,-70.021,2
0.362,-0.624,-0.483,-31.176,-29.481,177.841,2
0.681,0.563,0.013,78.648,-60.807,200.706,2
0.998,1.409,0.203,125.302,-38.688,81.093,2
0.762,0.315,-0.031,30.982,9.507,-69.744,2
0.747,-0.626,-0.442,30.423,-15.202,-20.939,2
0.924,-0.375,-0.202,-14.589,-91.307,100.885,2
1.122,0.555,0.342,-51.814,-109.686,130.866,2
1.110,0.922,0.277,-112.086,-53.650,97.914,2
0.981,1.128,0.024,10.763,-18.007,12.911,2
0.933,0.490,0.054,75.121,8.464,-84.182,2
0.918,-0.130,-0.033,94.083,34.360,-93.923,2
0.964,-0.217,-0.186,79.416,27.886,-37.415,2
1.037,0.040,-0.070,37.861,-11.426,11.702,2
1.009,0.278,0.023,18.341,-20.057,8.006,2
0.974,0.204,0.001,22.182,-3.657,-9.575,2
0.975,0.080,-0.159,20.681,-3.621,-9.195,2
1.009,0.148,-0.070,7.481,-19.050,12.911,2
1.051,0.377,0.055,0.462,-15.670,6.728,2
1.053,0.314,0.046,-12.843,-1.787,-17.001,2
1.019,0.083,0.006,-16.125,9.075,-17.934,2
1.009,0.017,-0.043,1.859,13.175,-1.873,2
1.005,0.136,-0.146,13.208,-2.794,10.769,2
0.997,0.278,0.014,8.668,-14.375,6.728,2
0.976,0.306,0.000,5.176,0.192,-2.425,2
0.948,0.284,-0.120,-7.884,-6.678,-12.546,2
0.953,0.168,0.056,-19.547,-16.641,-12.235,2
0.952,0.068,0.066,-0.760,12.096,-7.779,2
0.943,0.072,-0.143,4.163,6.450,2.376,2
0.989,0.210,-0.041,7.411,-13.835,8.800,2
1.007,0.311,0.028,8.913,-10.311,-5.845,2
0.996,0.217,-0.023,3.186,-12.397,-19.385,2
1.000,0.020,0.089,-7.570,-4.700,-13.927,2
0.991,-0.103,0.067,-9.875,10.298,10.493,2
0.969,0.091,-0.038,45.509,8.284,44.757,2
0.978,-0.043,-0.363,221.088,-2.110,46.380,2
0.957,0.368,-0.033,96.213,-28.546,75.325,2
0.971,0.642,0.101,38.036,-16.317,35.293,2
0.952,0.425,0.062,0.636,-3.441,-26.051,2
0.931,0.018,-0.180,2.068,-18.367,-36.240,2
0.985,0.179,-0.078,38.315,-101.341,-12.166,2
1.009,0.240,0.468,33.601,-62.965,-28.987,2
0.978,0.115,0.054,6.189,9.363,-23.840,2
0.949,0.138,-0.117,-5.300,-22.683,0.511,2
0.986,0.291,0.240,-24.646,-41.781,9.733,2
0.994,0.304,0.380,-32.712,1.235,1.305,2
0.968,0.308,0.121,-14.659,29.432,-17.485,2
0.948,0.134,-0.045,-12.878,11.377,-32.372,2
0.978,0.102,0.045,-12.668,-15.130,-17.174,2
0.943,0.220,0.040,-11.097,-21.460,-10.508,2
0.973,0.189,0.101,-9.211,-27.898,-22.839,2
0.976,0.078,0.113,-7.081,-20.057,-20.248,2
0.977,0.125,0.047,0.148,-21.640,-15.274,2
0.972,0.136,0.115,-1.040,-34.336,-21.077,2
0.962,0.183,0.176,1.405,-26.711,-14.376,2
0.942,0.275,0.081,1.754,-18.475,-19.523,2
0.921,0.209,0.010,-5.963,-27.395,-34.651,2
0.944,0.064,0.092,-14.659,-50.449,-40.351,2
0.959,0.081,0.213,-17.592,-52.103,-23.357,2
0.955,0.203,0.240,-9.560,-53.758,-21.699,2
0.949,0.251,0.286,-18.220,-46.780,-26.776,2
0.938,0.257,0.228,-9.281,-36.674,-49.124,2
0.904,0.019,0.172,-8.722,-29.625,-66.739,2
0.912,-0.237,0.075,-26.252,-38.796,-54.339,2
0.906,-0.156,0.148,-18.220,-62.282,-10.819,2
0.985,0.149,0.226,-26.706,-74.403,8.386,2
0.988,0.305,0.330,-24.785,-81.812,-4.290,2
1.004,0.221,0.468,-13.367,-68.540,-37.173,2
0.965,-0.034,0.414,5.560,-45.701,-49.227,2
1.014,-0.006,0.594,26.512,-31.890,-20.075,2
0.955,0.664,0.186,-67.982,-11.713,2.928,2
0.839,0.455,0.370,-42.001,-66.022,-87.498,2
0.830,-0.406,0.371,-50.696,-45.378,-95.926,2
0.797,-0.722,0.257,-20.420,-48.687,-27.432,2
0.788,-0.132,0.009,-26.078,-75.661,29.145,2
0.791,0.331,0.099,-11.062,-139.250,-12.304,2
0.868,-0.103,0.432,-2.925,-141.947,-60.867,2
0.887,-0.443,0.604,-7.221,-123.137,-38.831,2
0.823,-0.283,0.398,-30.024,-98.896,-3.634,2
0.805,-0.131,0.499,-28.627,-132.920,17.297,2
0.799,0.069,0.590,-4.357,-133.423,21.408,2
0.819,-0.064,0.809,-10.189,-130.042,2.652,2
0.755,-0.012,0.872,-9.805,-94.148,14.258,2
0.670,0.132,0.497,-28.976,-77.172,-1.216,2
0.612,-0.061,0.797,-11.027,-96.234,-10.819,2
0.655,0.044,0.521,-5.160,-86.271,7.695,2
0.590,0.201,0.765,1.300,-122.597,-6.674,2
0.602,-0.155,0.980,-27.928,-93.141,-29.919,2
0.708,-0.084,0.687,-58.204,-74.115,1.892,2
0.673,0.370,0.899,-31.316,-73.252,-3.185,2
0.502,0.152,0.761,-26.531,-37.609,-40.592,2
0.504,-0.055,0.547,-17.592,-74.367,-47.466,2
0.539,-0.342,1.078,-31.944,-76.992,-22.666,2
0.559,-0.106,0.853,-38.020,-36.314,16.676,2
0.554,0.341,0.955,-10.748,-49.370,12.013,2
0.497,0.154,0.652,11.811,-31.027,-23.702,2
0.504,0.047,0.060,29.446,-75.410,-20.628,2
0.567,-0.003,1.152,42.506,-167.016,-28.261,2
0.509,-0.491,1.440,3.814,-60.663,-6.674,2
0.455,0.253,0.688,6.713,-50.557,35.396,2
0.445,0.105,1.027,23.614,-75.841,-8.539,2
0.405,-0.053,0.779,13.243,-68.108,-1.631,2
0.384,0.118,0.949,2.627,-85.480,2.410,2
0.354,0.016,1.064,-1.564,-71.345,-8.677,2
0.368,-0.174,1.104,-18.046,-54.945,-3.427,2
0.327,0.039,0.972,-30.477,-42.968,13.912,2
0.323,0.142,1.032,-27.404,-49.298,4.034,2
0.324,0.033,1.007,-27.055,-47.823,-4.670,2
0.283,0.047,0.894,-25.449,-38.364,-5.189,2
0.290,0.042,0.969,-21.468,-57.031,-2.736,2
0.256,0.108,0.853,-36.728,-49.658,-6.328,2
0.243,0.040,0.993,-34.528,-55.125,-6.985,2
0.248,0.047,0.946,-16.230,-47.716,-7.572,2
0.222,0.082,1.017,-1.598,-46.529,-4.739,2
0.197,0.103,0.834,-1.494,-43.004,-10.473,2
0.203,0.068,0.996,-7.151,-70.159,-6.916,2
0.192,0.162,0.919,-10.328,-52.319,-11.889,2
0.214,0.094,1.041,3.290,-54.549,-22.182,2
0.197,-0.037,1.175,2.382,-37.501,-19.730,2
0.165,0.031,1.088,11.532,-25.129,-6.639,2
0.135,0.066,1.049,21.030,-24.949,-6.225,2
0.129,-0.013,0.997,16.665,-19.878,-5.292,2
0.116,0.132,0.960,4.792,-20.561,-6.501,2
0.114,0.030,1.019,7.795,-23.079,-12.580,2
0.123,0.008,1.083,3.709,-19.482,-10.266,2
0.102,0.032,1.049,-3.554,-4.700,-1.665,2
0.085,0.075,0.944,9.087,-7.829,-10.059,2
0.089,-0.047,0.992,9.995,-12.325,-7.468,2
0.152,0.019,0.910,16.071,-9.375,-6.397,2
0.110,-0.002,0.865,1.754,-24.553,2.618,2
0.136,0.172,1.063,7.760,-28.438,-4.498,2
0.113,0.019,1.009,10.833,-7.469,-6.777,2
0.107,0.199,0.957,26.827,-6.966,-5.741,2
0.065,-0.188,0.902,22.497,-10.203,-20.835,2
0.062,-0.019,0.812,5.944,-22.719,6.659,2
0.051,-0.057,0.991,8.947,-35.847,-1.769,2
0.108,-0.125,1.192,0.427,-35.739,3.792,2
0.093,0.040,1.112,-0.551,-10.167,17.228,2
0.046,0.103,1.094,10.554,-13.116,9.353,2
0.032,0.000,0.902,12.544,-8.656,13.014,2
0.051,0.018,1.069,15.932,-27.934,12.565,2
0.034,-0.046,0.988,6.014,-5.024,8.800,2
0.031,-0.028,0.970,-0.411,-11.066,10.009,2
0.042,0.013,0.939,-4.148,-11.282,7.177,2
0.017,0.034,0.996,0.217,-9.555,2.618,2
-0.009,0.009,1.118,1.963,-8.296,2.652,2
0.005,0.042,1.061,-7.744,-5.024,6.313,2
-0.017,0.026,1.036,-11.411,-4.124,8.144,2
0.010,0.036,1.045,-7.221,-12.217,6.417,2
0.026,0.011,0.959,-1.773,-2.578,2.514,2
0.009,-0.002,0.878,5.770,-5.060,-1.182,2
0.019,0.076,0.940,6.573,-10.670,-2.805,2
0.020,0.008,1.081,3.814,-5.491,-4.118,2
0.015,0.022,1.097,-2.506,8.859,-1.424,2
0.008,0.026,1.095,-4.951,21.124,-2.529,2
0.014,-0.049,0.977,1.370,26.195,-7.123,2
0.039,-0.086,1.005,9.646,5.299,-0.284,2
0.071,-0.036,1.008,-5.370,15.477,3.308,2
0.059,-0.059,0.994,-13.751,18.894,1.581,2
0.038,-0.021,0.982,-14.205,24.505,6.590,2
0.024,0.069,0.950,-11.655,25.872,4.241,2
0.013,0.025,0.963,-13.855,22.778,-1.838,2
0.035,0.036,0.996,-16.370,12.132,3.067,2
0.064,0.048,1.002,-11.306,3.860,-0.733,2
0.065,0.018,1.027,-8.268,5.371,3.032,2
0.044,-0.003,0.967,-5.859,-4.844,4.517,2
0.041,0.082,0.989,-0.341,-5.491,8.904,2
0.069,0.075,1.049,2.487,-1.211,2.790,2
0.047,0.044,1.047,-0.691,6.486,1.132,2
0.033,0.057,0.971,-8.303,9.039,-1.216,2
0.062,0.070,1.018,-10.084,1.774,0.338,2
0.067,0.061,0.986,-8.513,2.386,-0.387,2
0.067,0.026,0.983,-4.741,2.170,0.476,2
0.049,0.027,0.975,0.217,4.004,2.099,2
0.047,0.051,0.983,1.998,1.990,2.099,2
0.079,0.023,0.987,-7.046,0.263,0.752,2
0.095,0.047,0.987,-17.313,1.127,4.932,2
0.076,0.076,1.010,-16.370,4.651,3.343,2
0.064,0.076,0.989,-9.106,8.752,-0.387,2
0.055,0.057,0.996,-6.138,5.047,-0.491,2
0.057,0.088,0.998,-4.776,4.256,0.649,2
0.058,0.069,0.996,0.567,1.666,-1.389,2
0.066,0.070,0.991,4.513,1.091,-1.631,2
0.073,0.052,0.989,7.725,4.040,-2.218,2
0.086,0.038,0.985,4.373,2.853,-2.736,2
0.080,0.060,0.982,-4.462,3.968,0.580,2
0.064,0.067,0.942,-2.716,1.666,0.200,2
0.060,0.079,1.026,1.230,-1.175,3.067,2
0.107,-0.012,1.525,4.617,51.983,-4.394,3
0.114,0.118,1.796,-8.687,105.249,-10.266,3
0.153,0.028,1.938,-3.414,150.926,-20.593,3
0.231,-0.055,2.307,7.621,211.889,-17.105,3
0.096,-0.059,2.473,13.243,330.362,-4.187,3
-0.014,0.112,2.504,11.113,436.679,27.659,3
-0.248,0.269,2.370,37.792,547.779,5.415,3
-0.417,-0.002,1.426,60.839,637.479,17.194,3
-0.386,0.324,0.219,58.709,629.386,45.482,3
-0.204,0.484,-0.463,58.674,513.395,5.035,3
0.022,-0.064,-0.127,91.464,454.086,-9.679,3
-0.009,-0.159,-1.148,27.385,459.014,40.197,3
0.158,-0.155,-1.676,61.083,219.694,23.998,3
0.552,-0.193,-0.678,39.328,56.731,37.711,3
0.730,0.306,-0.071,24.208,57.846,43.721,3
0.852,0.126,-0.161,8.528,70.973,9.698,3
0.880,0.119,-0.143,11.671,69.175,15.881,3
0.885,0.045,-0.306,-14.240,65.722,-0.836,3
0.964,0.018,-0.093,-3.484,38.100,11.253,3
0.979,0.156,-0.046,6.154,44.070,11.840,3
0.942,0.140,-0.200,12.439,36.805,1.029,3
0.998,0.131,-0.087,14.360,10.118,-6.190,3
0.956,0.110,-0.030,29.131,13.643,-14.411,3
0.950,-0.049,-0.055,7.062,13.427,-13.755,3
0.996,0.039,-0.093,15.163,6.665,-2.114,3
1.003,0.041,-0.117,9.087,-3.801,-1.596,3
0.986,0.118,-0.060,11.846,-20.993,-0.733,3
0.987,0.074,0.039,17.852,-12.576,-17.968,3
1.008,-0.083,0.006,-10.957,-3.045,-10.093,3
1.006,0.056,-0.036,-1.075,-4.520,1.167,3
1.005,0.064,-0.031,4.862,-9.124,-3.772,3
1.026,0.070,0.057,21.693,-12.936,-4.601,3
0.997,0.001,0.012,16.595,-2.902,-15.136,3
1.009,-0.099,0.004,0.811,2.026,-4.463,3
0.990,0.060,-0.067,-1.424,-2.686,5.933,3
0.991,0.058,-0.051,-2.471,-9.915,0.165,3
0.985,0.093,-0.050,4.757,-14.051,-1.147,3
1.008,-0.039,0.128,2.278,-17.648,-12.166,3
1.010,-0.016,0.009,7.551,4.795,0.062,3
1.007,0.047,0.025,7.935,1.091,-3.289,3
0.990,0.006,-0.063,-2.297,-0.600,-2.667,3
0.996,0.094,-0.011,9.157,-5.995,-1.631,3
0.995,-0.056,0.031,2.941,-8.548,-8.194,3
0.999,-0.007,-0.000,0.567,4.256,5.139,3
1.000,0.074,-0.005,1.230,-3.009,-2.771,3
0.990,0.011,-0.035,1.894,-0.708,-5.119,3
0.986,-0.002,-0.037,4.548,-7.793,-4.049,3
1.020,-0.020,0.142,-5.963,-7.541,0.131,3
1.009,0.051,-0.029,-2.716,1.558,1.236,3
1.007,0.016,0.013,-2.192,-4.484,-1.182,3
0.979,0.019,-0.039,0.287,-1.859,-0.077,3
0.985,0.003,0.006,0.392,-7.541,-4.670,3
0.997,-0.086,0.026,-13.890,-6.282,5.105,3
1.006,0.107,0.042,-1.319,-2.794,4.897,3
0.982,0.029,-0.015,4.024,-1.139,-3.531,3
0.983,0.025,-0.014,5.281,-4.556,-2.563,3
0.998,-0.014,0.039,-0.551,-7.793,-4.118,3
0.998,0.014,0.028,7.306,-1.823,-1.320,3
1.010,0.003,0.080,11.147,-0.851,-5.983,3
0.990,-0.010,-0.090,1.649,2.997,-3.496,3
0.992,0.009,-0.014,-4.497,-9.483,1.374,3
1.001,0.019,0.029,-6.417,-11.282,1.996,3
0.996,0.020,0.019,-1.703,-9.232,0.476,3
1.009,-0.019,0.093,-4.008,-7.469,-1.113,3
1.007,0.020,0.042,2.906,2.134,-1.942,3
1.009,0.046,0.055,18.655,3.500,-5.568,3
0.981,-0.056,-0.041,2.976,1.630,-8.055,3
0.990,-0.001,0.027,-0.691,-8.548,3.343,3
0.989,0.024,0.027,-7.814,-5.959,0.511,3
0.978,0.019,-0.003,-5.335,-10.095,1.029,3
0.986,-0.004,0.050,-3.798,-9.196,-2.253,3
0.986,0.017,-0.002,5.525,-7.218,-2.391,3
1.005,-0.014,0.055,7.586,-10.023,-3.427,3
1.011,-0.015,0.084,-8.094,-13.332,1.754,3
1.011,0.018,0.097,-5.475,-3.261,1.305,3
1.008,0.007,0.070,-1.564,-3.765,-3.323,3
1.000,0.001,0.074,6.014,1.810,-2.253,3
0.994,0.012,-0.004,6.643,-3.081,-2.633,3
0.988,0.009,0.075,11.357,-6.606,-2.391,3
0.984,-0.028,0.026,-0.586,-4.304,-1.665,3
0.993,0.002,0.065,0.986,-7.973,-0.422,3
0.986,0.024,0.040,4.233,-5.635,-1.873,3
0.970,0.012,0.015,4.722,-10.778,-4.809,3
0.980,-0.002,0.052,5.665,-14.591,-3.151,3
0.979,0.015,0.036,5.211,-17.000,-4.774,3
0.955,0.015,-0.026,3.640,-23.223,-3.669,3
1.006,-0.004,0.061,-2.960,-33.365,-6.052,3
0.970,-0.031,0.083,-9.595,-27.143,-1.527,3
0.962,0.043,0.008,-5.195,-35.739,-3.738,3
0.949,-0.029,0.050,-13.681,-49.046,-8.263,3
0.960,-0.003,0.092,-16.405,-50.629,-1.285,3
0.953,0.030,0.119,-9.979,-55.520,-8.194,3
0.956,-0.057,0.151,-4.287,-49.478,-11.440,3
0.952,-0.039,0.154,-10.119,-46.457,-5.776,3
0.950,-0.006,0.177,-16.055,-47.356,-7.365,3
0.956,-0.019,0.191,-14.798,-49.586,-7.848,3
0.961,-0.018,0.274,-15.636,-46.205,-4.152,3
0.949,-0.035,0.209,-7.675,-48.507,-9.886,3
0.948,-0.054,0.334,-6.068,-53.506,-5.189,3
0.984,-0.018,0.368,0.252,-41.385,-5.879,3
0.943,-0.033,0.236,-0.725,-34.120,-6.052,3
0.928,0.002,0.215,0.008,-39.515,-7.917,3
0.949,-0.062,0.345,-2.751,-44.263,-10.473,3
0.974,-0.073,0.416,-5.370,-32.897,-0.940,3
0.939,0.027,0.309,-5.510,-28.833,-3.047,3
0.914,-0.010,0.271,-4.846,-37.789,-9.195,3
0.904,-0.053,0.331,-5.335,-41.170,-10.370,3
0.908,-0.063,0.334,-7.675,-37.141,-6.432,3
0.917,-0.031,0.399,-4.497,-38.436,-6.985,3
0.913,-0.030,0.377,0.986,-31.711,-9.644,3
0.879,-0.032,0.258,1.509,-35.667,-13.029,3
0.887,-0.090,0.330,-3.938,-53.290,-11.682,3
0.907,-0.111,0.446,-9.665,-53.866,-3.807,3
0.892,-0.070,0.418,-12.005,-51.888,-0.387,3
0.877,-0.014,0.448,-9.909,-51.240,-0.249,3
0.864,-0.037,0.413,-9.770,-52.067,-6.570,3
0.861,-0.034,0.443,-9.665,-63.721,-6.156,3
0.852,-0.057,0.503,-10.224,-61.383,-5.983,3
0.847,-0.057,0.503,-10.782,-62.174,-2.011,3
0.828,-0.053,0.525,-16.893,-59.117,-1.078,3
0.819,-0.021,0.505,-15.287,-63.397,-2.011,3
0.828,-0.114,0.631,-12.144,-61.527,-3.461,3
0.823,-0.074,0.612,-6.941,-56.419,4.483,3
0.801,-0.021,0.564,-7.989,-53.758,3.170,3
0.779,-0.017,0.610,-8.862,-60.556,3.343,3
0.756,0.021,0.582,-7.675,-57.391,0.131,3
0.763,0.014,0.567,-5.440,-69.583,-3.289,3
0.733,-0.068,0.656,-11.586,-73.360,-6.605,3
0.729,-0.094,0.639,-16.928,-76.129,0.096,3
0.709,-0.010,0.643,-15.671,-78.719,3.170,3
0.690,0.041,0.642,-12.109,-81.380,-0.836,3
0.641,0.053,0.678,-3.973,-87.890,-5.085,3
0.618,0.035,0.631,4.687,-103.176,-11.371,3
0.644,-0.110,0.881,4.932,-107.743,-11.337,3
0.595,-0.086,0.773,-5.929,-94.148,-4.256,3
0.555,-0.025,0.687,-12.284,-97.889,-1.216,3
0.541,0.011,0.820,-6.033,-109.973,-7.295,3
0.537,0.016,0.928,-5.998,-102.960,-9.921,3
0.550,0.037,0.991,-0.760,-100.262,-7.088,3
0.553,0.008,1.157,2.417,-90.408,-13.340,3
0.556,-0.102,1.271,1.230,-58.326,-5.879,3
0.492,-0.114,1.089,-8.129,-26.388,3.723,3
0.443,0.028,0.709,-11.132,-32.178,6.348,3
0.440,-0.002,0.819,-4.183,-48.615,-6.432,3
0.431,-0.038,0.795,-7.256,-51.600,-4.429,3
0.406,-0.011,0.809,-10.224,-61.635,-2.356,3
0.396,0.030,0.953,-4.427,-66.886,-2.563,3
0.407,0.022,0.965,-4.497,-49.658,-5.603,3
0.385,-0.015,0.930,-11.132,-48.902,-5.914,3
0.369,-0.038,0.990,-9.002,-48.723,-3.945,3
0.346,-0.075,0.985,1.160,-42.716,-2.011,3
0.330,-0.096,0.948,-0.167,-38.292,1.305,3
0.331,0.011,0.924,-5.125,-40.918,5.519,3
0.325,0.049,0.905,-7.186,-41.062,0.960,3
0.313,0.024,0.945,-6.732,-46.744,-6.501,3
0.307,-0.043,0.951,-8.617,-41.997,-6.087,3
0.256,-0.026,0.880,-10.433,-44.227,1.271,3
0.249,0.024,0.977,-5.195,-53.542,4.414,3
0.242,0.043,1.030,-1.738,-47.608,3.412,3
0.231,0.016,0.969,-4.392,-42.177,1.581,3
0.243,0.032,0.910,-9.560,-44.299,-1.320,3
0.207,0.014,0.910,-6.487,-48.795,-4.809,3
0.160,-0.001,0.916,-0.237,-56.204,-4.843,3
0.188,0.017,0.977,3.325,-65.519,-1.078,3
0.173,-0.004,1.130,2.138,-55.520,-1.389,3
0.158,-0.018,1.131,0.636,-38.760,0.718,3
0.153,0.013,1.081,-5.859,-24.481,0.131,3
0.130,0.031,1.026,-7.221,-22.359,-1.596,3
0.123,-0.006,1.045,-0.865,-21.892,-1.182,3
0.127,0.004,0.972,-2.751,-16.065,-0.526,3
0.113,0.031,0.982,-0.725,-15.130,0.338,3
0.119,0.039,1.069,-0.656,-9.663,-0.733,3
0.124,-0.020,1.102,-2.541,-0.420,-3.012,3
0.120,0.008,1.029,-2.297,10.046,-0.526,3
0.102,0.022,0.915,-1.144,7.888,-1.078,3
0.099,0.011,0.964,-0.202,-0.132,-0.940,3
0.101,0.030,0.967,0.532,-1.031,1.547,3
0.129,0.019,1.001,-1.948,-1.139,1.201,3
0.124,0.030,1.014,-0.376,1.307,-1.009,3
0.124,-0.010,0.999,0.427,3.644,-0.456,3
0.106,0.026,0.974,0.497,4.040,-0.422,3
0.098,0.020,0.997,-0.237,3.105,1.167,3
0.103,0.024,0.980,2.033,0.263,1.581,3
0.116,0.029,0.976,0.706,2.278,1.409,3
0.137,0.022,0.995,0.217,1.810,0.062,3
0.137,0.008,1.003,1.789,4.759,-1.216,3
0.124,0.008,0.965,2.348,6.090,-0.906,3
0.117,-0.044,1.000,0.776,3.752,-0.871,3
0.099,0.066,0.977,-0.586,1.486,2.790,3
0.114,0.046,0.998,-1.005,0.084,-0.318,3
0.120,0.022,0.997,-1.598,2.314,0.511,3
0.136,0.019,0.970,-0.656,1.990,-1.424,3
0.138,0.007,0.967,1.475,1.486,-0.733,3
0.129,0.018,0.962,2.662,0.335,1.098,3
0.123,0.017,1.011,1.998,1.055,0.511,3
0.112,0.021,0.969,1.300,-0.744,1.547,3
0.116,0.030,1.052,-0.970,0.443,0.580,3
0.125,0.020,1.003,-2.157,1.307,0.234,3
0.137,0.023,0.958,-0.970,4.292,0.131,3
0.131,0.014,0.966,-1.389,2.062,-0.560,3
0.272,-0.151,1.288,3.255,-8.404,2.859,4
0.319,-0.215,2.018,3.919,25.368,14.534,4
0.250,-0.297,2.478,-30.303,124.167,53.703,4
0.123,0.325,2.431,-35.192,192.431,67.484,4
0.047,0.291,3.490,-26.706,267.493,28.765,4
-0.207,0.250,2.943,-1.773,462.395,13.947,4
-0.400,-0.229,2.497,38.700,534.579,19.542,4
-0.654,0.058,2.120,32.623,676.286,52.874,4
-0.998,0.158,0.910,1.963,757.966,33.428,4
-0.787,-0.030,-0.930,15.373,697.111,22.513,4
-0.331,0.013,-2.274,55.007,532.961,70.317,4
-0.164,1.185,-2.660,165.425,290.512,3.412,4
0.151,-0.733,-0.599,159.558,35.618,-79.001,4
0.183,-0.093,-0.710,-18.884,121.650,75.014,4
0.366,0.605,-0.877,-42.560,12.888,13.187,4
0.811,0.001,-0.021,-45.214,-4.376,-19.039,4
1.084,0.042,0.131,-38.369,-17.971,-6.328,4
1.214,0.202,0.448,-16.300,-19.554,0.891,4
1.195,0.230,0.462,10.763,10.586,-8.194,4
1.094,0.047,0.176,13.941,14.218,-10.646,4
1.036,0.128,0.120,22.741,1.342,-10.749,4
0.979,-0.040,0.126,11.147,7.385,-12.995,4
0.963,0.058,0.164,21.100,5.011,-0.318,4
0.962,0.201,0.128,37.058,7.421,-11.095,4
0.925,0.000,0.009,27.490,5.155,-23.288,4
0.943,-0.159,0.018,11.252,1.522,-17.588,4
0.982,-0.135,0.046,-14.065,2.026,-1.424,4
1.015,0.044,0.043,-11.725,2.601,5.105,4
1.015,0.119,0.034,8.598,2.565,-1.458,4
1.011,0.111,0.113,19.528,-3.297,-10.819,4
0.988,-0.023,0.128,11.706,2.565,-13.029,4
0.983,-0.023,0.071,11.532,-1.067,-6.777,4
0.983,-0.036,0.032,7.236,-1.319,-0.975,4
0.987,0.031,0.062,2.243,-9.843,4.103,4
0.983,0.064,0.102,-6.906,-4.268,1.685,4
0.971,0.057,0.104,-0.062,-2.758,-4.463,4
0.980,-0.021,0.099,1.055,-4.448,-6.639,4
0.985,0.009,0.067,3.290,-1.859,-1.389,4
0.998,0.014,0.119,2.417,-5.563,0.822,4
1.004,0.042,0.089,0.182,-8.332,-0.940,4
0.998,0.010,0.156,4.094,-6.246,-2.080,4
0.989,0.031,0.094,8.598,-2.758,-3.082,4
0.987,-0.023,0.140,7.655,-0.959,-5.050,4
0.981,0.003,0.068,3.116,-1.427,-0.629,4
0.980,0.029,0.111,1.929,-5.491,0.994,4
0.996,0.037,0.149,-2.541,-3.729,-0.595,4
0.999,0.013,0.158,-1.319,0.551,-4.221,4
0.991,-0.003,0.067,3.814,4.579,-4.912,4
0.985,-0.012,0.081,6.363,-2.398,-5.983,4
0.994,-0.029,0.118,4.059,-3.909,-0.767,4
0.990,0.037,0.143,6.643,-0.276,0.234,4
0.992,-0.006,0.102,0.986,-0.672,-1.251,4
0.988,-0.002,0.080,-0.481,-3.153,-1.562,4
0.989,0.001,0.113,-1.179,-3.801,-1.251,4
1.001,-0.010,0.164,-4.567,-2.686,1.132,4
0.996,0.022,0.114,0.916,2.673,-0.180,4
0.993,0.010,0.131,2.033,-0.348,-2.425,4
0.987,0.009,0.073,3.325,1.486,-2.045,4
0.980,-0.013,0.140,4.198,-4.556,-2.287,4
0.981,0.017,0.104,8.284,1.378,-1.320,4
0.980,0.012,0.104,6.538,-2.254,-1.424,4
0.985,0.016,0.132,4.443,-1.859,-4.325,4
0.980,-0.024,0.105,-2.262,2.529,-1.424,4
0.977,-0.003,0.092,0.951,-0.168,-4.843,4
0.976,0.007,0.088,1.544,-2.758,-1.734,4
0.988,0.003,0.168,2.382,-3.009,-6.708,4
0.997,0.005,0.132,0.182,1.199,-4.394,4
1.006,-0.013,0.127,0.951,0.767,-6.916,4
0.995,-0.022,0.109,-0.271,-0.923,-3.980,4
0.988,-0.036,0.134,-0.481,-0.959,-3.669,4
0.993,0.044,0.239,2.313,6.989,-6.708,4
0.974,-0.029,0.065,7.551,17.995,-13.098,4
0.969,-0.004,0.020,9.890,9.974,-9.126,4
0.971,-0.032,0.003,7.795,-1.247,-8.712,4
0.972,-0.032,0.042,2.033,-16.856,-3.807,4
0.972,-0.032,0.107,-3.310,-19.050,-2.529,4
0.966,-0.013,0.095,0.078,-17.072,-3.254,4
0.954,-0.001,0.051,3.744,-19.986,-6.708,4
0.972,-0.053,0.103,-0.935,-26.028,-6.363,4
0.988,-0.017,0.188,-6.138,-28.258,-1.424,4
0.980,-0.009,0.186,-6.662,-18.043,-3.496,4
0.969,0.011,0.117,-2.786,-21.568,-9.851,4
0.968,-0.087,0.153,-2.367,-24.661,-9.472,4
0.971,-0.048,0.117,2.802,-27.215,-9.195,4
0.957,-0.034,0.119,4.548,-34.912,-4.152,4
0.943,-0.030,0.159,-0.516,-39.515,-6.916,4
0.953,-0.053,0.230,1.440,-41.457,-7.503,4
0.947,-0.037,0.170,-3.554,-35.739,-6.639,4
0.933,-0.016,0.144,-4.741,-42.285,-10.646,4
0.919,-0.022,0.176,-0.376,-54.657,-14.307,4
0.923,-0.053,0.223,-1.703,-56.024,-16.518,4
0.941,-0.076,0.314,-2.437,-61.635,-14.238,4
0.945,-0.078,0.384,-11.690,-53.542,-11.095,4
0.932,-0.091,0.283,-12.494,-55.736,-12.822,4
0.931,-0.086,0.293,-10.084,-53.686,-11.233,4
0.918,-0.092,0.297,-0.900,-56.455,-15.136,4
0.923,-0.116,0.385,-8.198,-58.182,-10.542,4
0.904,-0.076,0.409,-8.478,-53.290,-5.879,4
0.874,-0.032,0.298,-6.522,-52.032,-9.541,4
0.843,-0.069,0.223,-9.630,-66.850,-15.585,4
0.868,-0.154,0.461,-8.303,-81.308,-20.973,4
0.878,-0.109,0.536,-7.465,-65.735,-11.648,4
0.855,-0.063,0.448,-6.208,-63.972,-6.708,4
0.838,-0.068,0.481,-8.757,-69.511,-8.504,4
0.827,-0.009,0.494,-8.303,-77.963,-11.751,4
0.824,-0.160,0.662,-5.021,-69.619,-21.319,4
0.812,-0.194,0.568,-9.875,-61.599,-3.289,4
0.830,-0.070,0.600,-17.976,-58.110,0.165,4
0.814,-0.050,0.579,-9.106,-59.764,-3.876,4
0.800,-0.031,0.567,-13.436,-62.857,-8.090,4
0.812,-0.153,0.695,-26.706,-65.051,-17.209,4
0.798,-0.203,0.718,-18.849,-47.680,-1.320,4
0.788,-0.037,0.541,-7.675,-45.414,4.310,4
0.716,-0.049,0.548,-2.611,-55.772,-1.700,4
0.738,-0.047,0.721,-4.846,-62.354,-11.199,4
0.742,-0.153,0.720,-7.535,-57.103,-12.304,4
0.738,-0.161,0.758,-8.198,-50.413,-3.565,4
0.717,-0.051,0.649,-9.735,-49.981,-0.007,4
0.688,-0.042,0.700,-9.630,-52.607,-5.810,4
0.667,-0.098,0.671,-7.256,-57.750,-8.263,4
0.643,-0.065,0.680,-11.027,-58.326,-4.843,4
0.629,-0.056,0.693,-12.668,-68.360,-8.746,4
0.636,-0.096,0.777,-14.903,-67.821,-12.235,4
0.613,-0.157,0.762,-19.233,-64.512,-5.707,4
0.591,-0.015,0.754,-13.262,-63.325,-5.327,4
0.579,-0.044,0.789,-2.367,-65.159,-11.268,4
0.597,-0.139,0.955,-5.998,-61.491,-12.787,4
0.550,-0.133,0.780,-18.220,-58.398,-2.218,4
0.542,-0.018,0.905,-16.230,-68.037,-3.669,4
0.559,-0.002,0.994,2.243,-52.679,-8.539,4
0.509,-0.135,0.879,1.859,-37.609,-6.812,4
0.491,-0.010,0.810,0.182,-49.298,-8.953,4
0.492,-0.138,0.862,-5.789,-55.916,-13.133,4
0.495,-0.118,0.934,-12.075,-55.412,-3.254,4
0.478,-0.089,0.971,-2.471,-46.888,-1.182,4
0.463,-0.078,0.897,0.811,-40.414,1.409,4
0.441,-0.052,0.889,-0.691,-43.615,-0.767,4
0.442,-0.087,0.900,-5.160,-42.644,-5.154,4
0.422,-0.142,0.899,-10.573,-43.903,0.234,4
0.410,-0.088,0.905,-14.100,-43.975,3.965,4
0.409,-0.028,0.914,-9.979,-41.098,2.445,4
0.384,-0.063,0.882,-7.395,-36.998,-0.560,4
0.360,-0.053,0.886,-12.528,-36.746,5.554,4
0.367,0.017,0.882,-12.144,-46.313,0.200,4
0.355,-0.052,0.940,-8.897,-52.175,-1.838,4
0.354,-0.059,1.009,-4.183,-49.874,-2.011,4
0.347,-0.098,1.051,-4.148,-38.005,-0.249,4
0.312,-0.083,0.917,-12.459,-30.811,3.170,4
0.296,-0.020,0.882,-15.776,-37.681,3.861,4
0.279,-0.036,0.899,-16.370,-40.630,4.310,4
0.292,-0.014,1.019,-13.716,-44.011,2.445,4
0.301,0.016,1.097,-8.582,-26.100,1.996,4
0.264,-0.006,0.906,-7.116,-19.230,-0.042,4
0.251,-0.014,0.947,-9.490,-22.108,-1.907,4
0.247,-0.005,0.917,-11.062,-29.840,-0.456,4
0.245,-0.025,0.916,-12.703,-35.163,0.407,4
0.245,-0.027,1.001,-18.500,-35.883,4.379,4
0.238,0.081,0.962,-13.541,-25.021,0.994,4
0.216,0.037,0.957,-6.976,-28.581,-4.360,4
0.196,-0.012,0.966,-4.287,-29.121,-5.534,4
0.197,-0.001,1.015,-3.729,-29.337,-4.601,4
0.191,-0.010,0.974,-10.468,-31.926,-1.838,4
0.186,-0.018,0.995,-20.560,-34.012,0.891,4
0.174,0.052,0.991,-16.020,-26.567,-0.802,4
0.171,-0.012,1.048,-12.214,-25.776,-1.942,4
0.156,0.017,1.000,-6.557,-18.799,-1.942,4
0.153,0.016,1.010,-5.684,-21.748,-1.458,4
0.143,0.001,0.979,-11.306,-21.424,3.239,4
0.142,0.017,1.026,-11.725,-20.273,6.313,4
0.150,0.095,1.015,-4.287,-18.475,6.624,4
0.137,0.032,1.026,3.605,-13.260,-4.049,4
0.121,0.036,1.048,2.836,-7.973,-1.838,4
0.128,0.029,1.018,1.859,-5.239,-1.804,4
0.126,0.012,0.995,1.230,-2.434,-0.077,4
0.113,0.035,0.942,0.322,-5.995,3.205,4
0.119,0.041,0.985,-0.027,-8.584,2.790,4
0.112,0.056,1.011,0.497,-5.383,2.583,4
0.128,0.020,1.062,-2.087,-2.290,0.752,4
0.125,0.026,1.020,-2.087,2.889,2.272,4
0.115,0.028,1.000,1.544,4.831,0.649,4
0.106,0.053,0.967,2.173,3.932,1.650,4
0.111,0.050,0.948,1.824,2.026,0.234,4
0.125,0.034,0.969,0.252,0.120,-1.078,4
0.121,0.029,0.979,0.252,-0.456,0.545,4
0.122,0.018,1.028,1.090,1.055,0.096,4
0.116,0.015,1.030,3.849,3.105,0.511,4
0.107,0.041,0.980,1.265,5.946,1.581,4
0.112,0.053,0.967,0.951,1.271,-0.249,4
0.124,0.023,0.968,-1.598,1.307,-0.491,4
0.125,0.031,0.981,0.008,0.156,1.374,4
0.125,0.027,0.997,3.081,1.271,-0.836,4
0.123,0.034,1.002,2.557,4.184,-1.320,4
0.117,0.044,0.978,1.265,2.889,-0.940,4
0.120,0.031,0.992,0.217,0.875,-1.527,4
0.120,0.029,0.982,-0.900,1.954,-0.526,4
0.132,0.018,0.970,-0.935,0.731,-0.249,4
0.125,0.032,0.964,0.671,0.515,-0.353,4
0.126,0.040,0.978,1.789,-0.096,0.822,4
0.123,0.027,1.004,1.405,0.192,-0.871,4
0.121,0.038,0.999,-0.411,1.450,-0.767,4
0.167,0.073,1.356,14.046,35.151,-1.493,5
0.117,0.087,1.742,30.284,61.478,-5.189,5
0.208,-0.223,2.475,23.020,113.413,-12.995,5
0.339,0.068,3.299,37.966,228.362,9.940,5
0.138,-0.235,2.809,57.312,369.134,13.256,5
-0.019,-0.086,2.495,77.670,420.026,38.609,5
-0.197,-0.302,1.954,43.588,506.453,40.508,5
-0.470,-0.387,1.755,-26.985,607.267,64.341,5
-0.865,-0.048,0.694,-89.143,726.100,67.657,5
-0.785,0.310,-0.397,-8.722,660.425,41.959,5
-0.534,0.252,-1.295,-2.367,548.750,7.211,5
-0.126,0.309,-1.897,43.204,339.174,-13.478,5
0.131,0.418,-0.878,94.013,224.082,-57.621,5
0.067,-0.191,-1.078,44.776,183.368,-78.863,5
0.277,-0.046,-0.843,0.392,112.946,-13.167,5
0.539,0.177,-0.756,43.588,52.451,-0.560,5
0.861,0.138,-0.451,28.642,-21.100,-13.582,5
1.070,-0.390,-0.066,-19.373,-49.298,3.136,5
1.276,-0.068,0.314,-34.528,-30.919,52.183,5
1.194,0.146,0.194,-20.770,8.859,34.015,5
1.104,0.117,-0.092,2.627,17.168,7.073,5
1.051,0.040,-0.075,22.322,-1.787,-12.511,5
0.955,-0.198,-0.171,-1.354,5.658,-9.921,5
0.971,-0.077,0.068,-12.040,-18.295,17.470,5
0.985,0.143,0.107,6.782,8.392,4.828,5
0.981,0.041,-0.055,11.532,3.968,-7.054,5
0.983,0.024,-0.035,32.798,6.378,-12.995,5
1.001,-0.033,-0.073,37.373,7.457,-15.861,5
0.980,-0.058,-0.117,29.725,9.219,-9.092,5
0.966,-0.020,-0.211,-8.652,-3.873,1.650,5
0.989,0.039,-0.011,-10.782,-21.280,2.479,5
0.990,0.012,-0.038,-3.903,-11.066,-6.985,5
0.995,-0.077,-0.037,17.887,-9.088,-5.050,5
0.994,-0.046,-0.106,21.938,-10.490,-4.256,5
0.983,-0.069,-0.091,-12.179,-18.547,1.374,5
1.009,0.005,0.020,-30.862,-24.553,5.864,5
0.990,0.035,-0.004,-29.989,-15.885,-0.629,5
0.971,0.004,-0.021,-8.233,-14.015,-6.639,5
0.970,-0.030,-0.068,5.246,-16.209,-9.955,5
0.957,0.025,-0.137,20.017,-23.870,-11.578,5
0.990,-0.065,-0.073,3.255,-47.859,-12.200,5
1.041,-0.105,0.219,-1.354,-46.205,3.550,5
1.009,-0.041,0.094,10.170,-13.296,6.244,5
0.971,-0.001,-0.029,16.106,-17.576,2.687,5
0.975,0.031,-0.035,11.392,-23.043,-5.465,5
0.861,-0.150,-0.449,-27.090,-36.638,-17.796,5
1.005,0.136,0.061,-34.703,-75.949,51.976,5
0.966,0.185,0.095,-34.912,-66.130,-11.613,5
0.971,-0.171,0.025,-13.751,-71.633,-12.442,5
0.952,0.082,0.128,14.465,-72.352,-5.430,5
0.930,-0.037,0.035,13.592,-71.669,-20.214,5
0.904,-0.080,0.029,-5.440,-87.962,-12.926,5
0.879,-0.114,-0.010,-37.042,-101.881,-2.287,5
0.894,0.082,0.114,-17.941,-119.360,3.723,5
0.929,0.009,0.418,-6.033,-116.375,-23.357,5
0.915,-0.070,0.238,-20.944,-94.580,-15.620,5
0.907,-0.123,0.331,-27.614,-117.274,-10.059,5
0.895,-0.002,0.383,-18.849,-94.112,-0.733,5
0.860,-0.023,0.289,-18.325,-106.125,-8.021,5
0.839,-0.188,0.377,-40.115,-103.751,-2.805,5
0.873,-0.013,0.552,-33.027,-99.507,14.983,5
0.854,0.072,0.423,-29.395,-97.565,1.236,5
0.831,0.016,0.525,-28.173,-105.621,-0.698,5
0.818,0.144,0.555,-7.640,-101.737,-7.019,5
0.778,-0.084,0.534,7.621,-94.148,-25.947,5
0.774,-0.292,0.584,-5.405,-94.436,-7.848,5
0.790,-0.107,0.617,-31.036,-96.989,16.883,5
0.749,0.076,0.603,-31.735,-84.509,17.055,5
0.706,0.104,0.511,-26.566,-93.141,5.035,5
0.679,0.064,0.585,-16.020,-104.183,-3.461,5
0.701,-0.075,0.731,3.395,-99.039,-11.199,5
0.720,-0.053,0.819,11.043,-83.610,-3.841,5
0.675,-0.072,0.715,-5.579,-85.013,4.552,5
0.622,0.023,0.732,-19.338,-92.026,6.901,5
0.608,0.105,0.776,-4.916,-94.112,-0.077,5
0.592,0.059,0.702,9.611,-87.243,-14.791,5
0.559,0.076,0.732,20.297,-89.113,-19.315,5
0.550,-0.067,0.830,16.106,-94.688,-23.219,5
0.606,-0.105,0.846,-2.925,-90.911,-10.093,5
0.517,-0.096,0.874,-23.249,-94.292,-0.733,5
0.538,-0.049,1.087,-18.011,-89.616,9.767,5
0.503,0.095,0.968,0.706,-69.403,7.281,5
0.461,0.028,0.895,11.846,-59.836,-4.083,5
0.435,0.038,0.878,11.008,-61.886,-9.990,5
0.406,-0.027,0.862,-3.763,-69.583,-12.995,5
0.392,-0.084,0.918,-19.478,-83.322,-11.026,5
0.417,-0.090,1.099,-21.049,-73.647,0.960,5
0.408,0.029,1.011,-4.183,-52.463,2.928,5
0.380,0.034,0.886,3.046,-49.226,-3.461,5
0.372,0.006,0.974,-11.271,-51.276,-2.598,5
0.360,-0.009,1.003,-23.738,-52.859,-2.045,5
0.336,0.012,0.981,-23.493,-44.658,1.685,5
0.333,0.090,1.052,-15.706,-42.357,0.822,5
0.320,0.030,0.985,-6.033,-29.589,-4.290,5
0.303,0.020,0.999,-4.636,-29.193,-3.772,5
0.276,0.083,0.871,-6.103,-34.192,-5.292,5
0.292,0.011,0.971,-11.900,-42.141,-6.812,5
0.310,-0.057,1.139,-19.827,-36.998,-0.422,5
0.289,0.014,1.119,-9.909,-15.813,3.377,5
0.265,0.026,1.049,3.884,-8.800,3.274,5
0.259,0.052,1.020,11.252,-4.052,2.514,5
0.248,0.020,0.925,10.170,1.810,3.447,5
0.247,0.050,0.894,6.259,-5.095,5.312,5
0.249,0.010,0.953,5.805,-5.995,3.447,5
0.257,0.030,0.940,14.081,-3.153,2.756,5
0.252,-0.025,0.992,24.836,-2.758,5.139,5
0.239,0.019,0.955,23.893,-2.470,6.970,5
0.243,0.020,0.910,16.979,-7.218,5.346,5
0.245,0.012,0.969,9.297,-18.187,2.583,5
0.248,-0.007,0.970,4.303,-16.821,1.823,5
0.241,-0.015,0.947,0.078,-17.720,4.794,5
0.244,0.035,0.994,3.919,-15.813,5.968,5
0.238,-0.001,1.048,6.154,-14.339,4.863,5
0.238,0.017,1.037,3.430,-6.642,4.137,5
0.222,0.032,0.951,1.544,-5.095,3.067,5
0.221,0.031,0.947,-2.332,-8.189,1.512,5
0.206,-0.008,0.954,-6.522,-5.815,2.307,5
0.222,0.024,0.969,-6.243,-10.598,0.442,5
0.228,0.004,1.079,-3.903,-5.095,4.966,5
0.227,0.004,1.059,2.173,-1.966,1.374,5
0.202,0.015,0.895,4.687,5.191,-0.767,5
0.209,-0.014,0.979,3.325,-1.607,-1.562,5
0.213,-0.013,0.969,-3.659,-1.319,0.787,5
0.203,0.002,0.934,-4.252,-2.218,2.721,5
0.219,0.012,0.990,1.265,-3.045,2.445,5
0.219,0.020,1.003,1.300,-1.247,2.410,5
0.216,0.018,0.978,0.532,2.098,-0.387,5
0.208,-0.006,0.973,-0.516,1.954,-1.734,5
0.211,0.008,0.969,-3.240,0.731,0.338,5
0.210,0.007,0.946,-2.541,-0.636,0.131,5
0.215,0.020,0.963,-1.075,-2.218,1.063,5
0.212,0.016,0.973,0.113,-1.679,-0.318,5
0.205,-0.010,1.011,-0.795,-1.859,-0.180,5
0.202,0.002,1.005,-2.017,2.817,2.445,5
0.200,0.024,0.956,-2.471,1.450,2.272,5
0.210,0.029,0.952,-3.100,-1.859,1.961,5
0.215,0.018,0.969,-2.541,-1.175,-0.836,5
0.209,0.000,0.984,-2.890,0.156,0.442,5
0.215,0.019,0.990,-0.935,0.875,0.891,5
0.213,0.005,0.976,-1.389,2.601,2.203,5
0.209,0.032,0.945,-2.541,2.350,2.341,5
0.203,0.026,0.955,-3.030,0.623,2.238,5
0.207,0.039,0.990,-1.424,-1.823,0.683,5
0.213,0.018,0.994,0.148,-0.024,0.165,5
0.215,0.018,0.985,2.138,1.990,-0.526,5
0.217,0.012,0.961,1.370,2.278,-0.733,5
0.214,0.018,0.965,-0.271,1.558,0.476,5
0.210,0.011,0.968,0.043,0.156,0.683,5
0.203,0.019,0.972,-0.237,0.228,1.616,5
0.204,0.032,0.983,-0.691,0.120,0.960,5
0.210,0.027,0.963,-0.202,0.695,0.027,5
0.217,0.035,0.958,-0.202,0.587,-0.836,5
0.224,0.024,0.974,0.427,0.443,-1.078,5
0.212,0.033,0.965,0.986,-1.463,-0.111,5
0.200,0.013,0.971,1.125,-1.103,1.512,5
0.199,0.019,0.981,0.427,-1.211,0.856,5
0.211,0.016,0.984,0.113,-1.751,-0.836,5
0.215,0.018,0.978,0.916,0.228,-1.493,5
0.214,0.019,0.990,0.776,2.853,-1.009,5
0.207,0.018,0.957,1.125,1.846,0.338,5
0.208,0.027,0.929,0.497,0.084,-0.387,5
0.211,0.017,0.943,-0.656,-0.816,0.234,5
0.216,-0.001,0.982,-1.179,-1.966,0.234,5
0.212,0.016,1.001,-0.935,0.192,0.407,5
0.206,0.032,0.995,0.811,3.500,1.271,5
0.200,0.047,0.954,1.195,1.954,1.029,5
0.206,0.017,0.951,0.182,-1.787,-1.113,5
0.218,0.021,0.982,-0.935,-0.384,-0.802,5
0.221,0.010,0.982,0.287,0.875,0.891,5
0.209,0.028,0.972,1.719,1.882,1.201,5
0.201,0.017,0.968,1.370,2.817,0.683,5
0.199,0.016,0.946,-0.027,1.055,0.407,5
0.211,0.039,0.978,-0.062,-1.787,0.096,5
0.215,0.021,0.989,0.043,-1.571,8.455,5
0.214,0.013,0.974,0.252,-0.168,0.891,5
0.210,0.019,0.969,0.427,0.228,1.823,5
0.206,0.026,0.964,0.392,1.558,1.409,5
0.212,0.027,0.978,0.427,0.084,0.303,5
0.216,0.046,0.983,-0.411,1.271,-0.007,5
0.213,0.031,0.977,-0.237,0.012,-0.422,5
0.205,0.019,0.962,0.602,0.659,-0.802,5
0.205,0.016,0.961,0.706,1.127,-0.422,5
0.208,0.009,0.971,0.986,0.012,-1.147,5
0.211,0.012,0.986,-0.027,-0.492,-0.146,5
0.213,0.033,0.991,0.462,0.731,0.649,5
0.207,0.023,0.967,1.125,0.983,0.372,5
0.207,0.022,0.948,0.881,-0.204,0.200,5
0.210,0.016,0.962,-0.621,-0.780,-0.318,5
0.215,0.026,0.988,-0.306,0.156,-0.180,5
0.212,0.017,0.983,-0.725,1.846,0.925,5
0.211,0.037,0.958,-0.935,2.026,0.752,5
0.213,0.034,0.985,-0.725,1.558,0.200,5
0.207,0.030,0.967,-1.598,0.911,0.614,5
0.205,0.018,0.956,-1.878,0.228,-0.215,5
0.210,0.021,0.972,0.113,0.120,0.338,5
0.212,0.007,0.979,0.916,-0.456,0.925,5
0.213,0.029,0.962,0.811,-0.132,1.581,5
0.214,0.033,0.976,1.719,-0.240,0.027,5
0.204,0.028,0.974,-0.516,1.558,0.131,5
0.210,0.041,0.977,-0.900,-0.168,-0.906,5
0.236,0.078,1.384,18.236,35.870,2.894,6
0.264,-0.092,1.922,26.128,76.908,3.619,6
0.254,-0.049,2.105,8.598,143.589,17.954,6
0.356,0.002,2.466,-11.551,205.883,18.644,6
0.306,0.078,1.959,-19.093,293.856,27.141,6
0.320,0.259,1.808,-6.487,312.667,24.378,6
0.280,0.520,1.855,40.096,363.092,1.650,6
0.233,0.014,2.239,76.763,404.705,-20.455,6
-0.114,-0.294,1.660,44.426,513.934,-3.945,6
-0.242,-0.368,0.671,-30.582,534.039,26.658,6
-0.188,-0.059,-0.205,-60.823,491.383,40.646,6
-0.048,0.096,-0.163,-30.512,408.517,19.681,6
-0.091,0.376,-0.154,72.118,462.610,6.210,6
-0.380,0.356,-2.058,130.470,441.822,-58.553,6
-0.460,0.399,-1.672,-104.823,201.855,-190.946,6
1.880,-2.066,0.573,-16.405,403.734,-85.080,6
0.337,-0.092,-1.897,69.115,-73.216,32.253,6
0.823,-0.126,-0.252,41.423,57.702,66.655,6
0.800,0.014,-0.669,-9.141,-43.508,83.097,6
1.008,0.376,-0.038,22.531,-38.796,70.627,6
1.174,0.455,-0.060,29.446,-20.849,34.222,6
1.233,0.047,0.144,-37.077,-42.141,-12.338,6
1.153,-0.070,0.218,-14.065,-15.274,-3.427,6
1.062,0.025,0.018,16.525,23.030,2.549,6
0.997,0.117,-0.085,33.008,29.216,-0.111,6
0.955,0.143,-0.241,29.620,24.217,-12.960,6
0.978,0.077,-0.230,19.493,-6.606,-28.538,6
0.991,-0.144,-0.083,16.420,-16.641,-30.783,6
0.964,-0.130,-0.082,34.474,-4.124,-7.088,6
0.974,0.011,-0.089,44.496,9.831,-4.809,6
0.964,-0.007,-0.266,17.608,12.168,-7.399,6
0.996,0.047,-0.199,4.303,-8.944,-7.226,6
0.988,-0.038,-0.150,-15.811,-12.864,-14.411,6
0.989,-0.071,-0.094,6.678,-6.282,-2.702,6
0.967,-0.013,-0.202,17.154,-9.771,-1.320,6
1.003,0.013,-0.096,18.655,-16.928,-0.871,6
0.992,0.012,-0.133,5.036,-9.699,-8.850,6
1.010,-0.137,-0.090,-2.471,-17.216,-8.573,6
1.002,-0.071,-0.069,7.167,-5.671,0.994,6
0.986,0.000,-0.162,10.344,-3.801,-0.629,6
0.982,-0.024,-0.116,2.313,-10.670,2.687,6
0.994,0.003,-0.066,-0.691,-12.684,0.545,6
1.010,-0.009,-0.020,5.525,-8.296,-1.700,6
1.009,-0.078,-0.042,8.144,1.307,-2.391,6
0.996,0.015,-0.134,12.090,0.839,0.683,6
1.005,-0.013,-0.119,1.998,-8.692,-2.909,6
1.003,0.008,-0.073,1.998,-11.174,-2.736,6
1.009,-0.025,-0.028,4.687,-11.066,-5.016,6
0.973,-0.047,-0.101,6.573,-0.780,-4.360,6
0.997,-0.074,-0.092,-3.589,-5.779,-0.560,6
1.003,-0.023,-0.108,-14.449,-11.426,1.754,6
0.998,-0.004,-0.081,-13.855,-14.087,0.407,6
0.972,-0.030,-0.043,-1.913,-7.721,-1.527,6
0.980,-0.038,-0.103,-3.310,-5.851,-0.629,6
0.995,-0.011,-0.046,1.090,-3.801,-1.527,6
1.005,-0.035,-0.079,4.722,-2.038,-3.703,6
1.009,-0.075,-0.074,3.011,-7.074,0.372,6
1.008,-0.010,-0.050,3.849,-7.038,1.616,6
1.002,-0.033,-0.054,4.268,-6.282,-0.215,6
0.995,-0.008,-0.024,8.214,-7.289,0.511,6
1.007,-0.039,-0.003,2.662,-3.693,-1.631,6
1.009,-0.022,-0.048,5.735,-0.780,0.856,6
0.995,-0.027,-0.073,-5.265,-0.923,-0.871,6
0.994,-0.050,-0.078,-11.655,-5.203,-1.355,6
0.999,-0.054,-0.062,-15.671,-9.483,0.580,6
1.000,-0.034,-0.004,-5.090,-5.347,1.858,6
0.993,-0.004,-0.054,3.221,-2.038,2.756,6
0.990,0.000,-0.032,4.024,-6.031,-1.700,6
1.003,-0.061,-0.042,0.567,-1.966,-3.876,6
0.991,-0.044,-0.059,3.046,-2.218,0.131,6
0.995,-0.017,-0.025,1.509,-2.902,1.927,6
0.991,0.003,-0.038,0.881,-3.477,0.580,6
0.988,-0.038,-0.044,-3.659,-1.859,-3.254,6
0.988,-0.058,-0.039,3.640,-1.751,-1.320,6
1.004,-0.040,-0.054,3.779,-3.405,0.476,6
1.009,-0.043,-0.006,4.548,-3.333,0.960,6
0.994,-0.052,-0.064,-0.237,-2.146,-0.871,6
0.992,-0.031,-0.079,-11.935,-9.052,1.581,6
0.997,0.015,-0.026,-2.821,-8.117,-1.527,6
1.001,-0.070,-0.025,-4.951,-6.139,-3.703,6
1.007,-0.011,0.025,-4.602,-3.729,-0.491,6
1.003,0.000,0.021,0.532,2.134,-4.256,6
0.995,-0.051,-0.005,9.157,5.407,-4.843,6
0.986,-0.043,-0.095,0.602,2.925,-2.356,6
0.994,-0.075,-0.040,-6.836,-1.679,-0.180,6
0.990,-0.034,-0.076,-4.916,-6.714,4.103,6
1.002,-0.034,0.015,-2.332,-8.800,1.236,6
1.002,-0.032,-0.006,3.221,-1.859,-1.976,6
0.998,-0.053,-0.017,11.951,3.464,-2.114,6
1.003,-0.049,-0.050,2.173,0.551,-0.975,6
0.990,-0.037,-0.040,-4.287,-1.427,0.891,6
0.993,-0.042,-0.021,-8.094,-6.606,1.478,6
0.990,-0.008,-0.011,3.465,-3.513,0.891,6
0.983,-0.047,-0.040,8.005,-2.506,-2.840,6
0.983,-0.044,-0.042,1.649,-3.153,-0.906,6
1.008,-0.066,0.026,-2.646,-4.916,-0.422,6
1.003,-0.048,-0.025,-3.030,-1.139,2.479,6
0.990,-0.047,-0.039,-2.890,-2.722,1.305,6
0.967,-0.030,-0.063,-1.668,-4.700,0.234,6
0.978,-0.029,-0.065,-1.703,-11.749,-0.836,6
0.962,-0.008,-0.075,-0.027,-12.648,0.062,6
0.927,-0.022,-0.129,1.265,-23.007,-2.287,6
0.941,-0.024,-0.051,6.852,-31.459,-3.358,6
0.951,-0.062,-0.031,-3.065,-32.682,-4.083,6
0.949,-0.040,-0.072,-7.989,-39.551,0.234,6
0.955,-0.026,-0.022,-3.030,-50.161,-1.320,6
0.973,-0.046,0.035,-8.198,-51.672,0.683,6
0.986,-0.008,0.071,-5.579,-55.089,-0.353,6
0.961,0.001,0.125,14.046,-44.694,-8.539,6
0.930,-0.040,-0.059,16.455,-49.082,-12.027,6
0.908,-0.016,-0.074,11.322,-75.589,-14.273,6
0.848,-0.101,-0.168,-18.011,-100.478,-15.585,6
0.782,-0.137,-0.245,-79.505,-150.579,-4.221,6
0.869,0.042,0.424,-40.534,-179.964,7.833,6
0.863,0.063,0.326,-1.983,-112.311,-20.006,6
0.908,-0.179,0.377,1.544,-134.934,-7.744,6
0.953,-0.074,0.573,5.316,-113.462,-2.356,6
0.907,-0.137,0.354,-5.160,-108.678,0.027,6
0.854,-0.103,0.340,-25.344,-120.547,15.294,6
0.847,0.138,0.502,-5.579,-122.346,14.914,6
0.843,0.047,0.526,11.811,-113.894,-7.917,6
0.858,-0.128,0.616,18.481,-111.592,-12.097,6
0.805,-0.146,0.498,2.138,-105.082,-4.083,6
0.729,-0.117,0.319,-27.893,-125.655,5.554,6
0.748,-0.041,0.707,-27.754,-149.392,19.128,6
0.778,0.086,0.859,15.966,-106.233,2.652,6
0.752,-0.103,0.724,19.074,-92.673,1.512,6
0.685,0.008,0.541,4.827,-98.104,1.650,6
0.610,-0.045,0.549,-21.957,-118.677,-1.320,6
0.635,-0.178,0.842,-35.715,-123.101,13.843,6
0.645,0.048,0.846,-11.551,-94.076,15.398,6
0.614,-0.004,0.696,5.874,-93.860,6.832,6
0.566,0.010,0.744,6.573,-103.427,2.134,6
0.553,0.033,0.812,4.582,-101.665,-1.251,6
0.523,-0.005,0.815,-2.437,-108.283,-2.287,6
0.503,-0.026,0.869,-12.040,-112.743,0.718,6
0.501,-0.007,0.922,-11.341,-105.046,0.062,6
0.510,-0.055,1.043,-4.322,-96.342,-0.664,6
0.495,0.004,0.977,1.824,-77.676,-0.215,6
0.489,-0.010,1.063,-6.906,-76.201,1.961,6
0.431,0.041,0.943,-11.935,-58.469,-3.151,6
0.418,-0.036,0.991,-9.490,-60.268,-4.118,6
0.403,-0.032,0.906,-9.455,-53.470,-0.249,6
0.392,0.028,0.960,5.281,-64.044,-2.184,6
0.384,0.004,1.053,4.233,-52.391,-5.050,6
0.353,-0.002,0.980,-2.506,-50.593,-4.014,6
0.353,-0.045,1.011,-8.163,-51.816,-4.947,6
0.352,0.019,1.028,-7.884,-49.010,-2.218,6
0.308,-0.012,0.982,1.579,-37.429,-5.430,6
0.283,0.026,0.862,7.341,-46.673,-8.470,6
0.287,-0.029,0.935,3.360,-51.096,-9.575,6
0.261,-0.069,0.930,-13.262,-50.269,-1.285,6
0.249,0.047,0.913,-23.249,-60.987,2.030,6
0.281,-0.010,1.175,-10.957,-55.808,-4.049,6
0.281,-0.026,1.244,11.008,-15.706,-5.741,6
0.272,-0.059,1.225,10.589,4.112,0.683,6
0.249,0.027,1.058,3.675,17.419,7.833,6
0.236,0.034,0.969,0.986,16.844,3.550,6
0.217,0.004,0.878,-3.310,10.190,1.927,6
0.220,0.017,0.887,-3.275,-0.923,-0.871,6
0.243,0.017,0.983,-1.179,-2.542,-0.802,6
0.256,0.005,0.980,4.233,1.307,-2.667,6
0.254,-0.015,0.969,6.817,0.731,-4.739,6
0.247,-0.024,0.941,3.605,2.601,-1.493,6
0.237,-0.001,0.951,-0.062,0.551,0.580,6
0.241,0.015,0.949,-2.821,-1.715,2.376,6
0.247,-0.006,0.972,-2.122,-1.571,1.512,6
0.249,-0.014,0.985,-1.389,0.120,0.165,6
0.253,0.006,0.980,0.043,2.817,-0.595,6
0.244,0.012,0.979,0.811,3.105,-1.216,6
0.238,0.009,0.982,-0.656,3.285,0.200,6
0.240,0.006,0.950,-1.005,4.759,-0.491,6
0.249,-0.012,0.938,-1.040,2.997,0.787,6
0.255,0.011,0.946,2.452,3.285,0.994,6
0.248,-0.014,0.960,3.081,-0.060,-0.456,6
0.241,0.000,0.960,1.894,0.875,0.752,6
0.241,0.006,0.996,0.462,-1.715,-0.146,6
0.237,-0.009,1.000,-1.389,1.091,-0.664,6
0.260,0.006,0.999,-2.332,-1.247,2.169,6
0.264,-0.031,0.970,-0.481,5.982,2.238,6
0.238,0.015,0.866,0.916,2.098,2.583,6
0.239,0.017,0.962,0.741,-0.636,1.720,6
0.244,-0.004,1.011,-1.703,-1.894,-0.318,6
0.249,0.015,0.965,-1.843,-0.060,-2.045,6
0.263,-0.019,1.019,-1.284,2.781,-0.975,6
0.255,-0.007,0.933,-0.795,3.321,0.442,6
0.252,0.012,0.947,0.846,2.098,2.099,6
0.240,0.027,0.932,1.509,0.875,2.721,6
0.240,0.012,0.957,-0.970,-1.787,0.442,6
0.254,0.013,0.994,-0.341,-1.823,-0.940,6
0.258,-0.008,0.983,-0.691,0.228,-1.147,6
0.251,-0.002,0.972,-0.691,2.673,-1.389,6
0.246,0.003,0.936,-0.271,3.500,0.096,6
0.246,0.007,0.921,-1.389,0.263,0.787,6
0.249,0.013,0.964,-1.144,-2.722,0.476,6
0.249,-0.008,0.982,-0.551,-1.966,0.476,6
0.249,-0.003,0.984,0.636,1.091,0.511,6
0.247,0.013,0.980,-0.691,2.134,1.409,6
0.249,0.016,0.968,-2.227,2.134,0.960,6
0.249,0.012,0.950,-1.389,1.774,0.303,6
-0.062,0.517,-1.297,101.905,415.782,39.921,7
-0.076,0.635,-1.775,124.079,217.716,-46.499,7
0.533,-0.733,-0.472,28.887,96.545,-51.611,7
0.398,-0.119,-0.577,-18.220,103.415,15.777,7
0.500,0.028,-0.620,-49.893,61.118,-1.562,7
0.788,0.019,-0.317,-2.506,44.862,14.672,7
0.983,0.161,-0.221,13.487,14.686,14.845,7
1.075,0.034,-0.070,-9.141,5.227,2.169,7
1.080,-0.012,-0.010,-7.849,13.211,1.961,7
1.092,-0.045,-0.025,-3.030,29.288,-3.392,7
1.145,-0.090,0.109,15.897,24.900,-2.874,7
1.058,-0.028,0.050,28.922,49.214,0.683,7
0.921,-0.087,-0.378,-0.970,32.130,-0.836,7
0.894,-0.097,-0.117,-24.471,1.342,4.897,7
0.929,0.012,-0.087,-10.573,20.117,1.236,7
0.970,-0.048,-0.118,13.697,14.614,-1.389,7
0.997,0.024,-0.058,35.906,15.010,-3.461,7
0.923,-0.027,-0.310,-0.621,13.787,-2.529,7
0.957,-0.058,-0.110,-23.773,-23.618,-0.284,7
1.009,-0.038,0.004,-11.516,-5.060,0.960,7
1.019,0.022,-0.097,3.605,-7.541,-4.809,7
1.009,-0.011,-0.100,13.068,-11.641,-8.021,7
1.017,0.006,0.038,30.354,-11.210,-6.743,7
1.000,-0.045,-0.054,17.678,2.457,-10.059,7
0.979,-0.107,-0.116,-0.760,1.271,-7.744,7
0.958,-0.099,-0.197,-21.328,-2.973,-2.253,7
0.977,-0.034,-0.130,-13.751,-12.469,0.372,7
0.985,-0.044,-0.064,-8.687,-16.821,-2.322,7
1.004,-0.051,0.010,4.932,-5.095,-2.805,7
0.993,-0.093,-0.112,2.802,-2.794,-5.361,7
1.004,-0.058,-0.077,12.439,-4.448,-2.011,7
1.024,-0.084,-0.027,4.094,-4.952,1.271,7
1.010,-0.021,-0.048,4.128,-2.578,1.305,7
0.999,-0.040,-0.036,1.370,-4.340,-1.527,7
0.991,-0.088,-0.039,-6.138,-0.708,-2.943,7
1.000,-0.050,-0.044,2.348,4.364,1.581,7
0.984,-0.043,-0.102,3.430,2.817,-2.391,7
0.986,-0.044,-0.090,4.827,-3.117,-1.458,7
0.974,-0.009,-0.074,4.967,-3.045,-3.496,7
0.973,-0.121,-0.047,2.836,-5.563,-7.019,7
1.000,-0.104,-0.055,-0.795,1.307,2.721,7
0.992,-0.054,-0.085,2.382,-1.643,3.205,7
0.986,-0.042,-0.121,-6.313,-4.088,3.101,7
1.014,-0.024,-0.001,-1.389,-10.922,2.756,7
1.002,-0.047,-0.040,-2.157,1.091,-3.496,7
0.990,-0.099,-0.045,5.281,-0.348,-2.218,7
0.990,-0.066,-0.077,4.338,1.414,-1.769,7
0.987,-0.068,-0.094,1.475,-1.175,-0.318,7
0.991,-0.062,-0.069,-2.262,-7.685,0.787,7
1.007,-0.038,0.005,3.360,-6.103,1.581,7
0.989,-0.061,-0.067,2.592,-0.384,-2.563,7
0.984,-0.076,-0.062,3.675,-2.074,-1.320,7
0.986,-0.063,-0.059,2.313,-2.218,-2.460,7
0.998,-0.076,-0.044,-3.519,-4.592,1.996,7
1.003,-0.054,-0.010,-0.865,-5.060,0.856,7
0.992,-0.060,-0.039,0.392,0.228,2.549,7
0.981,-0.046,-0.064,2.802,-2.578,-1.216,7
0.973,-0.069,-0.074,2.033,-2.398,-2.633,7
1.000,-0.049,-0.028,2.243,-4.268,1.132,7
1.012,-0.017,-0.023,0.532,-4.196,-0.526,7
1.002,-0.087,-0.038,0.287,-1.175,-4.809,7
0.982,-0.076,-0.088,-2.227,-4.232,-1.734,7
0.988,-0.086,-0.021,-2.157,-7.469,-1.493,7
0.987,-0.053,-0.025,7.446,-0.600,-0.629,7
0.996,-0.070,-0.070,2.941,-5.167,-0.733,7
1.005,-0.073,-0.016,-4.706,-9.340,0.856,7
1.009,-0.057,-0.001,-6.243,-7.505,-1.078,7
1.010,-0.088,0.011,-1.878,-1.319,-0.422,7
0.994,-0.053,-0.053,3.221,-1.283,0.822,7
0.976,-0.067,-0.060,4.443,-3.585,1.409,7
1.003,-0.034,0.019,2.836,-8.261,1.305,7
0.995,-0.070,-0.005,-0.306,-1.643,-2.633,7
0.998,-0.074,-0.041,-0.935,-1.715,-1.389,7
0.998,-0.071,-0.025,-0.202,-4.484,-1.078,7
1.001,-0.082,-0.029,-5.998,-4.952,0.718,7
1.009,-0.077,0.002,-7.535,-8.009,1.754,7
1.003,-0.073,0.025,0.427,0.228,2.307,7
0.988,-0.043,-0.031,8.598,1.594,0.096,7
0.983,-0.070,-0.026,4.582,0.120,-0.526,7
0.979,-0.048,-0.048,-0.935,-3.117,0.096,7
0.976,-0.057,-0.034,-6.627,-5.311,-0.733,7
0.981,-0.063,-0.011,-2.437,-7.002,-1.458,7
0.989,-0.068,-0.016,-2.611,-4.700,0.649,7
0.991,-0.074,-0.008,-1.144,-5.455,-0.871,7
0.973,-0.055,-0.045,1.963,-5.599,0.200,7
0.971,-0.070,-0.041,-0.865,-8.836,-1.562,7
0.994,-0.064,0.003,-1.808,-13.080,-0.871,7
1.005,-0.076,0.029,-2.716,-8.620,-1.009,7
0.998,-0.037,0.023,4.373,-10.454,-1.527,7
0.971,-0.049,-0.039,3.011,-7.685,-3.600,7
0.952,-0.079,-0.077,-1.843,-17.612,-6.087,7
0.970,-0.111,-0.002,-9.560,-20.165,-1.734,7
0.983,-0.077,-0.001,-12.913,-23.582,2.825,7
0.941,-0.067,-0.063,-13.716,-24.733,2.099,7
0.915,-0.028,-0.134,-19.827,-43.040,1.961,7
0.939,-0.033,-0.012,-20.141,-60.556,1.340,7
0.940,0.016,-0.016,-14.379,-71.273,-7.192,7
0.924,-0.072,0.019,-21.189,-85.336,-7.641,7
0.919,-0.067,0.104,5.909,-85.013,-10.542,7
0.959,-0.143,0.161,20.157,-75.553,-14.134,7
0.962,-0.098,0.172,7.306,-73.935,-7.157,7
0.969,-0.050,0.148,-5.649,-83.358,-5.016,7
0.964,-0.043,0.236,-7.465,-92.206,-12.891,7
0.936,-0.067,0.205,-11.970,-92.278,-14.549,7
0.878,0.010,0.190,1.335,-98.140,-22.977,7
0.887,-0.159,0.345,14.290,-98.032,-28.123,7
0.888,-0.183,0.295,-1.319,-96.090,-19.212,7
0.907,-0.209,0.464,-25.903,-98.140,-4.843,7
0.890,-0.063,0.462,-25.379,-85.264,-0.664,7
0.834,-0.102,0.317,-31.839,-85.588,-5.396,7
0.819,-0.089,0.353,-39.417,-100.083,-2.702,7
0.866,-0.135,0.654,-12.703,-83.610,-6.432,7
0.858,-0.156,0.513,-5.195,-68.684,-3.289,7
0.851,-0.149,0.504,-14.694,-69.187,-0.491,7
0.825,-0.076,0.502,-32.293,-79.042,5.243,7
0.830,0.006,0.675,-12.948,-76.165,0.062,7
0.823,-0.107,0.692,1.719,-56.599,-12.200,7
0.805,-0.205,0.610,-4.776,-47.068,-0.491,7
0.756,-0.041,0.503,-12.459,-52.103,4.655,7
0.752,-0.070,0.489,-12.703,-65.627,-1.078,7
0.754,-0.057,0.618,-9.490,-74.654,-1.734,7
0.730,-0.078,0.621,-12.040,-73.899,-5.327,7
0.695,-0.044,0.557,-21.328,-81.488,-7.572,7
0.699,-0.014,0.719,-10.049,-89.257,-10.197,7
0.681,-0.075,0.713,-4.078,-78.143,-21.181,7
0.651,-0.130,0.639,-14.240,-82.171,-11.717,7
0.644,-0.131,0.695,-23.912,-94.652,-9.126,7
0.663,-0.125,0.920,-15.811,-84.509,-7.295,7
0.644,-0.112,0.823,-17.068,-69.403,1.029,7
0.600,-0.053,0.737,-19.722,-79.941,2.410,7
0.588,-0.088,0.912,-21.328,-83.682,3.032,7
0.569,-0.037,0.938,-15.078,-63.900,4.586,7
0.543,-0.023,0.778,-10.608,-65.339,-0.595,7
0.531,-0.062,0.854,-12.668,-72.424,-3.461,7
0.498,-0.041,0.805,-24.960,-72.388,0.062,7
0.475,-0.022,0.821,-35.471,-90.911,-1.873,7
0.503,0.006,1.047,-19.687,-73.324,-3.841,7
0.464,-0.063,0.875,-16.928,-61.491,-3.807,7
0.443,-0.005,0.854,-14.484,-58.469,0.372,7
0.445,-0.006,0.960,-8.094,-63.073,-3.289,7
0.426,-0.007,0.926,-11.516,-55.089,-3.151,7
0.397,-0.039,0.947,-18.709,-54.297,-0.975,7
0.382,-0.041,0.911,-24.820,-57.606,3.377,7
0.397,0.015,1.114,-12.703,-44.407,4.794,7
0.372,0.021,0.930,-7.849,-33.976,0.303,7
0.385,0.020,1.072,-2.821,-33.077,-0.836,7
0.359,-0.018,1.040,1.998,-25.812,2.410,7
0.341,0.014,1.033,3.011,-19.986,1.547,7
0.333,-0.001,1.015,-3.240,-18.259,4.448,7
0.335,0.023,1.012,-10.433,-11.677,10.113,7
0.335,0.079,0.943,-14.973,-11.282,8.731,7
0.343,0.046,0.955,-13.821,-11.929,2.825,7
0.332,0.041,0.970,-1.005,-1.715,-3.565,7
0.332,0.018,0.970,8.319,1.846,-5.534,7
0.329,0.009,0.940,3.290,2.421,-2.494,7
0.323,0.023,0.890,-2.541,-1.067,-0.664,7
0.318,0.005,0.918,-4.322,-4.017,0.511,7
0.322,0.008,0.937,-4.532,-4.772,2.169,7
0.323,0.022,0.972,-1.703,-2.866,1.685,7
0.317,0.032,0.989,-0.900,-0.348,0.131,7
0.314,0.035,0.963,-3.065,-1.643,-1.182,7
0.324,0.028,0.939,-7.011,-2.074,-0.664,7
0.324,0.012,0.923,-6.243,-3.441,1.098,7
0.322,0.013,0.934,-3.379,-2.973,2.549,7
0.315,0.019,0.969,-0.306,-0.887,3.205,7
0.306,0.060,0.951,0.636,0.228,3.239,7
0.299,0.047,0.948,0.217,1.414,-0.284,7
0.308,0.029,0.948,-1.214,-0.564,-2.045,7
0.315,0.027,0.946,-0.202,0.263,-2.114,7
0.322,0.015,0.955,1.440,-0.096,-0.560,7
0.324,0.025,0.969,4.198,-0.096,0.165,7
0.311,0.020,0.950,2.522,1.486,0.925,7
0.312,0.032,0.933,-0.970,2.062,1.512,7
0.312,0.036,0.931,-0.795,0.192,1.167,7
0.313,0.036,0.960,1.090,-0.060,-0.491,7
0.317,0.033,0.948,2.732,0.479,-1.078,7
0.314,0.021,0.953,1.789,0.839,-0.698,7
0.316,0.017,0.940,-0.306,-0.959,-0.871,7
0.316,0.019,0.937,-0.237,0.156,0.096,7
0.313,0.039,0.916,0.776,0.048,-0.560,7
0.318,0.029,0.951,1.195,-2.002,0.062,7
0.319,0.047,0.955,0.811,-1.535,-0.042,7
0.315,0.020,0.976,-1.179,-0.132,0.960,7
0.306,0.028,0.950,-0.097,1.091,0.925,7
0.305,0.015,0.909,-0.411,1.522,-0.664,7
0.310,0.032,0.935,1.405,-0.636,-0.007,7
0.322,-0.040,0.958,1.649,-0.744,-1.458,7
0.322,0.024,0.968,1.160,0.335,-0.353,7
0.316,0.025,0.961,1.440,1.127,-1.216,7
0.306,0.019,0.939,0.182,1.594,-0.042,7
0.308,0.031,0.930,-0.586,0.263,-0.456,7
0.314,0.014,0.953,-0.167,0.695,-0.318,7
0.321,0.020,0.940,-0.027,1.342,-0.077,7
0.320,0.033,0.924,1.509,1.163,0.614,7
0.318,0.038,0.945,1.405,-1.031,-0.560,7
0.312,0.040,0.949,1.405,-0.744,0.096,7
0.305,0.034,0.942,1.370,-0.744,-1.355,7
0.311,0.004,0.969,0.182,-1.463,-1.216,7
0.316,-0.005,0.949,0.113,1.486,0.787,7
0.329,0.020,0.930,0.671,0.551,2.203,7
0.483,-0.094,1.261,38.176,2.745,0.614,8
0.446,-0.043,1.559,54.449,23.246,7.039,8
0.413,-0.037,1.974,56.579,66.873,9.422,8
0.539,-0.126,2.689,42.680,133.015,18.299,8
0.565,-0.124,2.701,17.817,248.647,45.551,8
0.443,-0.057,2.498,15.373,318.817,49.558,8
0.315,-0.051,2.172,40.446,392.980,43.859,8
0.186,-0.053,2.067,90.451,470.955,51.078,8
-0.215,-0.611,1.711,59.163,546.844,49.454,8
-0.611,-0.542,1.000,-29.989,617.877,116.601,8
-0.711,0.422,-0.125,-40.185,633.558,114.977,8
-0.552,0.309,-1.419,-13.297,568.783,33.497,8
-0.338,0.864,-3.080,57.312,377.658,-24.842,8
-0.522,-0.736,-0.592,26.373,127.189,-172.364,8
3.462,-2.124,2.776,86.505,312.523,44.377,8
0.196,1.230,-3.877,26.652,44.214,-41.249,8
0.508,0.003,-0.215,22.811,37.237,51.803,8
0.473,0.427,-1.054,-109.397,-106.772,15.639,8
0.916,0.372,0.427,-7.081,-124.612,30.872,8
1.080,-0.104,0.164,-24.087,-63.613,-23.978,8
1.223,-0.044,0.208,-4.776,-62.282,-0.526,8
1.198,-0.025,0.193,2.906,-29.589,-39.107,8
1.178,-0.316,-0.098,-8.478,5.443,-23.909,8
1.231,-0.183,-0.108,-9.944,4.292,-2.114,8
1.207,-0.158,0.038,9.436,16.988,3.896,8
1.141,0.045,-0.104,21.728,17.204,14.603,8
1.050,0.140,-0.084,10.240,10.190,-6.985,8
0.965,-0.004,-0.127,22.217,20.405,-12.304,8
0.918,-0.076,-0.245,19.528,18.930,-10.888,8
0.895,-0.166,-0.246,-18.744,7.421,7.073,8
0.938,0.055,-0.025,6.852,14.362,12.807,8
0.941,0.017,-0.191,17.154,15.333,-2.184,8
0.991,-0.009,-0.188,3.779,-6.174,-8.090,8
0.974,-0.141,-0.255,-16.649,-10.706,-4.152,8
0.973,-0.091,-0.142,-9.351,-25.884,13.532,8
0.962,0.003,-0.134,1.300,-8.261,12.911,8
0.977,0.024,-0.113,13.662,-4.268,4.379,8
1.014,0.033,-0.051,23.579,-0.816,-2.736,8
1.006,-0.009,-0.150,21.100,5.694,-13.616,8
1.009,-0.153,-0.134,16.735,3.644,-9.506,8
1.009,-0.029,-0.192,14.430,-1.391,1.478,8
0.988,-0.027,-0.162,1.929,-8.620,3.585,8
0.985,0.056,-0.098,10.624,-14.015,2.825,8
0.981,0.026,-0.083,6.119,-8.117,-4.325,8
0.966,0.001,-0.131,10.100,-6.318,-10.300,8
0.963,-0.087,-0.167,10.693,-4.484,-11.509,8
0.963,-0.100,-0.174,-0.376,-12.001,-0.422,8
0.962,-0.002,-0.131,-0.481,-13.332,7.868,8
0.972,0.013,-0.070,-4.916,-14.015,-1.216,8
0.996,-0.034,-0.044,-5.090,-7.469,-2.909,8
1.012,-0.012,-0.111,-2.506,-5.275,-5.534,8
1.011,-0.102,-0.131,-1.040,-9.879,-4.912,8
1.001,-0.040,-0.127,-1.110,-20.345,3.032,8
1.001,-0.017,-0.013,-1.389,-18.223,1.823,8
0.986,0.003,-0.044,4.757,-12.864,-0.422,8
0.991,-0.021,-0.074,-0.376,-9.519,-1.769,8
0.971,-0.044,-0.132,-8.129,-10.023,1.616,8
0.970,-0.006,-0.109,-14.205,-21.280,5.484,8
0.988,0.084,-0.029,-5.544,-23.115,-0.007,8
1.019,0.020,-0.030,-12.005,-14.375,-8.055,8
1.035,-0.088,0.004,-8.932,-9.447,-8.297,8
1.019,-0.068,-0.064,-6.592,-5.131,-2.633,8
0.996,-0.074,-0.082,-13.122,-10.490,-0.871,8
0.965,-0.067,-0.038,-10.363,-17.180,0.649,8
0.964,0.026,-0.019,-0.691,-10.095,-1.769,8
0.983,-0.026,-0.047,-5.056,-11.030,-6.397,8
0.995,-0.042,-0.037,-9.421,-18.978,-8.090,8
0.967,-0.078,-0.098,-12.738,-13.440,-6.363,8
0.974,-0.082,-0.064,-12.808,-25.057,-1.251,8
0.937,-0.081,-0.115,-18.744,-26.675,0.269,8
0.970,-0.082,0.010,-16.579,-37.141,2.376,8
0.974,-0.110,-0.039,-10.294,-26.459,2.099,8
1.002,-0.106,-0.054,-3.973,-35.991,8.559,8
1.021,-0.019,0.029,-0.970,-28.330,7.315,8
1.021,-0.032,-0.054,-6.941,-38.364,2.618,8
1.035,0.032,0.152,-21.468,-48.363,6.382,8
1.018,0.052,0.178,-11.935,-39.803,-1.216,8
0.989,-0.134,0.100,-9.002,-24.086,-3.289,8
0.979,-0.017,0.056,-16.370,-26.531,6.348,8
0.968,0.009,-0.000,-23.843,-39.947,3.412,8
0.970,0.060,0.178,-10.678,-62.066,3.861,8
0.945,0.011,0.179,-4.706,-41.457,-10.473,8
0.954,-0.059,0.090,-6.068,-35.379,-12.166,8
0.974,-0.129,0.001,-18.116,-43.759,-6.950,8
0.978,-0.028,0.165,-15.078,-52.715,6.762,8
0.961,0.018,0.127,-4.706,-50.305,2.549,8
0.957,0.014,0.147,-9.805,-56.527,1.547,8
0.957,-0.008,0.248,-7.744,-49.910,-1.665,8
0.947,-0.027,0.190,-8.268,-42.321,-5.948,8
0.943,-0.042,0.187,-13.471,-51.564,-10.473,8
0.944,-0.059,0.170,-23.179,-59.872,-3.047,8
0.941,-0.117,0.274,-32.887,-71.561,2.307,8
0.930,0.037,0.406,-13.297,-55.988,2.030,8
0.898,-0.118,0.219,-11.202,-44.407,-2.805,8
0.928,-0.007,0.246,-10.852,-50.737,-2.391,8
0.927,-0.045,0.184,-17.033,-74.582,-5.810,8
0.914,-0.029,0.405,-16.824,-71.453,2.445,8
0.823,-0.061,0.421,-15.916,-68.432,-1.355,8
0.906,0.004,0.561,-11.516,-65.195,-2.391,8
0.885,0.016,0.455,-5.510,-42.536,-8.366,8
0.893,-0.015,0.367,-10.014,-56.096,-8.884,8
0.875,-0.036,0.374,-16.370,-75.518,-5.396,8
0.847,-0.091,0.463,-16.998,-76.273,-2.356,8
0.850,-0.071,0.522,-14.205,-71.094,4.794,8
0.876,-0.040,0.587,-7.395,-53.218,2.410,8
0.861,-0.028,0.417,-15.008,-53.111,3.550,8
0.835,0.091,0.418,-19.547,-78.179,-0.560,8
0.834,0.078,0.635,-11.830,-82.891,-7.157,8
0.844,-0.059,0.690,-11.935,-74.582,-3.980,8
0.817,0.022,0.706,-4.881,-51.492,4.552,8
0.748,0.095,0.574,-2.786,-43.220,-3.703,8
0.763,0.069,0.722,-5.894,-45.450,-11.475,8
0.767,-0.059,0.462,-7.256,-41.853,-11.717,8
0.765,-0.036,0.482,-9.246,-63.793,-5.707,8
0.723,-0.066,0.541,-15.567,-82.207,4.586,8
0.737,0.058,0.794,-10.084,-79.941,8.697,8
0.742,0.040,0.833,-0.586,-60.052,-0.042,8
0.722,-0.015,0.702,-7.325,-56.312,-7.054,8
0.713,-0.092,0.665,-14.833,-50.017,-4.083,8
0.681,0.009,0.674,-8.129,-60.556,3.447,8
0.641,0.064,0.609,3.814,-66.922,-0.456,8
0.639,-0.024,0.785,14.046,-51.744,-7.814,8
0.627,-0.018,0.691,10.624,-39.335,-6.846,8
0.600,0.049,0.602,-0.027,-49.802,-3.116,8
0.594,-0.107,0.760,-7.675,-71.381,-1.907,8
0.595,-0.038,0.893,-5.684,-70.518,11.080,8
0.559,0.060,0.718,8.982,-60.915,6.728,8
0.553,0.001,0.725,14.220,-64.440,-0.767,8
0.569,0.004,0.900,5.595,-71.705,0.338,8
0.564,0.054,0.907,2.732,-61.742,0.131,8
0.539,-0.064,0.919,-0.586,-56.347,-1.458,8
0.522,0.055,0.809,-1.668,-52.211,-1.389,8
0.514,-0.006,0.847,-4.322,-66.130,-4.152,8
0.529,0.012,0.848,-2.856,-66.310,-1.113,8
0.501,-0.016,0.954,-6.941,-59.908,-0.595,8
0.475,-0.129,1.098,-13.401,-49.694,-0.007,8
0.425,-0.022,0.900,-10.608,-34.120,5.588,8
0.412,-0.079,0.780,-2.506,-50.305,6.210,8
0.411,0.022,0.785,-4.776,-63.397,10.769,8
0.404,0.092,0.940,0.811,-56.419,9.146,8
0.405,0.068,0.953,-4.602,-41.889,5.657,8
0.380,0.036,1.046,-13.192,-35.883,2.894,8
0.365,-0.027,0.991,-11.586,-34.840,1.858,8
0.388,0.016,1.050,-6.313,-35.739,6.901,8
0.390,0.045,1.060,2.382,-25.237,8.938,8
0.357,0.065,0.947,4.827,-18.259,5.381,8
0.343,0.042,0.903,1.859,-20.022,-0.284,8
0.326,0.027,0.843,-8.722,-27.071,-0.664,8
0.314,-0.044,0.845,-3.763,-30.775,-3.116,8
0.341,-0.030,0.929,2.033,-31.459,-2.702,8
0.318,0.025,0.969,1.475,-30.344,1.132,8
0.276,0.075,0.987,-4.252,-32.538,3.827,8
0.265,0.100,1.047,-12.494,-29.553,5.174,8
0.256,0.125,1.012,-15.916,-24.337,1.892,8
0.276,0.009,1.037,-13.646,-19.986,4.448,8
0.241,-0.015,0.907,-11.306,-8.872,13.256,8
0.195,-0.027,0.739,-2.576,-10.203,24.585,8
0.203,-0.032,0.811,5.106,-23.870,27.936,8
0.246,0.011,0.887,20.611,-18.547,30.526,8
0.262,0.051,1.018,23.823,-18.223,31.631,8
0.275,-0.060,1.130,15.652,-8.836,32.564,8
0.222,0.004,0.927,9.786,-4.880,39.368,8
0.239,0.043,0.996,2.871,-23.294,40.232,8
0.253,0.057,0.979,1.754,-27.503,40.163,8
0.269,0.184,1.000,16.071,-25.093,29.801,8
0.281,0.075,1.075,23.963,-13.584,16.019,8
0.256,0.081,0.947,17.608,-9.304,8.973,8
0.219,0.040,0.924,13.138,-12.469,4.828,8
0.194,0.071,0.925,4.687,-17.612,2.514,8
0.191,0.044,1.032,2.033,-16.677,2.134,8
0.198,-0.007,1.055,4.303,-7.577,4.448,8
0.188,0.058,0.942,6.713,-5.563,8.835,8
0.205,0.105,1.004,6.852,-5.743,5.864,8
0.198,0.056,0.972,4.897,-4.556,-2.356,8
0.199,-0.016,0.914,-4.567,-11.426,-3.634,8
0.171,-0.043,0.905,-3.379,-19.158,-1.251,8
0.171,0.013,0.947,3.395,-15.885,0.442,8
0.169,0.076,1.007,9.786,-10.023,-1.734,8
0.166,0.035,1.128,12.579,-7.038,-6.708,8
0.159,0.011,0.976,1.963,-15.346,-7.641,8
0.148,0.017,0.998,-7.256,-13.799,2.998,8
0.199,0.018,1.008,-5.090,-3.441,6.762,8
0.204,0.057,0.912,1.894,1.810,1.892,8
0.195,0.000,0.895,7.132,-2.650,-7.054,8
0.174,-0.001,0.985,-0.132,-4.376,-8.746,8
0.164,-0.075,0.952,-4.951,-8.836,-3.634,8
0.176,-0.061,1.036,-2.646,-6.570,4.655,8
0.139,0.037,1.027,0.462,2.314,8.559,8
0.099,0.142,0.977,-2.367,-0.132,4.310,8
0.098,0.081,1.017,-6.767,-5.167,-3.012,8
0.142,0.017,0.997,-6.662,-2.362,-6.087,8
0.179,-0.032,0.949,-1.633,1.882,-5.258,8
0.193,0.000,1.003,0.008,2.565,-2.494,8
0.162,0.043,0.979,-2.471,1.450,-2.184,8
0.151,0.065,0.994,-6.278,-2.362,-5.223,8
0.146,-0.021,1.007,-7.465,-2.938,-6.605,8
0.153,-0.011,0.971,-9.176,-0.096,-3.911,8
0.155,0.062,0.980,-8.443,-2.578,-1.527,8
0.134,0.074,0.978,-4.148,-3.693,-1.458,8
0.136,0.056,0.970,-3.240,-4.988,-1.942,8
0.298,0.015,1.360,23.858,16.520,13.152,9
0.362,0.126,2.038,40.061,38.352,17.574,9
0.322,0.127,2.790,45.265,111.327,20.889,9
0.255,0.154,2.911,37.303,226.707,27.832,9
0.370,-0.053,2.365,43.833,335.290,27.970,9
0.025,-0.028,1.980,40.585,406.395,9.906,9
-0.068,-0.028,1.904,47.779,486.888,18.713,9
-0.255,-0.127,1.193,3.360,560.691,6.728,9
-0.419,-0.229,0.509,-51.604,566.229,15.363,9
-0.503,-0.156,-0.019,-75.699,537.492,27.210,9
-0.462,-0.027,-0.179,-20.909,528.213,36.743,9
-0.169,0.064,-0.890,21.554,480.342,34.084,9
-0.176,0.473,-2.304,60.001,345.612,20.889,9
0.380,-0.289,-0.827,24.452,112.838,-41.698,9
0.814,-0.338,0.205,-14.868,93.236,22.686,9
0.809,0.129,-0.016,16.351,131.145,12.703,9
0.724,-0.054,-0.282,45.020,117.909,-13.064,9
0.696,-0.140,-0.644,-0.202,106.976,8.248,9
0.898,0.209,-0.317,-2.297,29.720,36.778,9
0.931,0.399,-0.063,56.753,34.431,0.545,9
0.892,-0.038,-0.439,24.976,28.569,-23.426,9
1.008,-0.142,-0.256,12.090,-44.838,19.542,9
1.047,0.144,0.058,3.919,-45.378,25.725,9
1.011,0.087,-0.105,1.998,-2.830,5.864,9
1.032,0.053,-0.168,7.097,-13.188,11.805,9
1.033,0.198,0.044,35.557,-26.999,11.425,9
0.948,0.142,-0.045,33.461,-9.699,-11.717,9
1.018,-0.086,-0.091,-23.458,-19.302,-15.240,9
1.014,-0.029,-0.077,-27.230,-19.014,3.930,9
1.040,0.021,-0.118,-27.090,-14.411,14.396,9
1.024,0.169,-0.054,4.059,-23.906,6.659,9
0.983,0.100,-0.031,2.417,-20.849,-7.157,9
0.982,0.014,-0.031,-5.789,-12.505,-2.840,9
0.987,0.045,-0.048,-6.487,-12.397,-3.876,9
1.002,0.040,0.041,4.373,-8.620,-1.527,9
1.005,0.108,-0.040,1.894,-4.196,-8.470,9
0.986,0.047,-0.000,13.627,-7.253,-10.922,9
0.981,0.031,-0.050,0.357,-4.088,-7.054,9
0.994,0.035,-0.120,-6.802,-4.880,-1.873,9
1.000,0.052,-0.055,-9.944,-16.281,-2.218,9
0.994,0.084,-0.022,-0.830,-12.433,0.096,9
0.983,0.030,-0.075,2.836,-8.620,-9.541,9
0.966,-0.028,-0.117,-7.535,-15.957,-11.371,9
0.984,-0.069,-0.012,-32.014,-24.913,4.759,9
1.009,0.184,0.065,-19.373,-25.057,6.486,9
0.979,0.074,0.055,-16.405,-12.001,-13.375,9
0.987,0.061,-0.025,-3.519,-8.189,-16.310,9
1.009,-0.039,0.011,-8.233,-9.447,-15.654,9
1.026,-0.092,0.038,-21.363,-7.002,-3.358,9
1.041,-0.030,-0.021,-23.493,-9.340,2.030,9
1.037,0.062,0.070,-8.478,-14.231,4.414,9
1.003,0.040,0.048,6.608,-3.585,-7.192,9
0.999,0.019,0.033,6.852,-2.290,-4.981,9
1.002,-0.020,-0.015,1.230,0.335,-6.916,9
0.996,-0.012,-0.010,-3.170,-6.318,-4.083,9
0.999,0.002,0.003,-10.398,-6.750,1.581,9
0.993,0.030,0.039,-9.211,-11.246,1.754,9
0.999,0.078,0.099,5.490,-7.397,-0.664,9
0.994,0.025,0.035,5.211,2.925,-6.156,9
0.993,0.017,-0.033,6.294,-2.650,-12.649,9
1.002,-0.064,0.002,-2.192,-5.707,-5.983,9
1.006,0.027,0.002,-5.579,-8.261,-0.077,9
0.992,0.025,0.077,6.817,-8.800,-2.011,9
0.986,-0.028,0.065,8.040,-0.923,-6.121,9
0.991,0.011,0.017,9.681,-3.009,-4.532,9
0.985,-0.019,-0.012,7.516,-3.909,-8.504,9
0.994,-0.041,0.046,2.313,-9.807,-6.087,9
0.994,-0.044,0.046,2.557,-7.721,-6.190,9
0.993,-0.009,0.078,8.843,-5.887,3.274,9
0.976,0.010,0.034,8.284,-4.736,2.410,9
0.978,0.012,0.035,3.779,-8.296,0.580,9
0.984,0.022,0.029,0.008,-7.901,-0.456,9
0.987,0.028,0.058,5.386,-10.203,-5.568,9
0.988,-0.000,0.024,0.951,-8.081,-3.772,9
0.992,-0.024,0.015,-7.535,-15.274,-1.285,9
0.994,-0.023,0.075,-4.636,-17.288,-1.527,9
0.994,0.024,0.101,6.503,-13.008,-1.976,9
0.982,0.015,0.054,8.074,-10.167,-7.986,9
0.971,-0.051,0.036,2.662,-15.238,-9.437,9
0.969,-0.051,0.062,4.548,-19.158,-4.636,9
0.974,-0.032,0.103,-0.446,-20.777,1.132,9
0.969,0.018,0.053,-2.227,-20.633,3.205,9
0.957,0.005,0.028,0.741,-27.862,-0.802,9
0.953,-0.023,0.052,-0.097,-35.019,-2.460,9
0.954,-0.004,0.142,3.116,-37.465,-2.840,9
0.950,-0.026,0.152,4.128,-34.300,0.994,9
0.954,-0.007,0.151,-0.586,-30.488,1.961,9
0.954,0.035,0.075,-10.922,-38.184,2.825,9
0.968,0.014,0.176,-6.697,-46.097,-3.185,9
0.957,0.000,0.167,1.475,-39.335,-5.327,9
0.969,-0.065,0.148,-3.763,-45.665,-2.633,9
0.974,-0.051,0.169,-18.640,-56.815,2.203,9
0.984,0.038,0.367,-7.500,-56.240,5.623,9
0.943,-0.045,0.205,-3.030,-35.451,-4.152,9
0.939,0.001,0.231,11.951,-43.400,-1.942,9
0.920,-0.023,0.197,3.675,-43.364,-0.940,9
0.918,-0.003,0.145,-12.563,-56.096,0.614,9
0.917,0.030,0.284,-9.979,-70.446,3.550,9
0.908,-0.018,0.302,-3.275,-62.498,-4.705,9
0.915,-0.069,0.296,-5.195,-63.828,-1.389,9
0.927,-0.016,0.258,-19.897,-74.690,5.588,9
0.944,0.067,0.479,-2.332,-84.545,7.350,9
0.937,0.106,0.536,33.427,-66.814,-12.926,9
0.918,-0.129,0.464,31.227,-53.398,-20.352,9
0.933,-0.074,0.413,13.068,-52.032,-10.439,9
0.904,-0.133,0.398,-7.989,-57.894,-0.077,9
0.876,-0.044,0.410,-21.538,-70.518,12.531,9
0.847,0.105,0.578,5.595,-71.094,11.736,9
0.801,0.045,0.513,20.192,-58.038,-6.501,9
0.802,-0.022,0.540,12.754,-52.211,-7.537,9
0.813,-0.042,0.442,0.427,-53.938,-8.332,9
0.822,-0.054,0.428,-21.782,-63.217,4.794,9
0.818,0.020,0.593,-12.913,-74.618,8.524,9
0.846,0.119,0.785,11.636,-66.490,-3.841,9
0.874,-0.097,0.814,18.236,-40.990,-14.411,9
0.875,-0.098,0.605,8.005,-30.919,-9.057,9
0.826,-0.047,0.509,-6.487,-47.032,-5.361,9
0.765,-0.046,0.545,-24.646,-65.807,1.305,9
0.763,0.041,0.738,-3.554,-58.541,-1.355,9
0.731,-0.032,0.664,-1.040,-47.644,-3.841,9
0.745,-0.000,0.627,6.573,-42.680,-5.741,9
0.769,-0.070,0.635,0.706,-48.759,-5.914,9
0.754,-0.043,0.551,-10.014,-59.369,-1.424,9
0.742,-0.063,0.690,-21.119,-66.778,3.896,9
0.721,0.015,0.793,-23.843,-65.771,4.034,9
0.690,0.070,0.783,-12.738,-43.184,-4.532,9
0.679,-0.018,0.785,-9.735,-39.623,-10.266,9
0.695,-0.011,0.824,-16.160,-35.343,-5.085,9
0.653,0.037,0.701,-17.278,-32.106,-0.698,9
0.635,0.020,0.694,-13.087,-40.702,0.096,9
0.582,0.035,0.666,-16.335,-45.989,-2.874,9
0.589,-0.091,0.706,-23.668,-54.621,-7.192,9
0.617,-0.088,0.794,-27.893,-64.224,-1.078,9
0.619,0.012,0.738,-20.420,-58.649,4.621,9
0.628,0.059,0.830,-14.903,-58.829,2.652,9
0.625,0.052,0.890,-6.313,-38.652,-3.772,9
0.592,0.006,0.872,0.392,-36.890,-5.534,9
0.553,0.067,0.743,-7.360,-39.479,-5.292,9
0.545,0.052,0.807,-12.773,-54.477,-6.985,9
0.524,0.025,0.822,-7.605,-52.787,-4.670,9
0.454,0.091,0.756,-3.589,-55.484,-4.325,9
0.443,-0.034,0.896,2.487,-57.319,-11.129,9
0.456,-0.038,0.894,-0.795,-53.398,-3.289,9
0.494,0.009,0.918,-1.494,-52.211,1.409,9
0.509,0.054,0.921,-0.795,-50.233,3.757,9
0.498,0.059,0.876,-6.627,-53.254,-0.353,9
0.503,-0.010,0.988,-4.706,-43.831,0.303,9
0.495,0.035,0.979,3.255,-30.991,1.996,9
0.446,0.059,0.930,3.954,-25.560,-1.734,9
0.391,0.125,0.837,3.919,-27.610,-6.777,9
0.365,0.069,0.794,-1.668,-47.716,-13.858,9
0.364,-0.001,0.884,-10.852,-55.125,-9.782,9
0.371,-0.068,0.977,-9.770,-44.335,-0.733,9
0.351,0.017,0.901,-2.367,-28.617,4.794,9
0.366,0.020,0.918,-0.271,-31.279,6.521,9
0.380,0.009,0.954,-7.954,-40.163,2.341,9
0.399,0.022,0.992,-16.579,-34.732,3.170,9
0.386,0.066,1.061,-12.808,-23.654,2.790,9
0.346,0.120,1.016,-4.986,-16.101,-1.804,9
0.321,0.094,1.011,-2.541,-15.094,-5.050,9
0.306,0.114,0.953,-1.703,-10.490,-5.327,9
0.284,0.023,0.880,-3.170,-21.208,-9.022,9
0.276,0.041,0.858,-7.954,-32.322,-9.644,9
0.282,-0.015,0.954,-6.941,-33.149,-3.945,9
0.306,0.023,0.990,-4.776,-31.567,-0.491,9
0.326,-0.013,1.072,-1.005,-23.654,0.649,9
0.314,-0.012,1.064,1.719,-11.390,2.825,9
0.281,0.076,1.019,-2.402,-1.966,6.659,9
0.256,0.115,1.030,-4.811,0.911,6.452,9
0.257,0.101,0.988,-3.170,3.860,3.205,9
0.270,0.112,0.969,-3.519,5.658,2.307,9
0.282,0.101,0.922,-3.100,4.615,-0.526,9
0.280,0.063,0.880,-0.376,0.299,-3.427,9
0.275,0.027,0.921,0.252,-2.973,-2.425,9
0.280,-0.003,0.961,1.300,-2.794,-1.216,9
0.285,0.003,0.966,-0.411,-1.607,0.027,9
0.297,0.052,0.963,-3.379,-1.823,0.822,9
0.283,0.092,0.911,-0.551,-2.794,0.442,9
0.268,0.111,0.919,-0.446,-10.526,-1.596,9
0.264,0.109,0.971,0.182,-14.231,-2.943,9
0.263,0.072,1.017,-0.097,-9.124,-1.734,9
0.262,0.085,1.041,0.182,-0.672,0.442,9
0.257,0.063,0.976,2.906,6.270,0.338,9
0.257,0.071,0.885,2.348,-0.492,-0.940,9
0.248,0.034,0.886,3.255,-7.901,-2.771,9
0.254,0.005,0.945,1.195,-11.390,-3.427,9
0.267,-0.011,0.987,-2.297,-7.829,-0.629,9
0.276,0.012,1.033,-2.017,-3.333,2.203,9
0.274,0.058,1.024,-1.424,3.393,5.243,9
0.257,0.105,0.924,-1.703,5.587,4.759,9
0.253,0.130,0.889,-3.484,-3.081,1.409,9
0.257,0.128,0.953,-2.437,-5.851,-0.491,9
0.252,0.115,0.973,-0.586,-5.923,-1.734,9
0.250,0.075,1.022,1.998,-2.362,-3.082,9
0.241,0.046,0.996,1.405,3.393,-2.425,9
0.245,0.018,0.935,1.055,2.314,-2.598,9
0.252,-0.007,0.909,-0.376,-1.607,-0.249,9
0.262,0.020,0.915,-1.214,-4.520,2.825,9
0.269,0.034,0.976,-0.237,-4.844,4.241,9
0.265,0.086,0.976,-1.110,-2.758,3.170,9
0.268,0.191,1.170,8.040,-2.902,-5.465,10
0.278,0.162,1.273,8.040,10.622,-2.287,10
0.325,0.182,1.453,12.265,27.526,5.381,10
0.319,0.030,1.743,23.684,52.343,13.152,10
0.289,-0.085,2.329,38.769,116.039,9.802,10
0.310,-0.040,2.835,44.357,218.075,35.500,10
0.243,0.381,2.968,59.617,378.377,18.679,10
-0.062,0.017,2.592,60.001,551.735,30.561,10
-0.328,0.261,1.452,39.642,628.991,44.480,10
-0.445,0.274,0.968,57.975,616.007,9.249,10
-0.575,0.055,0.827,25.744,637.227,-13.616,10
-0.544,-0.492,-0.121,-19.966,667.115,-17.450,10
-0.502,-0.471,-2.421,-105.032,610.288,59.160,10
0.109,0.483,-2.170,24.941,168.082,4.794,10
0.425,-0.100,0.139,135.743,131.576,-53.372,10
0.530,0.237,-0.628,76.134,142.366,-49.055,10
0.761,-0.410,-0.397,17.817,19.074,-51.956,10
0.894,-0.106,-0.260,-1.878,53.206,30.941,10
0.984,0.317,-0.511,8.354,13.211,11.564,10
1.038,-0.060,0.016,35.487,-0.384,-10.577,10
1.060,-0.024,-0.131,39.607,36.913,6.037,10
1.022,-0.036,-0.294,19.703,25.800,-5.948,10
0.992,-0.099,-0.375,-37.112,-10.742,8.524,10
0.961,0.135,-0.133,-22.970,-35.091,4.448,10
1.004,-0.039,0.057,-18.535,-29.984,-3.945,10
1.009,-0.031,0.044,-3.379,6.522,1.340,10
0.985,0.001,-0.202,7.271,6.162,-5.568,10
0.969,-0.103,-0.179,-4.183,-2.614,-5.810,10
0.994,0.038,-0.155,-8.163,-16.821,2.687,10
0.991,0.055,-0.008,-1.703,-11.210,-5.292,10
0.972,-0.029,-0.094,5.630,-2.398,-12.373,10
0.978,-0.104,-0.132,3.675,-1.067,-9.644,10
0.984,-0.089,-0.171,2.662,-3.729,-6.190,10
1.005,-0.053,-0.119,5.421,-12.612,2.238,10
0.987,0.017,-0.095,8.074,-13.512,0.752,10
0.995,-0.044,-0.036,-2.122,-11.569,1.340,10
0.994,-0.037,-0.069,4.094,-1.499,-1.562,10
0.995,-0.073,-0.104,5.560,1.235,0.994,10
0.996,0.019,-0.152,4.408,-5.275,2.065,10
0.999,-0.001,-0.076,6.957,-11.821,-5.292,10
0.987,-0.108,-0.054,-0.725,-5.887,-2.356,10
0.995,-0.043,-0.080,-6.417,-4.844,5.623,10
0.999,-0.024,-0.091,-8.338,-5.383,4.552,10
1.018,-0.010,-0.064,-1.214,-7.937,3.274,10
1.000,-0.020,-0.062,1.544,-5.923,-1.493,10
0.989,0.017,-0.079,-3.729,-8.332,-0.180,10
0.984,-0.020,-0.031,-2.157,-5.239,-3.012,10
0.971,-0.085,-0.126,-11.097,-3.513,-2.322,10
0.988,-0.006,-0.067,2.697,-7.146,1.132,10
0.988,-0.018,-0.111,1.300,-6.390,-4.118,10
0.998,-0.056,-0.056,-5.579,-14.159,1.720,10
1.008,-0.030,-0.012,-1.738,-12.576,1.581,10
0.995,-0.018,-0.067,1.649,-6.894,1.063,10
0.987,-0.060,-0.082,-0.516,-10.419,-1.804,10
0.972,-0.043,-0.097,-2.681,-10.922,0.580,10
0.976,-0.039,-0.092,-6.103,-14.663,0.442,10
0.975,-0.048,-0.067,-6.243,-19.806,-0.733,10
0.976,-0.014,-0.048,0.182,-23.223,0.476,10
0.965,-0.052,-0.102,1.440,-26.711,-5.085,10
0.963,-0.078,-0.124,-14.694,-38.328,1.374,10
0.955,-0.045,-0.134,-48.357,-56.671,5.001,10
0.989,0.038,0.205,-16.684,-56.024,4.241,10
0.982,-0.009,0.094,-1.179,-31.351,-3.876,10
0.994,-0.042,0.023,-0.376,-28.761,-5.983,10
0.994,-0.062,-0.006,1.265,-34.552,-3.945,10
0.986,-0.035,0.002,-6.452,-43.256,1.754,10
0.993,-0.054,0.142,-5.475,-42.429,1.754,10
0.993,0.043,0.157,-2.227,-29.445,1.271,10
0.987,-0.023,0.038,-5.160,-26.639,-6.950,10
0.986,-0.085,0.113,-9.735,-35.127,-4.739,10
0.995,-0.019,0.105,-7.430,-30.308,3.101,10
0.985,-0.032,0.109,-5.300,-35.271,3.654,10
0.970,-0.023,0.111,-8.338,-34.840,-1.458,10
0.970,-0.019,0.165,-9.525,-37.861,-6.328,10
0.990,-0.081,0.226,-2.227,-34.264,-3.669,10
0.978,-0.025,0.102,2.906,-31.315,-1.285,10
0.965,-0.050,0.092,-1.983,-43.831,-1.113,10
0.951,-0.057,0.161,-3.240,-53.218,-1.113,10
0.951,-0.112,0.257,-12.668,-47.464,-0.422,10
0.965,-0.048,0.236,-23.808,-42.393,8.144,10
0.972,0.005,0.264,-8.408,-41.817,5.243,10
0.938,0.001,0.151,0.287,-38.400,-4.221,10
0.931,-0.056,0.231,-4.497,-48.183,-6.708,10
0.941,-0.038,0.222,-10.503,-51.960,-2.874,10
0.929,0.003,0.273,-8.478,-55.520,-7.744,10
0.928,-0.057,0.354,-1.110,-52.211,-6.363,10
0.907,-0.042,0.282,-6.802,-53.182,-4.325,10
0.925,-0.089,0.333,-16.789,-58.074,-2.909,10
0.921,-0.054,0.343,-16.579,-57.822,4.137,10
0.916,0.042,0.396,2.068,-50.629,2.825,10
0.910,-0.049,0.402,-1.424,-51.348,-0.077,10
0.898,-0.094,0.328,-13.262,-63.541,2.272,10
0.892,-0.026,0.441,-4.217,-69.511,6.693,10
0.854,-0.026,0.373,1.265,-63.433,2.583,10
0.869,-0.086,0.475,-8.792,-64.764,9.215,10
0.870,0.024,0.510,-10.189,-64.296,10.769,10
0.844,0.006,0.415,-8.862,-69.619,-0.353,10
0.832,-0.074,0.470,-9.595,-77.891,-0.353,10
0.801,-0.077,0.381,-13.436,-77.352,9.906,10
0.783,-0.013,0.412,-27.370,-110.297,18.195,10
0.748,0.037,0.519,-27.789,-120.835,14.327,10
0.736,0.073,0.589,-22.516,-106.988,6.106,10
0.755,0.024,0.694,-17.592,-108.175,7.073,10
0.789,0.046,0.866,2.313,-81.380,6.555,10
0.754,0.080,0.725,1.614,-66.778,1.236,10
0.720,-0.062,0.768,-3.030,-64.728,0.787,10
0.710,-0.010,0.759,-2.506,-62.426,9.077,10
0.681,0.081,0.691,-2.122,-68.900,9.664,10
0.699,0.160,0.885,9.192,-61.023,4.379,10
0.704,-0.027,0.876,9.925,-47.500,-2.425,10
0.680,0.019,0.743,4.478,-40.918,4.068,10
0.644,0.011,0.706,2.033,-46.673,3.654,10
0.626,0.047,0.729,-2.786,-53.650,8.524,10
0.619,0.045,0.825,4.548,-51.600,3.930,10
0.616,0.015,0.853,4.862,-44.299,2.963,10
0.625,0.052,0.811,-3.624,-37.070,3.585,10
0.618,0.062,0.804,-4.671,-37.969,1.547,10
0.600,0.040,0.815,-7.640,-38.832,3.032,10
0.593,0.046,0.814,-3.030,-36.854,6.728,10
0.562,0.066,0.768,3.325,-41.385,3.067,10
0.549,0.048,0.865,3.116,-40.307,-0.560,10
0.546,0.044,0.876,-1.389,-33.509,-1.493,10
0.531,0.038,0.797,-7.884,-34.732,-1.113,10
0.529,0.003,0.800,-9.840,-40.918,2.065,10
0.509,0.014,0.767,-12.109,-52.967,4.794,10
0.505,0.081,0.856,-15.043,-66.742,7.833,10
0.515,0.033,1.020,-6.976,-48.147,5.139,10
0.513,0.069,0.957,-4.252,-25.524,6.003,10
0.499,0.069,0.897,-5.859,-17.288,4.206,10
0.473,0.079,0.879,-6.452,-21.712,3.308,10
0.445,0.072,0.799,-1.983,-27.934,1.961,10
0.437,0.050,0.836,0.148,-37.285,0.787,10
0.444,0.013,0.890,-2.576,-41.529,3.308,10
0.432,0.063,0.861,-9.770,-37.537,10.527,10
0.432,0.101,0.937,-7.884,-37.429,10.044,10
0.417,0.117,0.930,-2.890,-29.445,3.827,10
0.419,0.077,0.911,-2.052,-30.236,-1.631,10
0.413,0.043,0.944,-3.414,-35.487,-1.700,10
0.407,0.056,0.964,-2.576,-35.523,-0.111,10
0.401,0.081,0.981,-3.763,-31.135,4.379,10
0.376,0.097,0.946,-1.075,-23.079,1.720,10
0.365,0.073,0.940,0.951,-17.108,0.614,10
0.371,0.077,0.921,-1.878,-16.785,0.683,10
0.357,0.065,0.872,-3.449,-22.395,0.994,10
0.344,0.058,0.893,-2.052,-27.287,1.478,10
0.329,0.085,0.951,-0.760,-28.006,1.720,10
0.342,0.105,1.014,0.287,-22.503,-0.422,10
0.357,0.068,1.043,-2.122,-12.756,-1.631,10
0.346,0.050,0.977,-2.122,-5.095,-0.353,10
0.327,0.095,0.920,0.671,-3.801,2.307,10
0.317,0.115,0.910,0.357,-9.663,2.376,10
0.314,0.107,0.913,-0.551,-12.900,0.511,10
0.323,0.065,0.918,-1.249,-13.727,-1.285,10
0.332,0.087,0.956,-0.760,-13.907,-1.216,10
0.330,0.060,1.018,-0.970,-9.304,0.925,10
0.310,0.100,0.976,-1.633,-5.671,4.897,10
0.296,0.120,0.962,0.427,-5.779,3.308,10
0.299,0.094,0.935,1.998,-5.491,-0.456,10
0.276,0.037,0.870,3.255,-12.612,-4.429,10
0.298,0.044,0.928,-1.424,-15.921,-0.456,10
0.317,0.100,0.977,-3.868,-14.842,2.307,10
0.324,0.054,1.041,-3.484,-6.894,4.483,10
0.313,0.119,0.989,0.008,-3.369,4.137,10
0.282,0.106,0.946,3.430,-0.851,-8.815,10
0.268,0.081,0.939,1.160,-2.506,-2.702,10
0.291,0.085,0.971,-1.703,-2.326,0.925,10
0.305,0.077,0.962,-0.271,-0.060,2.963,10
0.289,0.094,0.892,-2.541,-1.571,3.032,10
0.276,0.092,0.899,-1.773,-5.995,-0.940,10
0.280,0.093,0.976,0.706,-7.865,-2.494,10
0.284,0.040,1.001,0.986,-2.182,-1.355,10
0.290,0.079,0.950,1.544,-1.067,0.303,10
0.295,0.086,0.948,3.011,-1.103,-0.318,10
0.279,0.119,0.929,2.592,-2.254,-1.285,10
0.267,0.094,0.939,0.357,-4.664,-0.802,10
0.271,0.078,0.934,-1.738,-7.182,-0.560,10
0.292,0.070,0.961,-1.459,-5.383,-1.009,10
0.293,0.067,0.999,-1.948,8.536,-1.285,10
0.271,0.089,0.969,-1.843,3.033,-0.629,10
0.262,0.108,0.940,-0.830,0.443,0.683,10
0.272,0.095,0.946,1.370,-2.830,-0.318,10
0.287,0.076,0.931,-0.481,-1.103,1.374,10
0.293,0.084,0.969,0.636,-0.240,-1.078,10
0.276,0.082,0.961,0.881,0.839,-2.771,10
0.271,0.099,0.970,-0.970,1.738,-1.113,10
0.271,0.085,0.964,0.113,2.637,0.303,10
0.271,0.079,0.943,-0.202,0.192,0.822,10
0.276,0.076,0.941,1.090,-0.348,1.167,10
0.277,0.085,0.952,0.741,0.479,0.200,10
0.277,0.086,0.972,0.916,-1.211,-1.216,10
0.279,0.086,0.979,1.160,-0.420,-1.182,10
0.277,0.096,0.937,0.567,-0.600,0.580,10
0.281,0.083,0.946,1.509,-0.456,0.580,10
0.281,0.076,0.947,0.671,0.012,-0.698,10
0.278,0.085,0.952,-0.202,1.271,-0.802,10
0.274,0.082,0.968,0.532,0.803,-0.836,10
0.277,0.091,0.952,1.090,0.371,0.580,10
0.276,0.096,0.950,2.068,0.120,0.338,10
0.278,0.076,0.943,1.789,0.947,-0.560,10
0.281,0.073,0.940,2.487,1.846,-0.767,10
0.333,0.097,1.195,4.862,8.752,0.200,11
0.394,0.198,1.391,10.554,17.923,4.517,11
0.464,0.200,2.038,21.414,43.819,-11.129,11
0.446,0.039,2.295,-0.691,132.080,-14.722,11
0.393,0.262,2.248,-19.966,245.374,-24.876,11
0.360,0.592,1.999,-8.198,321.551,-50.540,11
0.312,0.119,2.171,34.893,386.254,-84.838,11
0.100,0.080,2.109,27.525,473.724,-44.564,11
-0.113,0.275,2.159,53.960,563.244,-37.242,11
-0.564,0.076,1.355,50.677,650.642,-42.388,11
-0.629,-0.517,0.004,19.947,655.318,-30.058,11
-0.678,-0.516,-0.988,-50.906,665.640,72.873,11
-0.399,0.075,-3.006,-57.366,444.268,23.411,11
0.119,-0.066,-0.649,-5.300,147.546,-40.385,11
0.150,-0.557,-0.864,-11.446,160.314,-0.077,11
0.315,0.149,-0.593,-9.002,76.512,11.460,11
0.510,0.134,-0.861,20.052,64.643,-8.263,11
0.833,0.222,-0.417,41.493,-17.396,3.965,11
1.165,0.304,-0.134,84.375,-1.067,-7.675,11
1.227,0.020,-0.041,114.721,-1.643,-26.085,11
1.265,0.042,0.119,149.990,19.649,-30.817,11
1.119,-0.263,-0.130,96.283,66.729,-35.584,11
0.974,-0.004,-0.643,55.182,53.566,-8.712,11
0.835,-0.146,-0.723,-91.658,-24.266,-7.675,11
0.957,-0.052,0.090,-18.046,-66.130,12.634,11
0.963,0.121,-0.074,-7.465,0.947,15.708,11
0.994,0.000,-0.125,4.652,-2.686,3.688,11
0.982,0.004,-0.206,31.122,7.744,-7.088,11
0.963,-0.089,-0.435,-12.948,-1.535,-4.774,11
0.986,0.058,-0.170,-3.449,-30.092,4.068,11
0.990,0.053,-0.030,9.367,-6.067,-8.470,11
0.989,-0.038,-0.195,-0.027,5.658,-0.629,11
0.996,-0.049,-0.253,-15.671,-3.621,0.891,11
1.003,-0.004,-0.199,-2.122,-12.576,8.559,11
0.968,0.087,-0.208,8.214,-5.671,0.511,11
0.951,0.005,-0.265,2.173,-14.519,-0.975,11
0.961,0.040,-0.081,5.071,-11.066,-0.526,11
0.981,0.004,-0.125,5.211,1.594,-5.119,11
0.977,-0.084,-0.238,-10.817,0.911,-8.953,11
0.983,-0.001,-0.257,-24.995,-11.713,2.894,11
0.959,0.022,-0.159,-3.763,-15.490,2.928,11
0.961,0.041,-0.098,6.852,-7.757,-0.215,11
0.987,-0.021,-0.179,2.941,-4.412,-8.539,11
1.005,-0.048,-0.182,-3.065,-5.491,-5.638,11
1.016,-0.035,-0.216,-10.538,-12.648,-2.184,11
1.010,0.021,-0.061,4.757,-11.857,-4.221,11
0.976,-0.066,-0.210,-7.360,-1.930,-6.363,11
0.980,-0.047,-0.153,-4.916,-12.109,-0.249,11
0.973,-0.042,-0.147,-11.935,-8.440,0.165,11
0.969,-0.010,-0.189,-17.487,-11.102,1.098,11
0.963,0.005,-0.176,-3.659,-16.713,-1.873,11
0.967,-0.000,-0.122,4.932,-16.641,-4.290,11
0.963,-0.026,-0.179,-7.360,-15.418,-5.499,11
0.981,-0.078,-0.208,-28.941,-20.561,2.341,11
0.971,-0.019,-0.138,-14.868,-24.805,4.655,11
0.955,-0.002,-0.163,-12.319,-26.459,-1.113,11
0.964,-0.004,-0.087,-10.014,-29.337,-1.044,11
0.971,-0.004,-0.049,-16.824,-24.913,-5.119,11
0.977,-0.017,-0.110,-10.224,-20.201,-10.749,11
0.977,-0.105,-0.202,-12.563,-28.114,-15.965,11
1.004,-0.034,-0.078,4.373,-36.422,-3.531,11
0.996,-0.036,0.037,18.027,-29.265,-10.749,11
0.998,-0.063,-0.024,1.160,-23.726,-7.434,11
1.009,-0.038,-0.033,-1.494,-20.129,-6.812,11
1.010,-0.142,-0.079,-10.294,-23.726,-1.734,11
1.009,-0.056,-0.029,-0.516,-30.560,4.586,11
0.978,-0.047,-0.051,3.954,-25.920,1.236,11
0.951,-0.025,-0.026,13.417,-33.293,-1.113,11
0.950,-0.039,-0.067,1.125,-33.041,-4.463,11
0.966,-0.057,-0.088,-12.738,-50.521,-1.113,11
0.966,-0.093,-0.141,-19.059,-64.620,4.517,11
0.962,-0.053,0.023,-16.754,-83.250,14.569,11
0.931,0.038,0.088,-10.887,-66.778,4.034,11
0.958,0.007,0.235,-3.903,-62.354,-3.911,11
0.995,-0.068,0.080,-11.760,-57.319,-3.461,11
0.987,-0.101,-0.029,-12.668,-71.381,2.790,11
0.981,-0.105,0.110,-5.998,-94.508,10.044,11
0.972,0.110,0.314,24.592,-73.108,4.310,11
0.965,-0.015,0.347,16.490,-61.167,-0.284,11
0.971,-0.059,0.257,2.103,-46.169,-1.907,11
0.974,-0.088,0.175,-5.544,-55.808,-0.111,11
0.957,-0.098,0.111,-7.256,-75.482,3.930,11
0.944,-0.007,0.452,9.367,-84.221,5.035,11
0.930,-0.059,0.335,9.890,-58.146,-1.562,11
0.944,-0.014,0.448,4.757,-50.521,-0.871,11
0.936,-0.069,0.280,-0.656,-42.860,-1.596,11
0.909,-0.071,0.157,-7.814,-58.865,0.994,11
0.905,-0.051,0.313,5.665,-68.792,6.106,11
0.895,-0.089,0.268,8.284,-65.735,4.828,11
0.907,0.002,0.494,10.903,-63.793,10.769,11
0.877,-0.039,0.413,3.779,-64.871,10.216,11
0.875,-0.013,0.386,-5.195,-54.945,8.489,11
0.857,-0.035,0.339,-2.017,-58.541,3.516,11
0.855,0.004,0.407,9.925,-62.498,-8.953,11
0.872,-0.019,0.552,10.519,-60.951,0.718,11
0.886,0.000,0.593,-0.271,-49.766,4.932,11
0.885,-0.081,0.435,-10.259,-51.060,7.142,11
0.871,0.017,0.494,-10.922,-53.614,15.052,11
0.861,0.045,0.578,-0.900,-62.066,6.624,11
0.863,0.020,0.627,10.135,-45.054,-4.843,11
0.874,-0.037,0.742,5.316,-32.574,-6.501,11
0.842,-0.025,0.599,-4.462,-21.244,-2.805,11
0.812,0.039,0.515,-14.484,-25.416,3.688,11
0.802,0.002,0.532,-12.668,-39.048,-0.077,11
0.793,0.048,0.553,2.767,-29.481,-1.873,11
0.800,-0.042,0.658,8.668,-34.408,-5.430,11
0.821,-0.067,0.628,1.963,-31.711,-0.871,11
0.809,-0.012,0.593,-1.913,-30.668,0.614,11
0.783,-0.054,0.528,-10.189,-42.105,0.303,11
0.785,-0.013,0.687,-6.348,-42.285,1.581,11
0.763,-0.008,0.645,3.221,-29.625,-0.491,11
0.698,-0.007,0.633,8.040,-30.128,0.718,11
0.742,0.018,0.592,4.373,-38.077,1.720,11
0.725,-0.017,0.573,-5.230,-47.104,4.379,11
0.714,-0.008,0.702,-6.802,-51.996,5.692,11
0.703,-0.065,0.706,-3.763,-46.780,5.484,11
0.703,-0.069,0.658,-4.043,-46.241,7.453,11
0.708,-0.030,0.670,-8.827,-47.068,14.776,11
0.693,0.024,0.653,-10.433,-50.413,14.499,11
0.676,0.020,0.644,-9.909,-53.362,10.804,11
0.677,0.043,0.781,-6.732,-65.483,7.211,11
0.687,0.022,0.928,-4.986,-52.571,6.037,11
0.651,0.033,0.791,-6.976,-35.919,6.141,11
0.595,0.031,0.660,-10.608,-43.292,4.586,11
0.593,0.038,0.689,-11.690,-55.592,4.828,11
0.566,-0.013,0.678,-15.182,-68.216,7.384,11
0.546,0.031,0.712,-17.767,-88.178,9.802,11
0.558,0.017,0.850,-11.167,-82.747,5.692,11
0.551,-0.009,0.848,-13.646,-75.194,10.458,11
0.539,0.015,0.863,-16.824,-73.216,10.113,11
0.520,0.067,0.895,-24.052,-71.669,14.258,11
0.505,0.128,0.897,-24.681,-65.447,10.493,11
0.504,0.119,0.968,-23.458,-65.627,6.141,11
0.486,0.121,0.889,-19.722,-65.339,4.414,11
0.475,0.211,0.864,-16.893,-60.520,2.825,11
0.459,0.143,0.939,-8.792,-55.700,-2.391,11
0.416,0.024,0.846,0.392,-51.204,0.476,11
0.385,0.037,0.835,1.544,-59.081,7.971,11
0.388,0.088,0.928,-0.132,-68.936,6.348,11
0.393,0.099,1.032,-2.017,-67.749,6.555,11
0.378,0.128,1.099,-3.065,-54.837,7.902,11
0.353,0.130,1.074,7.271,-36.422,1.823,11
0.336,0.105,0.988,8.494,-26.388,1.685,11
0.331,0.117,0.956,0.497,-25.992,5.346,11
0.321,0.160,0.935,-1.703,-22.971,6.348,11
0.343,0.182,0.901,-3.589,-25.273,0.096,11
0.335,0.129,0.897,-3.240,-26.244,-4.429,11
0.300,0.058,0.970,-1.738,-29.445,-6.674,11
0.269,0.058,0.928,-3.100,-34.336,-1.182,11
0.284,0.105,1.021,-4.148,-28.186,3.757,11
0.287,0.080,1.056,-0.306,-12.073,6.452,11
0.289,0.140,0.943,-0.970,-10.958,6.935,11
0.280,0.120,0.958,-5.056,-12.109,0.891,11
0.277,0.109,1.011,-7.675,-11.821,0.649,11
0.263,0.108,1.024,-4.322,-9.088,3.550,11
0.264,0.122,1.014,0.706,-3.333,3.516,11
0.263,0.112,0.960,2.871,1.271,0.580,11
0.249,0.114,0.888,0.113,0.623,-2.529,11
0.255,0.109,0.880,-2.437,-5.167,-3.945,11
0.264,0.050,0.955,-4.322,-10.419,-2.909,11
0.284,0.097,1.051,-4.008,-7.325,2.583,11
0.272,0.124,1.083,-0.586,0.551,4.276,11
0.247,0.114,0.977,-1.948,7.205,2.134,11
0.238,0.151,0.916,-3.030,5.479,-0.353,11
0.232,0.114,0.900,-2.995,0.192,-2.633,11
0.249,0.140,0.952,-1.598,-2.002,-2.184,11
0.278,0.104,0.989,1.125,-0.600,-0.767,11
0.272,0.084,0.968,1.265,3.141,2.963,11
0.256,0.088,0.944,1.160,3.500,3.308,11
0.243,0.129,0.937,-1.424,3.213,4.448,11
0.248,0.114,0.933,-1.110,-1.355,0.476,11
0.272,0.094,0.974,-2.192,-1.930,-1.251,11
0.273,0.107,0.960,-2.087,0.695,-0.906,11
0.260,0.108,0.952,-1.040,0.407,1.132,11
0.257,0.139,0.967,-0.656,0.479,2.583,11
0.248,0.147,0.965,0.602,1.342,1.063,11
0.254,0.157,0.952,0.497,3.572,0.338,11
0.265,0.151,0.952,0.951,2.961,-1.562,11
0.262,0.122,0.942,1.160,0.659,-3.012,11
0.257,0.107,0.944,1.929,-0.204,-3.392,11
0.249,0.084,0.959,2.802,0.048,-2.702,11
0.258,0.077,0.968,2.382,0.803,-1.009,11
0.279,0.080,0.955,2.592,3.464,-0.042,11
0.280,0.128,0.957,3.151,6.737,0.787,11
0.272,0.133,0.962,1.125,7.349,0.062,11
0.255,0.126,0.954,-0.271,3.321,-0.975,11
0.253,0.123,0.968,-1.319,0.156,-1.320,11
0.264,0.146,0.969,-0.691,0.695,0.372,11
0.277,0.140,0.942,0.182,2.709,-0.215,11
0.268,0.138,0.922,0.951,1.666,-1.009,11
0.264,0.117,0.962,0.706,0.192,-1.424,11
0.256,0.095,0.967,1.405,1.378,-1.216,11
0.257,0.066,0.963,2.068,-0.636,-1.251,11
0.275,0.085,0.952,1.824,-0.240,1.340,11
0.283,0.094,0.931,0.078,0.084,2.203,11
0.281,0.125,0.937,-1.598,1.450,2.376,11
0.275,0.135,0.969,-2.506,0.839,1.547,11
0.263,0.139,0.982,-2.297,2.421,1.685,11
0.261,0.139,0.971,-0.551,1.019,1.823,11
0.261,0.150,0.941,-0.027,1.163,1.340,11
0.191,-0.001,1.259,-15.043,-3.729,12.842,12
0.205,0.267,1.974,-11.655,25.116,28.385,12
0.210,0.445,3.132,13.487,153.948,6.486,12
0.098,0.379,3.713,57.522,354.819,-0.042,12
0.040,0.508,3.025,69.744,493.326,1.789,12
-0.245,0.475,2.638,69.325,588.133,-18.659,12
-0.800,0.374,2.132,8.284,694.126,-36.966,12
-1.244,0.445,0.762,-45.528,792.817,-106.944,12
-1.257,-0.559,-1.095,-67.633,789.760,-109.742,12
-1.004,-0.314,-3.381,47.395,664.022,-43.666,12
-0.416,0.160,-2.474,210.786,167.902,-44.219,12
0.021,0.169,-1.153,89.962,2.098,-41.076,12
0.595,-0.481,-0.433,-22.132,-69.475,-68.259,12
1.070,-0.444,-0.141,-74.756,-6.858,42.684,12
1.254,0.303,-0.056,-17.906,-36.170,30.872,12
1.221,0.004,0.270,12.544,-12.612,4.897,12
1.189,0.175,0.200,49.804,-0.276,-9.506,12
1.123,-0.108,0.191,6.887,3.393,-22.908,12
1.038,-0.061,-0.035,-32.887,-3.585,0.960,12
0.987,0.092,0.026,-19.966,-9.699,-3.323,12
0.964,0.009,-0.084,-13.855,-5.959,-13.098,12
0.977,-0.076,0.023,-15.811,-18.619,-3.600,12
0.988,-0.047,0.130,1.300,-1.211,-4.360,12
0.964,-0.114,-0.023,14.430,4.687,-2.563,12
0.970,-0.074,-0.103,-4.078,-7.685,5.001,12
0.990,0.012,-0.026,-8.094,-12.936,4.345,12
1.018,0.073,0.057,-3.729,-11.893,-1.285,12
1.025,-0.024,0.074,-12.179,-1.391,-5.707,12
1.031,-0.031,0.069,-9.770,-5.275,-1.700,12
1.004,0.002,0.050,11.462,3.141,-2.460,12
0.974,-0.053,-0.050,20.087,-0.672,-5.016,12
0.970,-0.044,-0.027,10.868,-6.534,0.614,12
0.981,-0.018,0.007,0.706,-8.728,0.683,12
1.003,-0.047,0.079,-2.122,-7.865,-1.700,12
1.009,-0.060,0.051,-5.160,-3.117,-0.767,12
1.021,-0.043,0.071,-6.278,-3.117,-1.009,12
1.026,0.025,0.100,3.849,6.090,-1.631,12
1.007,-0.005,-0.007,4.582,9.471,-4.636,12
0.986,-0.014,-0.067,-2.681,-1.679,-3.945,12
0.971,-0.002,0.020,-6.592,-7.757,-4.083,12
0.969,-0.052,0.021,-8.373,-6.678,-6.397,12
0.981,-0.076,0.055,-6.871,-6.750,-0.526,12
0.994,-0.008,0.055,4.128,-1.966,-0.146,12
1.008,-0.089,-0.020,4.163,-2.542,-2.080,12
1.018,-0.077,0.019,5.316,-7.613,1.063,12
1.009,-0.044,0.069,-1.319,-5.635,3.136,12
0.988,-0.001,0.081,-3.868,-0.348,1.789,12
0.979,0.006,0.017,0.602,-2.470,-1.493,12
0.993,0.012,0.050,-1.005,-1.787,-1.873,12
0.990,0.005,0.022,0.846,-0.995,-4.947,12
1.001,-0.056,0.098,11.951,-1.031,-4.429,12
0.990,-0.075,-0.030,9.332,1.738,-3.496,12
0.985,-0.069,0.066,1.894,-0.923,-0.906,12
0.994,-0.059,-0.023,1.754,-1.571,-0.560,12
1.008,-0.111,0.000,6.538,-11.390,3.205,12
1.004,-0.042,0.031,5.490,-9.340,8.179,12
0.996,-0.006,0.113,9.541,-9.879,3.170,12
1.000,0.042,0.133,8.878,7.097,-1.320,12
1.006,-0.019,0.051,7.097,5.694,-7.468,12
1.005,-0.056,-0.013,-16.020,2.421,-0.906,12
0.993,-0.050,0.001,-23.808,-11.318,6.003,12
0.967,0.009,0.075,-6.452,-7.361,5.657,12
0.962,-0.029,0.060,4.408,-4.017,-3.254,12
0.998,-0.099,0.133,10.274,-4.988,-4.187,12
1.011,-0.074,0.080,6.922,5.119,-1.907,12
1.018,-0.097,0.002,10.519,0.839,2.514,12
1.018,-0.029,0.034,0.497,-3.225,6.866,12
1.009,0.018,0.091,-5.579,-4.736,4.552,12
0.994,0.022,0.082,-8.129,1.882,-1.976,12
0.981,-0.028,0.037,-3.903,0.911,-3.841,12
0.965,-0.024,0.033,8.528,-0.780,-1.700,12
0.973,-0.045,0.011,12.649,-5.563,-1.355,12
0.978,-0.066,0.041,-5.510,-7.110,3.308,12
0.989,-0.036,0.070,-6.383,-9.519,-0.284,12
1.008,-0.107,0.108,-0.795,-4.017,-1.700,12
1.017,-0.093,0.053,3.814,-2.326,2.894,12
1.023,-0.019,0.118,7.376,-2.434,5.415,12
1.012,0.002,0.120,8.528,5.838,0.822,12
0.988,-0.014,0.014,-1.284,5.730,0.027,12
0.975,0.018,0.035,-9.490,-4.268,1.720,12
0.968,0.002,0.105,-4.462,-0.636,-2.322,12
0.979,-0.037,0.042,-1.354,-0.923,-1.285,12
0.985,-0.042,0.094,4.722,-2.794,-2.287,12
0.990,-0.061,0.051,4.513,-0.600,-1.665,12
0.998,-0.073,0.069,9.506,-1.067,-0.491,12
1.001,-0.071,0.012,3.465,-2.074,3.930,12
1.005,-0.032,0.087,0.951,-6.966,4.379,12
0.997,-0.011,0.074,-0.062,-2.326,1.996,12
1.002,-0.004,0.107,-1.144,-2.794,-0.871,12
0.992,-0.038,0.072,-2.297,-0.168,-1.389,12
0.994,-0.010,0.069,3.744,0.084,2.203,12
0.990,-0.047,0.082,4.792,-3.909,0.545,12
0.985,0.008,0.133,4.862,-1.103,1.201,12
0.983,-0.041,0.093,4.478,3.321,-5.672,12
1.000,-0.075,0.037,-0.551,0.156,-1.424,12
1.004,-0.068,0.053,-5.824,-2.973,2.307,12
1.003,-0.036,0.071,-4.392,-6.570,4.655,12
1.002,-0.004,0.147,0.252,-1.607,0.580,12
1.007,-0.031,0.093,1.405,1.450,-0.042,12
1.003,-0.041,0.092,3.360,0.228,0.994,12
0.991,-0.015,0.061,5.421,1.522,2.790,12
0.971,-0.020,0.023,2.068,-0.564,0.960,12
0.979,-0.024,0.076,-4.043,-7.397,0.096,12
0.990,-0.004,0.132,-4.602,-1.859,-1.665,12
0.994,-0.070,0.071,-5.475,1.810,-3.565,12
1.000,-0.071,0.075,-3.729,0.084,0.822,12
1.002,-0.025,0.062,2.941,-4.052,2.307,12
0.986,-0.021,0.105,9.122,-1.607,-1.251,12
0.982,-0.039,0.074,1.055,-3.621,-1.596,12
0.995,-0.048,0.106,-0.271,-2.434,-1.907,12
1.000,-0.055,0.071,-2.856,-0.240,0.545,12
1.000,-0.033,0.079,-4.986,-1.679,4.172,12
0.999,0.031,0.157,6.294,0.192,1.547,12
0.990,-0.038,0.084,1.021,6.090,-1.804,12
0.990,-0.030,0.029,-1.040,-3.585,-0.975,12
0.988,-0.046,0.082,-0.830,-4.196,0.442,12
0.976,-0.051,0.063,-0.621,-2.686,-1.493,12
0.974,-0.091,0.057,-2.646,-4.628,4.517,12
0.984,0.013,0.115,0.078,-6.858,1.132,12
0.984,-0.040,0.110,-3.065,-1.930,-0.595,12
0.992,-0.031,0.082,-2.367,-2.146,-3.082,12
0.998,-0.045,0.100,-1.773,-2.218,-0.940,12
0.999,-0.008,0.063,-0.027,-5.563,3.516,12
0.990,-0.019,0.149,0.602,-4.268,-0.180,12
0.981,-0.059,0.016,-3.694,-3.297,1.616,12
0.995,-0.018,0.113,-4.741,-14.842,2.583,12
1.000,-0.019,0.151,-1.249,-6.246,0.200,12
0.972,-0.063,0.049,-10.957,-4.448,-0.422,12
0.944,-0.040,-0.067,-5.300,-14.303,0.062,12
0.944,-0.031,-0.028,-7.640,-34.264,2.307,12
0.940,-0.044,0.110,-10.713,-39.407,1.685,12
0.905,-0.023,-0.070,-12.843,-41.889,3.654,12
0.873,-0.063,-0.243,-36.938,-84.581,9.008,12
0.877,0.170,0.208,8.773,-123.748,19.128,12
0.892,0.023,0.188,9.297,-89.508,-13.582,12
0.862,-0.265,-0.093,-6.452,-104.866,-6.570,12
0.839,-0.180,-0.023,-41.233,-157.808,23.687,12
0.821,0.020,0.388,-43.049,-177.986,41.786,12
0.874,0.228,0.798,-3.763,-140.257,22.616,12
0.904,0.042,0.770,9.960,-85.660,-1.804,12
0.844,-0.067,0.162,-11.725,-79.330,4.276,12
0.744,-0.099,-0.016,-38.928,-139.645,13.256,12
0.744,0.141,0.512,2.802,-179.352,20.164,12
0.782,0.095,0.828,16.281,-155.974,8.697,12
0.766,-0.091,0.830,-1.249,-122.454,12.945,12
0.694,0.110,0.385,-40.674,-125.906,30.250,12
0.658,0.190,0.639,-18.465,-156.765,8.248,12
0.652,0.192,0.656,12.300,-147.270,-10.128,12
0.689,0.009,1.074,18.516,-143.566,-12.166,12
0.724,-0.118,1.032,3.360,-102.708,-0.491,12
0.612,-0.003,0.666,-30.128,-94.472,19.681,12
0.522,0.065,0.605,-37.915,-126.050,16.157,12
0.566,0.303,1.031,10.973,-116.627,3.965,12
0.578,0.036,1.024,33.112,-96.198,-15.585,12
0.567,0.008,0.995,25.430,-69.151,-6.432,12
0.531,0.014,0.794,-0.760,-72.784,-5.223,12
0.457,-0.062,0.770,-15.671,-76.704,5.830,12
0.459,0.066,0.905,-21.678,-103.787,14.327,12
0.463,0.150,0.991,4.128,-81.884,11.218,12
0.451,0.053,1.053,12.963,-67.389,-0.284,12
0.424,0.062,0.964,1.894,-52.823,1.581,12
0.400,0.057,0.890,-3.240,-56.527,1.996,12
0.393,-0.024,0.927,-12.354,-62.498,5.795,12
0.365,0.035,0.943,-20.805,-61.347,17.435,12
0.350,0.154,0.991,-14.659,-60.412,18.506,12
0.351,0.161,1.038,-5.125,-53.434,9.733,12
0.353,0.117,1.095,6.294,-31.782,-2.218,12
0.331,0.071,1.009,2.906,-24.014,-5.983,12
0.344,0.024,1.016,2.557,-21.496,-3.082,12
0.324,0.064,0.963,-0.237,-22.395,0.683,12
0.286,0.067,0.819,-3.135,-33.149,2.169,12
0.285,0.074,0.969,-7.046,-39.192,1.823,12
0.304,0.105,1.130,-1.773,-24.481,2.203,12
0.317,0.078,1.161,1.579,-5.887,0.476,12
0.296,0.088,1.058,-3.973,4.472,4.137,12
0.267,0.114,0.880,-9.002,3.680,4.828,12
0.265,0.087,0.876,-5.230,-10.706,-1.734,12
0.274,0.090,0.936,-3.484,-13.296,1.029,12
0.281,0.084,1.069,0.881,-4.772,2.998,12
0.287,0.088,0.997,0.881,2.745,3.792,12
0.282,0.049,0.980,-2.367,6.126,2.134,12
0.274,0.070,0.917,-1.529,7.025,0.994,12
0.276,0.121,0.899,-0.725,1.055,1.478,12
0.275,0.085,0.931,0.497,-1.751,1.305,12
0.277,0.120,0.969,-0.202,-1.894,1.789,12
0.273,0.081,0.980,0.182,1.271,-0.975,12
0.280,0.079,0.970,-1.389,4.004,-1.458,12
0.282,0.067,0.928,-0.376,2.314,-1.285,12
0.284,0.100,0.905,-0.341,-1.031,0.856,12
0.282,0.090,0.959,0.113,-2.398,1.305,12
0.273,0.109,0.979,0.148,-1.787,1.478,12
0.273,0.088,0.976,0.532,-0.995,-1.424,12
0.276,0.080,0.978,-0.446,1.666,-1.976,12
0.284,0.079,0.936,-0.376,2.529,-1.631,12
0.291,0.094,0.932,-0.411,2.817,0.476,12
0.287,0.093,0.941,-0.062,0.947,1.616,12
0.276,0.116,0.947,-0.586,0.048,2.652,12
0.271,0.094,0.957,-2.297,-1.355,-0.249,12
0.280,0.083,0.969,-1.354,1.271,-1.389,12
0.282,0.072,0.962,-2.716,1.594,-0.664,12
0.322,0.164,1.239,3.395,2.781,4.621,13
0.376,0.149,1.933,6.643,31.986,8.455,13
0.403,0.267,2.062,13.801,112.514,10.493,13
0.424,0.109,2.152,-5.021,175.671,12.772,13
0.428,0.325,2.564,-18.430,223.183,2.756,13
0.275,0.182,2.663,-5.789,348.453,-22.562,13
0.023,0.360,2.355,17.154,458.079,-29.056,13
-0.419,0.262,1.855,27.839,590.794,-53.096,13
-0.637,0.206,0.815,-9.455,659.814,-55.721,13
-0.622,0.348,0.114,44.636,672.546,-71.540,13
-0.656,-0.072,-1.691,110.880,674.344,-55.030,13
-0.304,0.168,-3.798,157.358,324.536,-33.339,13
0.124,-0.557,-0.489,97.750,-47.967,-19.661,13
0.608,0.114,-0.132,50.642,81.835,-25.360,13
0.799,-0.638,-0.420,-52.058,34.863,-28.641,13
1.089,-0.035,-0.250,-173.650,16.592,60.438,13
1.369,0.488,0.418,-32.887,-10.742,28.903,13
1.251,0.062,-0.028,10.274,59.788,-11.233,13
1.085,0.002,-0.208,20.960,8.716,6.210,13
1.016,0.087,0.172,-12.179,2.817,-8.021,13
0.962,0.043,0.074,10.589,29.108,-17.381,13
0.911,-0.127,-0.126,8.249,27.670,-21.457,13
0.893,-0.102,-0.212,-32.014,11.809,3.827,13
0.928,0.091,-0.047,-4.881,-4.017,3.861,13
0.916,0.093,-0.168,15.443,2.745,-11.717,13
0.952,-0.034,-0.118,14.535,-11.857,-11.648,13
1.017,-0.007,0.072,3.255,-12.576,-10.853,13
1.070,-0.038,0.104,8.424,-1.571,-10.300,13
1.057,-0.047,0.010,10.798,8.931,-7.952,13
1.007,-0.057,-0.155,2.906,5.658,-1.596,13
0.988,0.003,-0.017,3.290,-12.972,-0.802,13
0.999,0.021,0.045,19.773,3.285,-4.532,13
1.000,-0.042,-0.027,21.589,1.666,-6.052,13
0.985,-0.058,-0.043,9.052,3.069,0.476,13
1.009,0.020,-0.031,-7.395,-7.757,2.790,13
0.994,0.005,-0.001,4.792,6.162,-3.496,13
0.966,-0.089,-0.123,3.675,0.587,-0.560,13
0.976,-0.003,-0.028,-6.906,-4.916,4.414,13
0.978,-0.000,-0.067,-2.087,-3.441,0.580,13
1.009,-0.019,0.057,3.116,-8.440,-2.943,13
1.004,-0.055,-0.016,7.795,2.386,-4.187,13
1.010,-0.036,-0.024,4.548,-1.499,-1.251,13
1.000,-0.012,-0.023,6.433,0.875,-0.491,13
0.993,-0.012,-0.016,2.173,-2.182,0.338,13
0.977,-0.017,-0.027,-1.913,-1.751,-2.391,13
0.990,-0.021,0.030,4.198,-1.139,-2.702,13
0.988,-0.080,-0.080,-6.697,-0.887,-2.218,13
1.007,-0.038,-0.016,-1.948,-4.664,4.586,13
0.987,0.004,-0.038,-0.691,-4.736,2.341,13
0.993,-0.031,0.016,-0.411,-8.620,1.961,13
1.002,0.018,0.066,7.865,-1.211,-0.802,13
1.004,-0.056,-0.036,5.071,3.321,-4.705,13
0.996,-0.054,-0.034,1.475,-0.276,-1.182,13
0.994,-0.026,-0.029,-1.110,-2.938,2.998,13
0.992,-0.010,-0.012,-3.868,-3.801,3.308,13
0.989,-0.026,-0.002,-7.256,-5.239,0.027,13
0.987,0.011,-0.016,4.897,-2.470,-1.734,13
1.001,-0.053,-0.000,9.855,-3.729,-5.534,13
1.002,-0.050,-0.041,2.068,-2.973,1.685,13
1.003,-0.016,0.029,-6.557,-7.361,3.239,13
0.994,-0.008,0.005,-8.652,-3.333,0.545,13
0.995,-0.037,0.015,-4.357,-2.973,0.925,13
0.991,-0.030,-0.002,3.081,-0.528,-0.698,13
0.991,-0.049,-0.036,2.592,-3.405,1.271,13
0.998,-0.010,0.009,3.290,-4.628,1.271,13
1.003,-0.011,0.014,1.021,-5.527,0.303,13
0.997,-0.018,0.020,-1.284,-2.398,-1.665,13
0.980,-0.016,-0.029,4.059,-2.002,-3.151,13
0.993,-0.064,0.001,4.617,-7.577,-1.734,13
1.009,-0.026,0.038,2.697,-4.196,1.098,13
1.009,-0.003,0.044,1.021,-4.268,0.407,13
1.009,-0.048,0.011,-5.405,-2.290,-0.526,13
0.998,-0.022,-0.013,-6.173,-2.794,-0.077,13
0.978,0.001,0.014,6.328,-4.124,-3.047,13
0.978,-0.072,-0.002,0.706,-4.916,-3.082,13
0.976,-0.026,-0.021,-8.932,-6.139,3.896,13
0.981,-0.034,-0.019,-14.903,-12.720,1.996,13
1.010,-0.023,0.061,-12.179,-16.605,3.067,13
1.013,-0.005,0.109,-3.310,-4.412,-0.595,13
1.006,-0.009,0.011,-0.586,-4.700,-1.976,13
1.002,-0.022,0.093,-0.621,-7.469,-6.639,13
0.993,-0.039,0.050,5.455,-4.448,-5.361,13
1.001,-0.085,0.032,9.890,-5.671,-1.458,13
0.981,0.015,0.055,10.449,0.228,0.545,13
0.979,-0.026,0.007,3.081,-2.830,-2.771,13
0.969,-0.028,-0.034,-1.179,-6.210,-4.360,13
0.964,-0.075,-0.048,-4.043,-15.418,-5.810,13
0.981,-0.047,0.052,-5.335,-21.424,-0.146,13
0.982,-0.011,0.107,-1.144,-11.497,0.372,13
0.988,-0.005,0.037,4.687,-12.181,-2.184,13
0.989,-0.060,0.029,-0.656,-16.856,-5.948,13
1.001,-0.042,0.075,-4.741,-19.770,-2.598,13
0.994,-0.063,-0.028,-3.763,-19.554,-1.804,13
0.976,-0.024,0.048,-3.624,-26.891,-0.422,13
0.975,-0.013,0.066,-7.395,-30.200,-2.356,13
0.974,0.027,0.139,7.271,-30.236,-10.922,13
0.969,-0.062,0.096,16.909,-27.754,-17.727,13
0.981,-0.113,0.087,14.186,-28.222,-12.753,13
0.946,-0.067,0.024,0.706,-31.962,-5.741,13
0.941,-0.047,0.003,-12.528,-44.119,-2.978,13
0.964,-0.019,0.210,-4.811,-54.154,-4.083,13
0.967,-0.048,0.205,-2.960,-42.321,-7.641,13
0.977,-0.060,0.226,2.313,-39.228,-8.401,13
0.956,-0.094,0.145,6.817,-38.041,-7.952,13
0.943,-0.116,0.077,5.665,-46.133,-2.218,13
0.942,-0.042,0.117,-7.046,-63.289,4.448,13
0.951,0.016,0.408,-8.338,-59.441,-0.664,13
0.953,-0.070,0.352,-10.573,-35.667,-7.054,13
0.956,-0.124,0.291,-13.646,-36.998,-3.565,13
0.951,-0.086,0.206,-11.446,-35.883,-2.287,13
0.947,-0.087,0.206,-5.090,-52.859,-0.836,13
0.954,-0.060,0.330,2.662,-53.542,3.585,13
0.941,-0.039,0.372,4.827,-46.673,1.340,13
0.911,-0.082,0.341,-0.970,-45.450,2.756,13
0.910,-0.063,0.342,-4.951,-47.356,2.169,13
0.894,-0.087,0.214,0.951,-55.089,0.372,13
0.883,-0.046,0.254,10.030,-71.741,2.859,13
0.863,-0.031,0.327,9.297,-79.150,-1.527,13
0.863,0.013,0.455,5.316,-75.086,-8.228,13
0.856,-0.095,0.453,-0.376,-69.475,-13.064,13
0.890,-0.180,0.500,-1.633,-68.001,-5.603,13
0.892,-0.171,0.418,-10.538,-71.633,6.970,13
0.873,0.055,0.606,-3.240,-80.661,15.363,13
0.860,-0.007,0.669,3.290,-63.721,0.303,13
0.839,-0.130,0.624,-3.275,-53.830,-1.734,13
0.820,-0.017,0.607,-5.719,-44.371,3.274,13
0.796,-0.016,0.483,-0.446,-47.140,-4.290,13
0.795,-0.072,0.515,0.322,-54.945,-7.157,13
0.776,-0.146,0.511,-5.614,-68.612,-1.631,13
0.761,-0.069,0.558,-10.154,-66.742,5.864,13
0.751,-0.076,0.713,-2.332,-62.102,4.103,13
0.743,-0.056,0.505,-8.198,-62.354,3.274,13
0.706,-0.111,0.624,-21.224,-83.934,9.906,13
0.691,-0.081,0.558,-33.236,-103.679,6.003,13
0.691,-0.010,0.826,-22.620,-91.127,11.943,13
0.686,0.044,0.875,-9.700,-74.798,8.593,13
0.693,0.033,0.877,-1.179,-55.628,0.407,13
0.661,-0.024,0.697,-5.998,-45.522,-0.871,13
0.646,0.011,0.713,-10.782,-66.886,-0.871,13
0.639,-0.076,0.815,-7.989,-72.532,-1.562,13
0.656,-0.050,0.960,1.195,-55.916,6.210,13
0.627,-0.068,0.860,1.265,-41.098,6.590,13
0.610,-0.021,0.782,-6.627,-38.976,8.973,13
0.592,0.008,0.750,-10.119,-45.665,6.313,13
0.579,0.021,0.802,-8.094,-52.715,0.407,13
0.573,0.050,0.930,4.582,-50.305,-2.184,13
0.569,-0.010,0.950,13.278,-36.566,-5.499,13
0.558,-0.008,0.900,6.259,-26.495,-0.629,13
0.525,-0.026,0.699,-8.792,-28.977,-0.215,13
0.499,-0.003,0.756,-9.071,-50.197,-2.080,13
0.501,-0.069,0.829,-4.567,-48.435,-3.392,13
0.508,-0.059,0.894,-3.240,-41.098,-0.284,13
0.494,-0.058,0.835,-10.328,-39.443,3.170,13
0.479,-0.025,0.799,-22.760,-53.830,6.279,13
0.507,0.073,1.008,-12.109,-49.334,5.415,13
0.495,0.027,1.019,1.544,-32.610,-2.598,13
0.465,0.074,0.919,-1.389,-26.963,-2.943,13
0.438,0.043,0.895,-5.405,-35.523,-11.026,13
0.439,0.009,0.934,-16.824,-34.552,-6.777,13
0.429,-0.060,0.905,-22.201,-32.610,-1.838,13
0.435,-0.030,0.904,-15.916,-27.035,4.552,13
0.429,0.054,0.970,-5.090,-20.633,5.692,13
0.421,-0.015,1.015,-1.424,-17.144,2.479,13
0.433,-0.004,1.005,-3.135,-6.103,2.099,13
0.420,-0.004,0.906,-4.532,0.263,5.588,13
0.405,0.050,0.833,-7.081,-4.448,6.141,13
0.404,0.058,0.908,-7.325,-14.411,6.521,13
0.410,0.116,0.969,-0.691,-9.519,4.172,13
0.393,0.055,0.957,5.421,-1.966,0.096,13
0.389,0.033,0.955,5.001,0.515,-1.562,13
0.381,0.013,0.883,-1.633,-0.708,-1.458,13
0.376,0.007,0.826,-6.243,-8.225,0.856,13
0.390,-0.003,0.890,-7.046,-13.332,4.345,13
0.409,-0.012,0.973,0.252,-9.663,6.175,13
0.404,0.033,0.971,3.709,-1.607,5.588,13
0.383,0.040,0.942,0.392,0.084,3.792,13
0.385,0.078,0.929,-0.830,0.048,3.170,13
0.388,0.065,0.919,-4.252,-0.816,3.377,13
0.388,0.060,0.920,-2.437,-2.146,2.238,13
0.383,0.061,0.943,-0.097,1.702,1.547,13
0.376,0.062,0.919,0.846,3.500,-0.595,13
0.382,0.047,0.918,2.243,2.889,-3.082,13
0.390,0.010,0.895,1.894,1.450,-1.631,13
0.383,0.021,0.869,2.871,-0.672,1.443,13
0.381,0.015,0.876,0.706,-4.124,2.030,13
0.389,0.012,0.941,2.068,-4.700,2.030,13
0.395,0.020,0.967,-0.167,-1.823,2.998,13
0.394,0.035,0.976,-2.052,-0.492,1.512,13
0.392,0.063,0.945,-1.249,4.004,2.859,13
0.371,0.071,0.891,-0.027,3.932,2.169,13
0.365,0.080,0.863,-0.097,1.127,-0.318,13
0.367,0.053,0.903,-0.027,-2.830,-2.529,13
0.387,0.041,0.942,0.706,-1.319,-2.356,13
0.390,-0.044,0.964,1.754,0.875,-2.184,13
0.389,0.010,0.934,0.741,2.925,-0.802,13
0.377,0.011,0.888,1.300,2.961,0.476,13
0.373,0.017,0.863,0.462,-0.492,1.271,13
0.390,0.040,0.905,-1.110,-1.894,1.789,13
0.399,0.049,0.961,-0.865,-0.923,0.476,13
0.399,0.062,0.956,-1.459,1.738,0.442,13
-0.021,0.649,1.887,130.016,501.670,-23.322,14
-0.522,-0.116,1.175,94.921,618.524,-71.299,14
-0.643,-0.253,0.145,23.928,619.388,-33.512,14
-0.443,0.052,-1.025,-11.446,595.974,-0.906,14
-0.115,0.897,-2.949,48.861,362.049,-22.562,14
0.191,-0.091,-0.526,181.942,57.306,-122.764,14
0.304,-0.206,-0.569,83.083,153.408,-51.852,14
0.501,-0.368,-0.694,-63.582,95.538,-29.643,14
0.765,-0.191,-0.701,-102.972,65.398,22.409,14
0.986,0.133,-0.344,-63.512,13.175,6.866,14
1.023,-0.145,-0.324,-32.957,-4.556,-3.151,14
1.064,-0.040,-0.072,4.024,-14.914,9.560,14
1.076,-0.033,0.030,31.681,0.192,-3.461,14
1.016,-0.139,-0.209,8.249,12.780,-3.980,14
1.009,-0.074,-0.241,-13.227,-4.844,-3.082,14
1.026,-0.067,-0.044,1.509,-14.770,-0.698,14
0.996,-0.148,0.028,19.354,0.587,-2.322,14
1.000,-0.051,-0.010,9.681,5.982,7.281,14
0.979,0.009,-0.131,3.849,1.918,-1.665,14
0.976,-0.057,-0.151,-1.668,-7.002,-0.422,14
0.992,0.018,-0.070,-1.529,-5.347,-1.285,14
0.989,-0.009,-0.129,1.963,-2.686,-4.014,14
0.975,-0.017,-0.069,6.538,-5.491,-6.432,14
0.982,-0.089,-0.039,2.557,-4.880,-10.819,14
0.988,-0.160,-0.141,-12.179,-7.793,-6.225,14
1.021,-0.064,-0.031,-3.624,-9.807,4.966,14
1.027,-0.042,-0.096,0.217,-7.325,3.032,14
1.017,-0.050,-0.077,-4.497,-7.433,3.447,14
1.006,-0.040,-0.040,-13.646,-4.988,1.547,14
1.002,-0.071,-0.049,-12.214,-1.391,-2.978,14
0.986,-0.069,-0.042,-2.402,0.587,-2.114,14
0.961,-0.037,-0.130,6.608,6.917,-4.429,14
0.957,-0.047,-0.117,5.211,-3.693,-0.940,14
0.956,-0.051,-0.150,-10.049,-9.016,-2.114,14
0.972,-0.109,-0.119,-21.259,-16.713,-0.733,14
0.992,-0.077,-0.048,-15.846,-21.460,4.586,14
1.019,-0.040,0.063,-0.691,-11.497,0.960,14
1.027,-0.030,-0.007,3.709,0.192,-3.772,14
1.028,-0.090,-0.089,2.278,4.651,-4.463,14
1.027,-0.074,-0.104,0.671,-1.751,-0.180,14
1.008,-0.056,-0.066,0.532,-1.355,1.754,14
0.988,-0.044,-0.032,-5.894,-5.995,0.683,14
0.979,-0.025,0.023,-2.925,2.457,-3.323,14
0.964,-0.073,-0.095,4.373,2.421,-8.643,14
0.971,-0.135,-0.100,8.214,-0.708,-6.536,14
0.989,-0.130,-0.094,3.535,-7.721,0.269,14
1.003,-0.097,-0.052,-5.754,-11.174,7.108,14
1.031,-0.021,0.048,-1.564,-5.815,4.759,14
1.021,-0.063,-0.031,1.440,3.429,-1.216,14
1.019,-0.075,-0.026,4.652,5.587,-1.285,14
1.002,-0.064,-0.087,3.744,5.191,1.547,14
0.975,-0.033,-0.042,-0.341,-2.218,-0.249,14
0.960,0.017,-0.066,-0.725,0.983,2.065,14
0.918,-0.065,-0.057,2.208,-0.708,-3.116,14
0.943,-0.067,-0.070,3.360,-2.650,-9.575,14
0.967,-0.154,-0.111,0.706,-3.261,-6.017,14
0.999,-0.133,-0.081,-7.011,-10.526,2.134,14
1.020,-0.088,-0.054,-11.062,-13.548,7.730,14
1.038,-0.051,0.027,-2.297,-11.318,6.659,14
1.035,-0.040,0.033,4.478,-0.096,0.925,14
1.021,-0.071,-0.021,6.328,3.968,-5.154,14
1.007,-0.091,-0.075,-0.341,1.774,-1.734,14
0.981,-0.062,-0.054,-9.525,-2.794,4.897,14
0.961,-0.023,-0.018,-5.963,-5.203,5.657,14
0.943,-0.029,-0.045,-3.519,-1.751,-0.871,14
0.947,-0.043,-0.071,-2.611,-4.484,-3.911,14
0.962,-0.116,-0.066,-0.027,-8.009,-6.881,14
0.995,-0.145,-0.047,1.754,-10.958,-3.220,14
1.019,-0.090,-0.022,4.303,-9.555,2.341,14
1.023,-0.067,-0.020,2.382,-8.081,3.101,14
1.059,-0.040,0.093,0.113,-6.498,0.062,14
1.035,-0.077,0.021,1.824,3.572,-4.532,14
1.015,-0.106,-0.014,-2.297,2.278,-1.596,14
0.971,-0.051,-0.060,-9.665,0.371,3.550,14
0.942,-0.026,-0.074,-12.005,-4.844,3.170,14
0.945,-0.028,0.010,-4.427,-8.728,-1.562,14
0.942,-0.075,-0.058,1.754,-3.189,-4.981,14
0.960,-0.123,-0.050,0.951,-10.203,-6.294,14
1.000,-0.134,-0.032,-5.300,-11.354,-1.216,14
1.020,-0.126,-0.038,-8.373,-13.548,6.624,14
1.040,-0.060,0.066,-3.414,-16.785,4.690,14
1.040,-0.028,0.093,-0.830,-6.858,2.583,14
1.019,-0.048,0.055,-0.481,0.335,-1.424,14
0.997,-0.060,0.018,-4.217,-0.132,-3.012,14
0.973,-0.068,-0.029,-4.951,0.731,-0.215,14
0.947,-0.054,-0.069,-9.106,-7.757,1.478,14
0.946,-0.033,-0.007,-9.560,-10.167,1.374,14
0.939,-0.076,-0.059,-2.960,-13.116,-3.772,14
0.957,-0.103,-0.020,0.916,-15.993,-2.218,14
0.994,-0.139,-0.017,0.881,-17.324,-1.665,14
1.006,-0.108,-0.029,-2.367,-20.273,4.310,14
1.017,-0.064,0.056,-5.405,-26.388,3.619,14
1.014,-0.027,0.088,-0.481,-17.648,-1.009,14
0.992,-0.051,0.024,-2.890,-18.043,-3.841,14
0.991,-0.067,0.060,-9.211,-24.266,-2.771,14
0.995,-0.031,0.143,-9.316,-19.158,-1.976,14
0.950,-0.039,-0.043,-10.538,-23.187,-1.182,14
0.937,-0.084,0.080,-4.602,-37.861,-5.396,14
0.952,-0.076,0.087,-1.633,-28.078,-5.223,14
0.981,-0.133,0.096,-0.481,-26.819,-4.394,14
1.033,-0.148,0.170,-2.192,-26.927,-0.664,14
1.035,-0.083,0.177,-3.135,-16.137,2.099,14
1.009,-0.111,0.109,-5.265,-12.720,0.580,14
0.999,-0.056,0.105,-2.262,-14.411,2.445,14
0.970,-0.015,0.127,3.395,-13.368,-1.665,14
0.948,-0.039,0.095,3.395,-14.375,-5.258,14
0.939,-0.045,0.103,2.941,-20.489,-7.261,14
0.919,-0.087,0.046,0.671,-24.481,-8.781,14
0.925,-0.090,0.061,-1.983,-37.106,-6.985,14
0.950,-0.087,0.157,-2.157,-40.486,-4.739,14
0.968,-0.121,0.142,-4.113,-46.097,-4.325,14
0.978,-0.120,0.130,-5.544,-54.118,-2.045,14
0.954,-0.101,0.129,-12.179,-62.354,-0.733,14
0.966,-0.172,0.158,-17.452,-66.418,0.269,14
0.946,-0.054,0.216,-15.322,-64.620,2.894,14
0.931,0.014,0.328,-3.065,-55.628,-5.499,14
0.910,-0.049,0.317,2.522,-48.399,-12.131,14
0.919,-0.075,0.269,-0.202,-49.694,-13.789,14
0.901,-0.180,0.223,-8.303,-55.880,-8.677,14
0.877,-0.200,0.072,-24.506,-79.726,4.103,14
0.876,-0.079,0.361,-19.373,-94.867,18.886,14
0.880,-0.094,0.422,-5.579,-83.250,10.286,14
0.896,-0.088,0.538,2.417,-68.288,5.968,14
0.897,-0.061,0.440,-3.379,-67.137,-0.491,14
0.893,-0.155,0.398,-12.598,-73.108,0.580,14
0.878,-0.121,0.368,-26.951,-88.250,12.116,14
0.833,0.007,0.472,-26.322,-86.703,16.848,14
0.787,0.010,0.537,-17.347,-84.869,7.833,14
0.782,-0.019,0.569,-17.278,-75.410,-0.560,14
0.798,-0.129,0.569,-20.036,-73.503,-3.323,14
0.798,-0.062,0.658,-11.795,-67.785,8.731,14
0.789,-0.063,0.560,-7.151,-62.714,16.330,14
0.776,0.002,0.574,-8.687,-71.130,17.850,14
0.748,-0.090,0.558,-11.236,-75.625,14.914,14
0.730,-0.045,0.511,-15.706,-82.819,20.440,14
0.729,0.059,0.729,0.078,-82.891,12.565,14
0.762,0.040,0.736,11.741,-77.280,1.685,14
0.712,0.028,0.853,3.186,-67.749,4.621,14
0.694,0.063,0.782,-5.335,-58.038,1.512,14
0.677,0.002,0.706,-3.624,-53.938,-3.427,14
0.663,-0.036,0.684,-2.611,-60.160,-2.563,14
0.635,-0.042,0.662,-4.986,-74.259,2.825,14
0.604,0.002,0.719,-5.719,-85.948,6.935,14
0.600,0.032,0.891,0.951,-88.609,7.868,14
0.599,-0.035,0.810,-0.935,-70.446,-1.182,14
0.589,-0.059,0.828,-6.697,-70.087,-0.906,14
0.568,-0.062,0.801,-9.316,-69.403,11.840,14
0.541,0.033,0.822,-14.519,-71.094,9.940,14
0.510,0.044,0.805,-17.662,-83.106,11.978,14
0.515,0.099,1.008,-6.732,-67.677,-0.215,14
0.518,0.006,1.070,-0.376,-51.240,-0.215,14
0.506,0.031,0.990,1.195,-33.005,0.027,14
0.499,-0.000,1.021,1.440,-24.373,8.420,14
0.466,0.002,0.823,-6.487,-24.985,4.414,14
0.455,-0.012,0.861,-8.967,-42.141,-0.146,14
0.467,0.002,0.912,-8.687,-44.982,-1.147,14
0.452,-0.004,0.887,-7.500,-32.214,1.789,14
0.445,0.009,0.928,-8.478,-39.803,5.346,14
0.415,0.056,0.823,-13.541,-43.436,11.771,14
0.408,0.094,0.936,-13.471,-53.686,8.075,14
0.403,0.113,1.068,-2.332,-39.048,3.170,14
0.402,0.039,1.059,4.443,-19.014,-1.216,14
0.386,0.053,0.962,3.151,-11.965,2.065,14
0.366,0.029,0.900,1.055,-19.374,1.789,14
0.352,-0.027,0.874,1.929,-32.646,-0.077,14
0.376,-0.048,0.919,1.055,-35.919,4.897,14
0.381,0.037,0.953,-3.205,-34.660,15.708,14
0.368,0.058,0.954,-4.078,-32.826,11.840,14
0.360,0.085,1.107,-0.446,-22.215,12.807,14
0.335,0.075,1.002,5.281,-8.764,7.695,14
0.325,0.036,0.946,7.411,-5.311,8.628,14
0.328,0.074,0.921,5.840,-2.830,12.842,14
0.322,0.041,0.900,2.452,-5.024,12.496,14
0.318,0.064,0.953,1.998,-5.239,7.039,14
0.310,0.030,0.979,1.544,-1.319,1.374,14
0.307,-0.012,0.984,-3.310,-0.312,0.925,14
0.331,0.022,0.965,-2.786,-0.995,3.965,14
0.341,0.050,0.930,-2.157,1.954,3.827,14
0.338,0.059,0.893,-2.576,-1.607,4.897,14
0.339,0.074,0.934,-1.633,-4.160,2.583,14
0.312,0.083,0.955,-2.786,-1.787,1.547,14
0.291,0.081,0.965,-1.843,-1.139,-0.353,14
0.294,0.067,0.958,-1.284,0.515,-1.424,14
0.303,0.054,0.933,-1.564,2.098,-2.184,14
0.313,0.042,0.940,-1.214,1.594,-3.634,14
0.260,0.017,0.951,-2.227,2.421,-2.529,14
0.325,0.011,0.945,-2.541,0.803,-0.802,14
0.331,0.035,0.949,-1.249,0.587,0.960,14
0.335,0.043,0.954,-2.367,1.342,1.305,14
0.331,0.084,0.939,-3.414,0.192,0.269,14
0.319,0.084,0.916,-2.052,-0.600,-1.147,14
0.320,0.077,0.940,0.113,-1.319,-1.596,14
0.312,0.074,0.938,1.789,0.192,-1.355,14
0.310,0.073,0.952,0.881,-1.283,-1.389,14
0.312,0.067,0.945,1.090,-1.139,-1.424,14
0.310,0.058,0.937,1.440,-0.168,-1.527,14
0.306,0.015,0.947,0.567,0.443,-1.216,14
0.319,0.000,0.940,1.894,0.156,1.063,14
0.334,0.018,0.958,0.427,0.048,2.238,14
0.336,0.045,0.965,-1.144,0.839,3.067,14
0.331,0.069,1.231,-8.582,-14.842,46.553,15
0.352,0.154,1.745,-6.417,-9.663,55.188,15
0.421,0.373,2.146,-0.970,62.701,65.377,15
0.452,0.258,2.190,11.881,106.616,32.253,15
0.354,0.169,2.524,-0.621,194.661,16.676,15
0.199,0.105,2.466,-9.770,348.022,28.074,15
-0.005,0.229,2.122,-6.417,462.754,14.776,15
-0.275,0.199,1.865,9.227,576.767,22.720,15
-0.517,0.558,1.211,17.293,635.105,-17.450,15
-0.580,0.036,0.828,-7.360,665.424,-49.815,15
-0.470,-0.118,-1.154,4.582,665.856,-36.689,15
-0.114,0.159,-3.130,13.662,320.867,-24.462,15
0.246,-0.874,0.068,55.706,139.525,-80.383,15
0.375,0.329,-1.051,81.547,212.357,-8.435,15
0.518,-0.099,-0.446,-10.014,101.005,-19.523,15
0.813,0.259,-0.479,0.427,101.617,-12.822,15
0.934,0.122,-0.297,60.280,79.174,-20.835,15
0.893,0.049,-0.548,52.912,72.484,-22.217,15
0.863,-0.148,-0.645,-31.874,31.590,-3.116,15
0.962,0.053,-0.061,-14.763,-0.384,8.248,15
0.957,0.020,-0.107,-18.220,29.828,-12.027,15
0.976,-0.127,-0.223,-15.322,35.475,-1.216,15
0.983,-0.039,-0.145,-3.344,18.678,2.410,15
0.998,0.021,-0.180,38.246,23.282,-4.256,15
0.964,-0.024,-0.240,61.502,23.534,-2.045,15
0.933,0.059,-0.276,30.598,8.392,1.927,15
0.925,0.115,-0.282,-20.246,-3.837,-3.323,15
0.945,0.041,-0.322,-43.223,-10.994,-10.024,15
0.962,-0.050,-0.223,-67.772,-31.315,-2.425,15
1.003,0.011,0.027,-24.052,-21.029,2.687,15
0.972,-0.009,-0.236,-12.144,-2.398,-0.767,15
1.010,0.025,-0.045,22.427,-12.541,1.616,15
1.020,0.033,-0.138,22.566,6.162,-17.830,15
1.011,-0.085,-0.266,-4.706,-2.614,-11.060,15
1.038,-0.100,-0.122,-20.944,-13.152,-2.460,15
0.994,0.148,-0.154,18.760,0.335,3.481,15
0.939,0.025,-0.138,23.055,-0.600,-12.338,15
0.914,0.018,-0.239,4.582,1.163,-7.054,15
0.935,-0.020,-0.208,-1.459,-7.973,-11.302,15
0.951,-0.085,-0.272,-30.024,-18.115,-4.947,15
1.012,-0.038,-0.049,-30.931,-27.323,1.858,15
1.019,-0.030,-0.084,-13.646,-9.232,4.206,15
1.020,-0.023,-0.152,-3.449,-7.793,1.478,15
