ACC-X-Ring1,ACC-Y-Ring1,ACC-Z-Ring1,GYRO-X-Ring1,GYRO-Y-Ring1,GYRO-Z-Ring1,ACC-X-Ring2,ACC-Y-Ring2,ACC-Z-Ring2,GYRO-X-Ring2,GYRO-Y-Ring2,GYRO-Z-Ring2,TEST
-5.81,-11.14,17.66,6.05,-27.39,1.03,-8.97,15.85,10.72,4.39,-8.3,35.79,1
-3.59,-8.4,21.19,14.75,-13.13,-7.13,-6.1,14.97,10.54,21.0,3.91,48.24,1
-3.44,-10.56,19.95,5.66,21.73,-7.03,-4.95,19.19,9.15,42.43,9.08,23.68,1
-4.12,-8.14,20.01,43.65,33.5,-1.46,-4.37,18.43,6.6,7.71,0.63,-14.36,1
-4.45,-3.71,21.62,33.11,-6.01,20.26,-3.05,16.65,8.05,15.62,-17.19,7.96,1
-5.89,-5.31,14.89,-21.97,-32.67,0.78,-4.34,16.59,4.4,-17.14,0.39,-33.11,1
3.63,-6.42,30.32,30.18,-33.01,-7.62,-5.96,18.9,6.62,-0.24,0.88,0.63,1
-4.32,-4.39,20.1,8.79,-31.35,-5.27,-4.22,18.22,6.67,13.53,4.15,13.77,1
-2.02,-4.3,21.85,1.56,29.93,5.47,-4.32,21.07,3.48,83.94,21.29,19.68,1
-5.5,-6.58,21.43,52.05,128.17,1.76,-2.75,21.29,-0.91,40.53,17.97,15.28,1
-10.94,-0.31,16.71,33.89,32.18,22.22,-1.95,18.73,-3.01,39.16,-2.44,0.2,1
-8.8,1.61,21.29,7.91,2.44,1.46,-1.69,18.6,-2.87,8.79,-1.56,0.93,1
-10.51,2.98,18.34,7.57,4.1,2.49,-1.46,21.21,-2.5,-11.28,-2.2,-1.42,1
-10.91,2.77,19.86,-0.0,-11.91,-6.01,-3.22,17.6,-2.95,-3.17,-2.44,-3.47,1
-10.33,0.95,19.72,-10.35,-13.18,-6.64,-3.11,17.9,-2.4,9.86,-0.68,2.0,1
-10.67,-0.28,18.82,10.01,7.42,2.25,-1.94,21.47,-3.37,-1.03,3.42,-0.05,1
-10.04,0.6,19.34,25.24,0.29,11.38,-2.52,22.19,-2.15,-123.93,29.88,-21.48,1
-11.75,6.36,19.03,-68.9,-1.61,-23.83,-4.77,19.1,5.2,-124.66,15.63,-29.15,1
-7.57,-8.41,18.89,-134.62,-22.75,-64.21,-4.8,21.9,10.97,-154.39,10.45,-32.13,1
-6.1,-14.88,15.01,-115.72,-22.9,-49.56,-7.18,8.77,12.79,-234.13,18.16,-45.12,1
-4.92,-13.54,18.4,-163.53,-42.53,-57.91,-7.03,-14.91,16.87,-57.13,4.39,-11.96,2
-2.57,-21.44,7.47,-128.27,-23.0,-48.68,-6.28,-16.57,15.3,-37.79,9.08,-15.92,2
2.36,-26.78,4.27,-101.32,-10.5,-35.99,-7.11,-14.9,14.61,-15.82,9.72,-7.76,2
0.68,-20.86,-4.37,-114.7,-46.09,-50.05,-7.42,-15.47,14.02,-9.28,0.34,1.03,2
4.9,-22.78,-9.07,-94.78,-40.09,-44.53,-7.8,-15.04,14.17,0.2,-2.54,1.9,2
4.73,-20.62,-9.8,-45.07,-11.67,-15.58,-7.57,-14.12,14.83,7.71,-2.88,3.96,2
5.68,-17.98,-12.94,-34.38,0.59,-11.13,-7.68,-12.62,15.59,53.66,2.73,9.13,2
5.63,-15.37,-12.77,-21.97,-4.3,-1.61,-8.79,-3.81,17.93,98.24,2.69,22.75,2
5.15,-15.2,-13.72,-7.42,-7.32,-2.44,-8.73,-1.46,17.79,129.2,3.37,24.46,2
4.66,-14.24,-13.76,0.73,-7.57,-2.29,-8.84,-0.28,17.94,88.28,-4.35,17.29,2
4.54,-14.99,-14.25,6.25,0.29,5.18,-8.04,7.04,17.56,88.23,-9.91,20.61,2
4.01,-15.89,-11.85,48.78,7.81,28.32,-8.04,11.52,15.21,97.75,-2.44,21.83,2
1.02,-14.77,-10.5,87.11,30.42,44.19,-6.67,16.85,12.87,88.67,0.44,28.91,2
1.12,-18.28,-6.01,109.91,49.02,50.0,-5.38,21.62,8.5,91.89,-2.05,31.88,2
0.64,-21.25,0.31,84.37,26.71,28.91,-5.0,19.15,6.35,29.69,-6.3,14.11,2
-0.58,-19.26,6.33,83.54,13.28,26.61,-4.62,21.47,6.9,9.81,7.47,-9.28,2
-4.27,-18.12,7.86,95.7,14.89,32.67,-4.42,19.45,5.52,20.9,3.47,2.78,2
-6.03,-14.02,12.86,90.77,-4.88,36.38,-5.23,18.49,3.24,-8.25,-1.81,-2.15,2
-7.1,-6.46,16.94,92.72,3.08,31.93,-5.38,18.1,5.52,0.59,0.0,-3.96,2
-6.18,-7.32,19.73,36.47,-2.69,6.88,-5.21,18.97,4.86,2.64,-1.03,1.37,2
2.51,-21.06,-8.38,-133.4,-39.7,-15.82,-5.6,-17.44,16.32,-56.4,5.76,6.25,3
3.75,-23.3,-12.46,-79.39,-24.9,-18.6,-6.98,-14.96,14.24,-26.27,8.54,12.01,3
1.38,-17.48,-13.33,-23.97,-17.72,4.1,-6.84,-17.18,14.74,-7.57,0.29,1.76,3
0.85,-16.75,-13.35,-23.14,-13.38,-7.91,-7.0,-16.7,14.76,16.85,3.27,3.08,3
1.66,-17.41,-13.61,1.12,-1.17,-0.44,-7.02,-14.68,15.86,78.81,12.26,2.0,3
1.96,-18.76,-12.89,57.71,35.55,17.19,-8.17,-8.93,17.05,93.85,2.54,7.86,3
1.23,-19.36,-10.04,87.01,44.48,17.53,-8.72,-3.07,17.58,94.34,-4.2,21.44,3
-0.13,-19.65,-5.76,103.27,27.44,2.05,-7.81,2.18,19.56,111.33,-4.0,19.97,3
2.61,-23.22,1.5,100.49,28.56,9.81,-7.85,4.28,16.43,99.02,4.39,14.99,3
0.72,-21.64,5.72,82.13,20.07,7.32,-7.05,9.01,14.48,116.16,5.52,15.48,3
-0.52,-19.06,9.23,100.1,26.71,18.75,-7.24,17.61,10.9,116.31,6.79,16.7,3
-3.77,-13.34,14.16,125.63,27.98,33.4,-6.58,22.46,10.85,46.92,9.18,12.74,3
-4.32,-10.24,20.61,70.95,1.46,14.65,-6.85,17.72,5.31,32.67,9.77,3.52,3
-5.87,-8.13,18.32,43.46,15.82,17.63,-6.3,20.44,4.92,9.28,4.69,-0.54,3
-4.63,-6.0,22.32,21.09,0.39,3.76,-6.13,18.85,4.19,13.18,5.37,4.49,3
-5.56,-6.37,20.23,18.55,1.22,6.93,-5.87,19.43,3.62,21.39,-0.88,10.3,3
-5.83,-4.84,19.07,26.42,-3.17,7.62,-6.06,19.86,2.98,-7.76,-0.78,-2.44,3
-5.27,-5.19,21.74,-6.88,-8.4,1.27,-5.59,18.17,4.06,-4.25,-5.27,-6.74,3
-5.02,-5.47,20.37,-8.15,-0.2,-7.32,-6.38,19.49,3.45,0.54,0.15,-5.18,3
-5.57,-5.21,20.64,-1.32,1.03,1.71,-6.15,18.5,4.3,1.27,0.93,2.2,3
1.23,-19.81,13.4,-136.72,-52.78,-8.3,-7.22,14.15,16.1,-169.82,-24.71,-10.06,4
1.41,-18.92,3.85,-152.15,-72.66,-7.96,-4.99,-3.33,17.23,-174.22,-27.83,-2.1,4
1.27,-15.48,-4.91,-140.19,-64.01,-9.86,-3.11,-14.97,16.53,-178.37,-6.64,-24.51,4
3.45,-18.96,-10.25,-39.65,-23.68,2.64,-4.76,-11.89,17.33,-52.78,8.54,-9.08,4
2.58,-17.59,-10.55,-28.27,5.22,2.88,-5.74,-10.82,15.57,-37.84,4.69,-14.79,4
4.62,-16.21,-13.07,-38.97,16.11,4.83,-5.05,-16.98,13.69,-21.09,16.11,-11.87,4
4.59,-13.68,-12.98,-28.91,13.48,6.2,-4.78,-18.56,12.69,-27.93,17.14,-12.4,4
3.57,-13.67,-14.34,-11.72,-15.14,-0.63,-5.1,-17.79,12.19,-12.21,4.69,-2.83,4
2.62,-13.15,-14.73,-5.27,0.68,1.37,-5.12,-17.15,12.9,6.15,-3.76,-0.49,4
4.3,-15.46,-14.4,16.99,13.43,5.47,-4.62,-20.68,13.5,59.23,9.91,9.81,4
2.24,-13.77,-13.95,58.94,25.68,19.29,-6.12,-16.58,14.55,61.57,10.5,17.04,4
4.27,-18.36,-9.22,89.65,45.26,21.58,-6.52,-14.94,16.29,119.34,23.88,15.14,4
0.96,-17.91,-6.81,110.79,48.24,36.33,-8.04,-4.85,18.46,74.41,6.01,28.42,4
2.07,-20.53,1.9,100.44,42.19,21.09,-7.62,-2.73,16.05,136.82,15.87,29.0,4
-0.93,-15.9,6.39,157.52,51.51,38.23,-7.06,11.9,15.05,138.57,4.83,36.13,4
-0.59,-17.93,13.11,131.05,34.13,34.52,-5.74,17.83,10.61,150.24,10.5,26.22,4
-6.24,-5.66,17.33,122.17,20.36,46.63,-5.5,22.63,8.9,38.04,8.5,11.96,4
-5.81,-6.65,20.66,57.76,23.19,37.7,-6.78,18.2,1.22,30.96,17.92,4.25,4
-6.48,-0.69,22.47,14.4,-0.54,2.88,-5.76,18.37,2.45,-4.39,-2.25,-7.37,4
-5.85,-6.65,20.11,10.94,-3.56,3.52,-6.29,19.19,2.76,9.42,5.47,5.96,4
5.44,-4.04,19.98,1.22,3.13,-0.34,-0.29,18.86,6.43,0.24,0.39,3.61,5
5.78,-3.28,20.26,0.2,-3.17,0.05,0.0,17.9,7.27,1.27,-2.83,0.54,5
4.73,-3.96,19.98,7.18,-3.96,0.34,0.61,19.27,6.51,3.03,2.69,7.76,5
6.67,-2.26,20.49,2.88,0.05,2.83,0.64,18.64,6.79,-5.42,0.29,-15.33,5
5.23,-3.65,19.92,-9.81,7.37,-1.86,-1.37,18.0,6.71,0.29,0.44,-4.83,5
3.8,-3.69,19.72,-0.49,-3.52,0.98,0.37,18.75,6.98,-2.05,4.59,-1.66,5
5.98,-3.66,20.25,-1.9,2.93,5.47,-1.79,18.39,6.99,-1.61,-0.24,-10.21,5
3.31,-4.12,19.69,-2.88,4.64,0.15,-0.14,17.9,7.4,-2.98,-1.95,11.62,5
6.28,-4.71,19.53,4.05,-4.0,2.25,-0.99,19.85,6.15,2.05,4.69,-6.74,5
4.61,-3.1,21.05,-8.5,-2.1,3.52,-2.22,17.9,7.22,1.42,-7.91,10.35,5
4.7,-4.16,20.42,4.93,-4.39,-11.23,2.13,19.44,7.82,-3.71,3.17,-5.18,5
6.36,-2.7,19.54,-7.08,8.4,4.49,-1.95,18.68,6.76,4.83,2.49,-16.75,5
2.05,-3.85,20.4,1.32,4.44,3.76,0.11,18.53,7.83,-0.05,3.37,8.94,5
5.48,-4.29,20.06,4.1,-6.35,9.23,-1.58,19.03,6.69,3.17,6.1,-2.44,5
4.0,-2.96,20.56,2.25,1.66,5.86,-1.52,18.5,7.12,-5.03,-3.32,-8.69,5
3.8,-3.86,20.08,-7.03,6.1,-2.29,-1.32,18.3,7.79,-5.57,-5.37,-1.12,5
3.87,-4.86,19.69,-5.96,-2.54,-1.32,-1.39,17.78,7.73,-0.73,-4.35,5.86,5
4.15,-5.3,20.14,3.76,-13.04,0.0,-1.01,18.37,7.92,1.03,-6.05,16.5,5
6.0,-5.49,21.11,7.03,-19.92,-1.27,0.36,18.58,7.3,1.42,0.49,5.08,5
6.67,-4.05,20.19,0.49,-4.98,-0.73,-0.6,19.18,7.04,1.27,3.66,-8.79,5
1.3,-5.61,20.53,5.66,-17.29,-0.29,-3.39,17.79,7.31,-4.79,-19.04,-3.47,6
2.02,-5.27,20.51,5.42,-17.53,4.64,-2.02,18.33,8.07,5.08,7.37,-8.15,6
3.11,-5.06,20.74,2.78,-9.18,0.15,-3.13,19.1,8.26,-0.24,14.7,-15.23,6
3.03,-5.04,20.37,1.51,-3.22,-1.22,-5.39,19.28,6.39,-29.25,24.51,-19.24,6
3.15,-5.11,20.38,2.05,-3.12,0.1,-5.45,14.3,9.59,-15.48,-2.49,3.96,6
3.46,-4.95,20.43,1.03,-1.12,0.15,-5.32,17.56,8.4,12.99,-1.56,14.99,6
3.16,-4.89,20.37,1.17,-1.17,0.93,-3.9,18.19,8.17,8.25,-5.18,1.46,6
3.67,-5.2,20.32,0.68,-2.25,1.37,-3.64,18.13,8.76,2.05,-3.42,0.59,6
3.66,-4.16,20.62,-1.27,2.1,0.83,-3.88,17.64,8.49,2.34,-0.1,3.76,6
2.15,-6.27,19.92,-7.67,26.27,-4.59,-3.54,18.85,7.79,8.35,2.49,5.37,6
2.97,-5.05,21.94,2.0,2.88,3.86,-3.78,18.0,7.94,1.46,-3.27,4.98,6
2.83,-4.44,26.8,0.93,71.92,-1.56,-2.7,18.75,7.76,-2.54,-4.25,5.22,6
-7.07,10.04,22.97,-135.74,-18.26,-1.61,-2.94,18.03,7.94,-1.51,-2.88,3.76,6
1.65,-20.39,-1.91,-318.31,-86.38,-14.7,-2.51,18.34,7.67,-0.15,-3.17,0.44,6
3.06,-17.68,-5.5,-170.56,-54.74,-25.15,-2.97,18.76,7.81,2.73,-2.1,0.34,6
5.47,-19.1,-11.13,-82.81,-5.42,-20.95,-2.58,18.17,7.87,0.68,-1.17,1.86,6
4.54,-14.8,-12.63,-48.68,14.5,-19.09,-2.54,18.21,7.76,0.44,-0.44,-0.73,6
4.44,-14.5,-16.66,-22.85,2.39,0.1,-2.58,18.2,7.66,0.05,-1.27,2.44,6
4.03,-13.96,-14.74,-5.18,-10.25,-4.98,-2.47,18.36,7.7,0.88,0.34,0.44,6
4.07,-12.5,-14.11,1.42,-7.81,2.39,-2.43,20.49,7.84,-0.29,-1.32,-3.96,6
-0.13,-13.44,8.14,-189.16,-68.9,4.15,-4.93,-25.21,14.63,-128.81,3.56,-28.86,7
1.45,-20.01,-4.1,-205.13,-86.77,1.61,-5.94,-12.68,12.32,-35.84,11.38,-5.66,7
2.46,-22.71,-13.65,-88.87,-31.59,-0.34,-2.92,-16.94,14.22,-26.71,9.52,-7.23,7
-0.35,-14.44,-11.4,-32.52,-10.06,2.49,-4.64,-19.66,12.3,-16.94,6.3,-14.6,7
2.87,-16.31,-14.11,-28.37,0.15,6.05,-5.17,-18.61,11.21,-0.88,4.05,10.94,7
0.92,-15.63,-16.47,-11.52,15.48,6.93,-5.9,-15.23,11.12,8.74,-7.52,-5.47,7
0.2,-14.2,-15.88,5.42,-9.18,6.88,-3.95,-20.12,14.05,9.72,-8.06,-7.08,7
0.41,-13.89,-13.07,5.47,9.81,-7.67,-4.42,-17.27,11.88,15.72,6.45,3.17,7
1.99,-16.3,-17.56,8.79,10.99,-1.07,-4.21,-18.87,12.79,18.46,-1.86,-1.17,7
1.36,-13.71,-13.93,21.68,-2.34,13.09,-4.34,-16.5,14.96,63.38,4.79,-1.9,7
2.57,-15.85,-13.44,22.61,4.64,0.83,-4.14,-14.38,17.7,71.53,1.12,-1.51,7
4.08,-18.66,-11.35,60.01,38.23,5.91,-6.28,-2.65,18.47,111.62,-6.4,14.79,7
5.13,-22.85,-9.74,76.32,46.19,-0.98,-4.44,-4.26,19.57,109.62,-9.62,28.37,7
1.89,-16.79,-3.74,88.67,45.56,12.06,-4.01,5.06,18.29,139.79,-5.27,31.98,7
5.75,-22.26,0.85,98.83,36.91,11.13,-3.08,15.52,13.64,177.0,-8.98,10.74,7
2.16,-20.51,5.87,142.43,37.01,23.63,-2.57,16.82,9.65,82.32,-3.08,0.44,7
-1.87,-12.47,13.7,150.78,58.64,18.7,-3.09,16.69,8.79,56.64,-9.23,-8.35,7
-1.78,-9.65,19.16,77.54,25.59,12.4,-4.21,14.85,3.28,-3.61,21.09,-39.4,7
-2.87,-9.74,19.61,46.39,-1.61,16.89,-3.05,25.61,3.67,11.72,-6.64,21.24,7
-7.13,-3.01,16.28,16.26,12.79,22.71,-4.18,18.0,3.86,-6.1,-5.13,12.45,7
3.95,-21.37,-11.4,-96.97,-26.22,-14.84,-2.83,-14.87,16.71,-51.47,1.07,-16.8,8
2.92,-18.95,-15.74,-46.44,-4.54,-3.56,-3.84,-15.61,14.13,-20.75,7.57,1.37,8
2.13,-14.32,-12.94,-14.6,-6.59,5.71,-3.41,-15.92,13.11,-16.31,1.71,-2.69,8
2.79,-14.58,-13.86,-15.19,-15.92,-3.42,-2.83,-18.28,12.87,-12.99,0.98,-3.61,8
1.56,-14.32,-15.0,0.83,1.81,5.18,-3.58,-15.59,12.6,-0.05,-2.25,-6.15,8
1.73,-13.59,-15.19,-1.9,5.66,-2.98,-2.39,-17.64,12.95,3.52,-3.32,-4.35,8
3.05,-15.64,-14.61,9.28,10.4,-0.15,-2.93,-19.43,14.05,35.79,1.46,5.42,8
5.28,-17.78,-12.25,79.69,58.74,10.74,-3.38,-8.49,17.76,85.84,5.27,13.09,8
6.2,-20.61,-11.63,59.96,47.31,3.32,-5.16,-8.51,16.34,163.82,15.19,28.76,8
4.63,-18.67,-3.63,137.3,65.33,18.41,-4.87,2.96,20.88,96.0,-7.32,10.06,8
6.39,-23.53,2.62,62.6,27.1,3.52,-5.5,6.04,19.49,114.36,-0.24,12.55,8
2.56,-18.2,7.77,68.7,26.22,10.45,-5.19,7.44,18.24,80.96,1.22,10.16,8
2.71,-18.25,11.22,69.09,24.12,12.84,-4.89,12.14,15.34,110.11,5.42,8.11,8
-0.24,-14.2,14.8,97.66,34.03,18.99,-4.96,18.74,12.59,93.99,3.03,16.11,8
-2.74,-9.28,19.06,64.26,9.81,15.33,-5.53,17.44,8.95,33.59,-0.73,5.03,8
-1.96,-8.17,20.28,40.87,-6.01,7.81,-4.38,17.28,8.6,30.18,0.78,4.49,8
-2.42,-5.78,20.03,26.76,2.0,5.71,-4.29,19.39,7.31,1.22,-4.44,4.1,8
-1.56,-7.15,21.34,7.08,-10.21,0.44,-4.18,17.4,7.28,2.49,-0.34,4.69,8
-1.08,-5.82,21.14,8.45,-3.66,0.24,-4.04,18.94,6.98,-1.9,0.24,-0.88,8
-1.44,-6.69,20.77,-5.08,-1.66,0.59,-4.01,18.52,6.67,2.39,-1.61,2.44,8
3.38,-19.63,3.4,-231.54,-80.47,8.45,-6.43,0.67,15.25,-216.6,9.77,-14.7,9
1.92,-15.38,-4.68,-217.14,-73.54,5.76,-5.75,-17.04,13.99,-64.94,13.92,-16.94,9
3.98,-16.5,-10.7,-66.7,3.66,3.42,-4.67,-14.22,14.64,-28.13,20.21,-14.5,9
3.68,-15.8,-13.19,-30.62,2.64,15.14,-6.65,-16.61,11.02,-18.12,16.06,-7.13,9
2.09,-13.14,-13.34,-17.97,-3.61,17.72,-5.15,-16.89,11.77,-16.46,13.23,-8.79,9
2.25,-14.25,-14.95,-21.29,-1.76,12.16,-6.97,-17.59,9.75,-1.27,-7.86,7.57,9
0.61,-12.54,-14.52,5.81,-9.42,-4.93,-5.45,-20.1,12.86,4.1,-9.47,-0.49,9
2.69,-15.57,-16.65,6.3,-1.76,-6.01,-6.12,-18.46,12.2,23.97,-0.73,2.64,9
2.87,-16.44,-12.97,25.73,11.08,1.46,-6.06,-15.33,14.89,83.3,3.61,22.56,9
3.19,-17.8,-12.53,83.5,37.4,8.74,-7.28,-6.73,18.08,140.04,8.25,39.36,9
2.75,-20.86,-8.82,141.16,55.13,34.13,-8.15,3.01,16.28,171.92,-6.35,60.55,9
0.08,-18.5,1.87,169.53,49.76,31.01,-6.02,10.41,15.24,156.59,-15.77,52.05,9
-2.12,-16.96,7.75,162.21,20.26,28.71,-4.83,16.95,10.68,151.71,-3.66,29.69,9
-4.22,-11.15,14.48,150.88,22.9,24.8,-4.61,20.52,6.21,52.2,-7.47,11.38,9
-4.1,-4.41,19.27,49.27,-12.6,6.64,-3.47,15.79,5.96,30.71,-6.88,-27.0,9
-1.84,-6.05,17.67,19.87,-9.28,11.43,-4.15,18.21,0.4,1.61,8.11,-62.94,9
-8.1,2.0,16.31,3.61,41.55,18.41,-4.5,20.01,4.28,-10.99,-11.77,-6.54,9
-0.87,-5.27,22.76,-15.53,-4.44,-9.67,-5.16,19.48,3.38,6.01,3.56,11.43,9
-1.94,-3.34,21.64,11.08,-7.81,3.76,-4.71,18.99,3.26,-1.56,-3.17,-0.59,9
-1.73,-3.78,21.07,-0.98,0.29,-1.37,-4.96,19.25,2.85,-0.73,-2.05,-1.37,9
-1.63,-6.81,20.53,-1.07,-0.88,0.83,-6.64,17.93,6.81,-1.03,-0.63,-1.76,10
-1.58,-6.83,20.54,-0.93,1.03,0.63,-6.67,17.78,6.87,-0.44,-0.1,1.95,10
-1.42,-6.8,20.62,1.32,-2.69,1.17,-6.66,17.74,6.95,-0.68,0.24,0.88,10
-1.2,-6.98,20.72,0.15,-0.05,1.22,-6.72,17.95,6.84,-0.34,-0.1,-0.83,10
-1.51,-6.67,20.39,-0.2,-0.78,0.68,-6.72,17.34,6.63,-0.59,-0.39,1.95,10
-0.9,-7.28,21.03,0.68,-2.98,-0.05,-6.67,17.78,6.83,-0.15,-0.15,0.29,10
-1.45,-6.74,20.47,1.46,-8.5,3.13,-6.65,17.87,6.87,-0.59,-0.73,-2.29,10
-1.51,-7.05,20.37,0.1,-0.73,0.54,-6.71,17.72,7.01,-0.1,-1.03,-0.34,10
-1.08,-6.91,20.61,1.17,-1.07,0.68,-6.76,17.86,6.8,-0.05,-0.05,0.98,10
-1.23,-6.69,20.41,0.68,-1.66,1.22,-6.62,17.68,7.06,-0.83,0.88,1.22,10
-0.88,-6.68,20.89,1.51,-2.54,2.54,-6.73,17.59,6.97,-1.03,-0.1,-1.46,10
-1.05,-7.11,20.48,-0.39,-0.98,0.68,-6.9,17.92,6.73,-0.63,-0.73,-1.76,10
-1.53,-6.68,20.24,-1.42,1.27,-0.29,-6.86,17.52,6.94,0.39,0.15,0.49,10
-1.45,-6.97,20.3,1.71,-1.27,1.51,-6.83,17.68,6.82,0.44,-0.05,0.39,10
-1.19,-7.0,20.47,0.68,-2.78,1.37,-6.77,17.92,6.86,0.1,-0.44,-0.68,10
-1.28,-6.69,20.56,0.24,-0.24,0.29,-6.7,17.79,7.16,0.29,-0.63,-0.49,10
-1.3,-6.89,20.19,1.12,0.05,1.22,-6.74,17.78,6.96,-0.34,0.0,0.98,10
-1.07,-6.83,20.56,0.1,-0.83,1.03,-6.69,17.96,6.9,0.39,0.15,1.22,10
-0.96,-6.65,20.62,1.17,-1.03,1.17,-6.7,17.7,7.03,-0.2,-0.29,-0.98,10
-1.11,-6.89,20.34,0.34,0.24,0.63,-6.65,17.85,6.99,-0.98,-0.54,-0.49,10
3.04,-17.77,12.33,-137.94,-72.56,36.08,-7.13,6.82,15.75,-179.35,-4.54,-10.11,11
2.96,-16.72,8.58,-140.67,-80.76,30.03,-5.7,-9.13,13.79,-235.84,-18.85,-24.22,11
0.17,-17.35,-2.31,-207.08,-98.39,57.52,-4.81,-13.87,16.75,-50.44,-7.47,-6.93,11
3.37,-23.78,-10.87,-118.75,-50.78,17.04,-5.27,-16.52,14.1,-25.83,8.98,-12.6,11
0.71,-17.77,-13.55,-41.8,1.32,6.69,-5.53,-15.46,13.5,-11.91,-1.9,-7.96,11
-0.56,-14.91,-12.41,-13.43,-7.23,3.03,-4.49,-16.55,13.59,-9.67,-2.39,-7.47,11
0.55,-16.16,-14.16,-9.08,-4.3,0.78,-4.38,-17.73,13.07,-7.57,0.88,-5.52,11
-0.65,-14.41,-14.33,-5.37,-6.59,0.83,-4.23,-17.43,13.5,-1.61,-3.32,-1.81,11
-0.91,-14.55,-14.4,-1.42,-2.78,-0.63,-4.4,-16.26,14.46,11.62,1.42,3.08,11
-0.16,-15.72,-14.45,8.94,9.38,1.56,-4.83,-14.89,15.09,52.49,12.65,16.06,11
2.59,-18.32,-13.55,44.97,34.52,7.08,-5.4,-16.07,16.15,117.04,23.54,22.12,11
2.87,-19.67,-11.49,54.05,31.45,2.39,-8.55,-6.5,15.38,182.62,26.07,43.31,11
3.97,-22.4,-7.44,134.52,78.81,-1.17,-9.42,0.87,15.26,149.41,12.45,40.33,11
1.98,-20.36,1.07,139.45,44.43,1.61,-8.81,10.0,12.0,153.52,3.91,31.84,11
0.76,-16.32,9.57,148.63,32.23,-3.61,-8.19,15.48,9.83,86.43,-0.24,16.21,11
-0.33,-10.94,15.66,120.61,33.74,-9.81,-6.95,15.96,7.84,26.42,-11.33,-0.78,11
-0.43,-6.83,19.88,41.75,-2.05,-7.42,-2.81,28.0,13.85,32.62,1.56,2.83,11
-0.06,-10.01,22.76,18.41,-8.69,-2.78,-6.25,19.58,8.0,2.29,-2.1,14.06,11
-4.53,-5.65,15.8,5.03,3.91,7.37,-7.15,16.58,7.88,-6.93,-1.66,-4.2,11
-0.37,-7.73,20.58,-8.5,0.49,2.69,-6.91,16.91,8.02,-0.63,-0.15,1.56,11
0.26,-10.14,11.27,-145.85,-75.05,15.28,-6.96,3.71,13.92,-195.85,-14.89,-5.18,12
5.7,-21.52,3.81,-136.33,-87.11,21.0,-6.61,3.25,18.15,-146.24,-17.92,3.81,12
5.22,-22.16,-4.37,-136.72,-93.36,23.54,-6.31,-6.28,16.47,-124.22,-24.32,-4.25,12
4.06,-20.44,-8.61,-82.57,-37.7,6.05,-3.97,-12.32,17.74,-62.26,-9.62,-13.57,12
1.85,-18.91,-14.75,-26.22,-16.46,5.96,-4.82,-13.01,15.6,-17.48,1.9,2.88,12
1.36,-16.0,-12.61,-14.7,0.73,6.2,-3.87,-16.47,15.39,-19.29,6.1,-4.98,12
-0.64,-15.61,-14.81,-3.47,-8.11,10.25,-4.86,-14.06,14.05,-10.55,-1.07,8.35,12
-0.73,-14.83,-12.89,-4.0,0.73,1.66,-4.57,-14.72,14.78,-2.93,-7.23,-0.34,12
0.33,-16.21,-13.6,3.66,3.37,-1.37,-4.41,-16.52,15.05,-3.08,-0.44,-2.93,12
0.43,-15.68,-13.55,6.74,4.25,4.15,-4.26,-16.78,14.28,2.05,0.34,0.93,12
-1.13,-14.2,-13.13,17.38,3.96,2.73,-4.35,-14.84,14.91,11.67,-2.69,1.22,12
1.34,-17.78,-12.72,20.9,18.31,1.71,-4.76,-13.05,16.33,37.79,4.64,-0.49,12
1.1,-17.43,-11.52,25.44,20.46,0.68,-4.7,-14.2,17.14,37.89,7.62,-2.93,12
1.67,-17.42,-10.5,41.11,26.37,-0.83,-4.42,-15.18,18.34,33.59,8.64,1.95,12
3.89,-20.9,-7.72,87.99,49.85,-6.2,-6.9,-4.17,18.41,81.88,13.33,15.38,12
4.46,-17.91,-1.13,60.01,35.94,-14.4,-6.59,-1.16,20.06,40.72,-6.15,-0.49,12
7.58,-25.11,-0.74,37.6,24.41,-12.74,-6.39,-0.01,19.45,110.64,1.56,13.53,12
5.16,-20.99,4.18,84.91,38.92,-7.71,-6.77,7.66,18.85,101.56,0.68,14.5,12
6.14,-20.73,8.78,65.04,39.5,-9.33,-6.56,11.6,17.88,100.63,1.37,10.11,12
5.07,-18.32,13.11,50.44,15.19,-9.91,-6.31,13.77,15.77,92.28,3.27,8.35,12
1.91,-12.87,12.24,-142.19,-66.99,25.83,-7.18,-1.42,16.49,-143.02,-15.33,0.83,13
6.0,-21.63,3.88,-158.15,-93.16,44.29,-5.93,-9.6,16.77,-99.41,-17.14,-5.71,13
2.7,-18.54,-2.14,-120.02,-77.88,40.04,-4.92,-8.53,17.81,-32.32,-14.11,-2.15,13
1.57,-18.96,-7.43,-90.63,-51.17,19.92,-4.49,-13.11,17.43,-38.77,-7.42,6.05,13
-0.95,-15.61,-11.71,-33.11,-8.79,3.22,-5.04,-12.99,14.11,-17.87,-0.39,5.81,13
-0.57,-16.45,-13.38,-30.37,-19.63,6.3,-4.41,-14.57,14.86,-0.78,-5.62,-6.74,13
-1.23,-14.5,-11.14,-7.08,-14.99,6.69,-3.76,-15.66,16.15,4.78,-0.34,-0.34,13
0.03,-16.31,-11.76,-7.62,-2.83,-3.66,-4.26,-14.85,14.82,3.37,1.66,1.66,13
0.4,-17.25,-13.85,5.37,4.93,0.2,-4.23,-16.56,16.17,20.12,4.93,0.78,13
-0.79,-15.84,-12.89,8.3,0.88,3.86,-4.93,-12.06,16.98,46.53,15.82,3.56,13
1.4,-19.08,-11.94,19.73,14.06,-2.0,-5.51,-10.57,17.19,27.44,5.76,0.88,13
1.0,-18.08,-10.25,48.88,29.98,-0.39,-5.54,-11.42,17.96,32.47,6.35,2.93,13
1.26,-17.67,-8.77,25.54,18.41,-2.29,-6.26,-7.36,19.04,80.37,13.62,13.33,13
2.54,-20.08,-7.85,28.86,19.34,-5.52,-7.52,-1.75,19.34,70.21,10.3,12.84,13
3.88,-21.64,-4.46,73.34,42.58,-11.87,-7.55,0.14,19.1,68.46,6.59,10.25,13
2.91,-20.19,-0.69,67.38,36.23,-8.01,-7.35,5.39,18.28,67.77,5.22,7.91,13
4.51,-20.86,3.5,62.5,34.81,-8.84,-7.18,9.95,15.54,74.61,0.24,6.25,13
3.66,-19.11,7.82,62.45,36.77,-7.23,-7.82,15.66,13.43,80.32,-9.28,2.54,13
2.95,-15.77,11.61,66.6,35.16,-8.11,-7.1,19.33,11.32,79.64,-6.01,11.87,13
1.33,-11.98,15.36,70.61,25.15,-1.9,-6.49,17.4,11.18,33.35,0.2,2.54,13
-0.22,-5.31,21.12,-8.11,-1.37,-3.27,-8.39,19.75,4.78,-1.71,-0.34,-3.42,14
0.4,-8.26,20.19,-20.17,-11.67,-1.46,-8.97,18.03,7.53,-13.72,2.39,-3.96,14
2.53,-4.4,21.92,-47.9,-31.69,1.46,-8.84,23.88,8.51,-29.35,1.17,14.99,14
1.51,-10.0,15.62,-125.88,-65.53,25.05,-9.19,18.18,8.63,-124.17,-9.91,-18.65,14
3.52,-17.41,9.07,-87.35,-59.23,14.7,-9.29,5.9,12.94,-107.23,-11.23,-7.86,14
5.87,-19.2,5.52,-64.26,-50.98,7.57,-7.7,6.26,18.83,-76.22,-11.67,18.21,14
4.99,-18.84,1.79,-85.79,-65.62,23.39,-7.57,6.29,19.8,-90.19,-9.62,1.95,14
5.63,-21.15,-2.65,-71.29,-44.43,21.0,-7.44,-4.21,18.7,-88.87,-5.96,-10.16,14
3.58,-19.23,-5.0,-41.31,-27.69,13.77,-6.64,-4.12,19.72,-45.61,-6.1,-3.22,14
2.54,-17.65,-7.14,-56.15,-30.42,15.67,-6.67,-5.91,18.35,-55.71,-6.35,-11.47,14
0.78,-18.19,-12.19,-48.83,-31.1,6.64,-5.86,-11.3,17.45,-55.32,-8.54,-12.21,14
1.09,-17.02,-11.34,-7.72,-7.18,1.86,-5.78,-10.94,17.66,-0.68,0.73,3.81,14
1.06,-16.6,-12.78,-17.09,-10.94,2.54,-5.93,-13.95,15.87,-27.25,5.57,-20.75,14
0.01,-17.04,-15.18,-21.29,-8.4,6.98,-5.02,-14.31,15.67,-20.8,-8.94,-13.23,14
0.87,-15.72,-12.0,2.88,-6.59,3.03,-5.22,-14.07,15.55,2.25,-0.24,14.75,14
0.64,-16.36,-12.73,5.22,-1.66,4.3,-5.52,-14.69,15.26,-3.37,5.57,0.93,14
2.34,-19.43,-12.67,26.27,26.12,4.2,-5.16,-15.89,16.14,17.48,4.2,2.2,14
0.55,-15.41,-9.88,82.08,61.87,-0.83,-6.37,-6.54,16.98,108.94,16.8,14.5,14
3.42,-20.93,-6.45,72.07,46.44,-12.45,-7.1,-8.41,17.94,78.37,8.59,24.76,14
2.94,-19.67,-0.96,91.45,38.92,-10.5,-7.4,2.65,20.8,108.89,3.56,30.08,14
1.47,-17.69,-9.71,-99.46,-53.37,28.56,-5.76,-11.44,15.24,-29.39,16.75,-16.75,15
-0.39,-17.95,-13.11,-34.72,-25.88,11.52,-4.8,-12.23,15.64,-11.18,4.83,15.92,15
-0.95,-18.25,-16.99,-19.43,-8.11,0.1,-4.82,-14.41,14.48,-12.16,-6.74,-7.13,15
0.06,-15.3,-12.91,-10.94,2.44,-1.37,-4.23,-13.79,16.33,1.61,-0.78,-8.06,15
0.64,-17.34,-13.55,4.44,-2.69,-0.39,-3.96,-16.35,14.97,14.06,5.47,-3.91,15
0.26,-15.53,-14.41,3.22,14.99,8.84,-4.1,-15.21,15.51,30.66,7.32,-4.05,15
1.63,-16.57,-13.87,6.15,23.24,4.54,-5.24,-10.85,16.16,49.02,11.13,8.35,15
1.95,-17.86,-13.06,33.79,20.61,2.49,-4.76,-13.34,17.09,8.94,3.61,0.1,15
1.56,-17.41,-11.06,3.03,0.29,2.49,-5.62,-11.95,17.11,50.44,9.86,10.5,15
2.34,-18.98,-10.4,35.16,22.85,-0.24,-6.28,-6.59,18.99,110.3,16.8,20.65,15
5.03,-21.55,-7.87,68.85,62.01,-11.72,-7.2,-2.67,18.86,122.9,16.6,20.31,15
5.5,-22.44,-3.17,93.41,67.04,2.78,-7.91,4.97,15.91,155.76,15.77,27.59,15
3.8,-21.54,2.66,131.4,58.25,8.2,-7.34,14.33,11.41,131.2,4.3,20.12,15
0.62,-13.99,10.92,149.07,54.93,7.71,-6.5,17.27,8.26,79.98,-1.66,14.5,15
-2.52,-7.74,15.83,111.67,25.98,6.79,-5.76,20.51,5.5,65.58,-4.54,1.56,15
-0.97,-7.72,19.6,85.55,19.82,0.34,-7.89,26.96,7.78,12.94,-9.03,4.93,15
-1.76,-4.04,21.67,7.47,8.11,-9.42,-6.88,16.36,3.87,-3.56,1.32,10.99,15
-4.5,-3.65,18.07,2.44,27.73,10.4,-7.55,17.0,4.37,-10.99,-4.74,-9.37,15
-0.53,-5.13,22.59,-9.72,4.1,-1.81,-7.85,18.23,4.28,0.63,1.86,-0.63,15
-1.42,-7.16,20.88,-1.27,-0.93,2.1,-7.14,18.15,5.16,-2.05,-0.93,-0.39,15
4.81,-13.02,19.13,-40.92,-27.15,3.76,-6.36,15.76,11.78,-45.26,-4.69,-2.39,16
3.3,-15.08,12.84,-108.01,-61.04,13.13,-7.05,11.82,13.07,-122.51,-7.23,-5.18,16
4.04,-16.27,10.18,-121.78,-61.91,21.83,-6.57,11.72,16.15,-132.13,-15.77,-4.3,16
4.49,-20.94,2.03,-133.3,-66.02,29.88,-5.65,0.27,18.25,-144.48,-10.06,-11.52,16
4.21,-20.7,-4.3,-102.34,-56.3,16.46,-5.26,-6.32,18.43,-112.99,-10.6,-1.12,16
2.98,-20.08,-9.19,-71.53,-35.45,11.08,-4.22,-12.39,18.28,-80.52,-12.5,-12.89,16
2.0,-17.66,-10.88,-38.62,-10.89,4.59,-3.99,-12.67,17.11,-37.5,-6.25,-7.28,16
1.16,-19.03,-14.38,-12.99,-10.84,7.42,-3.5,-18.07,16.69,-28.13,1.71,-7.57,16
-0.87,-14.66,-14.26,-8.98,-1.66,9.28,-3.9,-14.77,14.79,-9.91,0.68,-4.79,16
0.53,-15.96,-13.25,0.29,-4.49,1.76,-3.64,-14.72,15.49,-2.49,0.2,5.42,16
0.81,-16.24,-13.29,-0.0,-0.93,0.2,-3.56,-15.34,15.47,-1.32,-0.29,-2.05,16
0.7,-15.92,-13.22,8.01,5.13,1.42,-3.46,-14.75,15.63,6.01,1.37,-2.44,16
0.49,-16.26,-13.47,7.13,9.47,1.9,-3.51,-14.76,15.85,9.18,2.34,-4.79,16
0.85,-16.97,-13.15,4.3,5.71,3.03,-3.44,-14.28,16.37,4.35,2.98,-4.83,16
0.59,-16.61,-11.63,52.39,31.54,3.17,-4.32,-12.38,16.64,53.32,14.06,3.86,16
2.75,-19.69,-8.95,76.61,42.29,-5.32,-4.52,-11.94,17.6,77.05,12.55,4.98,16
3.92,-21.59,-4.4,118.07,67.77,-4.74,-5.92,-7.09,18.27,135.84,23.58,7.47,16
1.83,-18.61,2.05,166.02,67.33,-5.47,-7.54,2.61,16.3,171.09,16.89,20.41,16
1.61,-17.13,10.81,111.72,47.31,-11.13,-7.53,8.48,15.31,117.92,14.01,0.73,16
3.48,-17.13,15.52,32.08,7.76,-6.2,-7.38,12.31,15.11,34.62,-0.59,2.0,16
-0.91,-6.41,17.24,-65.33,-28.27,0.63,-7.09,7.5,16.85,-151.71,-23.19,-8.15,17
3.07,-15.36,13.84,-131.4,-51.03,7.18,-5.9,-3.93,18.48,-155.32,-21.0,-10.64,17
1.63,-17.78,4.65,-162.21,-65.67,22.46,-4.19,-9.57,18.53,-116.31,-18.41,-8.06,17
2.28,-19.56,-4.38,-144.97,-64.89,18.26,-4.22,-14.17,16.63,-67.77,-6.64,7.28,17
2.01,-19.88,-11.74,-101.32,-43.6,10.99,-4.8,-14.19,15.49,-29.2,3.76,5.96,17
1.27,-18.24,-12.41,-46.78,-16.5,5.47,-4.68,-16.08,13.92,-8.01,14.26,-3.37,17
0.87,-17.16,-12.31,-13.43,-6.1,8.5,-5.81,-14.03,13.74,2.05,2.29,3.22,17
-1.8,-14.72,-13.7,1.03,-17.58,7.62,-5.11,-13.9,15.74,6.3,0.1,6.54,17
-1.17,-16.3,-13.66,1.37,5.91,-1.37,-6.05,-17.04,15.12,51.46,8.84,2.69,17
-0.68,-17.54,-12.49,16.26,6.2,2.59,-6.56,-8.46,17.1,34.13,2.39,-6.54,17
-1.43,-17.22,-11.53,71.87,41.41,2.49,-5.76,-12.43,16.28,142.72,26.27,8.54,17
2.15,-21.73,-9.67,17.43,20.75,-7.81,-7.84,-4.3,17.29,166.02,25.63,23.29,17
1.52,-20.02,-5.69,142.09,74.32,-8.84,-7.85,5.07,15.64,144.82,13.57,21.78,17
0.47,-18.0,3.03,161.72,55.47,-6.93,-6.79,14.74,11.17,169.58,18.55,28.17,17
2.17,-18.56,9.5,169.58,26.81,-13.48,-6.17,19.28,7.53,74.61,10.16,14.36,17
-0.6,-7.36,16.41,155.32,17.92,-10.89,-5.91,23.05,5.59,32.42,7.23,6.25,17
1.38,-5.46,22.09,58.06,6.1,-0.2,-5.68,18.9,4.1,-0.54,-3.37,2.25,17
-0.57,-1.64,21.65,12.74,-0.2,4.0,-6.12,18.8,4.3,1.61,1.17,1.27,17
0.68,-5.03,21.01,-1.17,-0.68,1.76,-6.12,18.67,5.02,-3.76,-4.83,-2.98,17
-0.15,-3.09,20.42,-5.03,-3.03,2.2,-6.02,18.59,4.48,-1.37,0.24,1.71,17
3.11,-13.32,14.77,-125.24,-48.49,23.24,-6.6,15.71,14.07,-126.32,-13.87,-6.15,18
3.67,-19.54,4.89,-192.24,-66.94,30.22,-6.45,7.07,14.89,-194.24,-30.96,-23.97,18
2.12,-21.01,-5.01,-130.71,-51.42,14.79,-5.72,-8.22,16.97,-150.68,-16.46,-21.78,18
-0.24,-16.69,-10.59,-85.5,-40.72,19.63,-4.03,-11.95,18.14,-90.23,-12.01,-14.84,18
-0.55,-15.98,-13.28,-41.21,-15.43,10.21,-3.67,-14.57,16.55,-41.94,-2.49,-5.66,18
-0.52,-15.68,-13.38,-8.4,-10.21,9.28,-4.15,-13.74,15.63,-9.33,6.45,5.86,18
-0.25,-14.49,-12.2,0.98,-6.98,-0.93,-4.71,-14.77,13.91,-0.0,-4.54,5.66,18
0.97,-17.11,-13.94,7.13,5.57,-1.03,-3.4,-15.2,16.35,8.64,-4.0,-2.34,18
2.22,-18.97,-13.36,48.19,26.9,6.2,-3.35,-16.0,16.71,36.77,9.13,0.2,18
1.1,-18.64,-11.27,58.54,35.79,0.39,-4.7,-13.64,16.81,56.4,14.36,-6.54,18
2.68,-20.43,-8.04,56.3,33.2,-3.91,-5.43,-11.03,18.33,56.84,10.01,-0.2,18
3.68,-21.82,-5.86,83.11,43.55,-10.16,-5.17,-9.69,18.75,81.79,14.7,6.2,18
3.01,-20.26,0.06,119.04,55.42,-5.71,-5.98,-0.81,18.58,125.98,16.7,14.65,18
4.21,-21.68,6.58,114.45,48.14,-8.35,-6.99,2.76,17.44,114.31,16.6,8.35,18
2.53,-17.52,12.06,144.38,53.47,-6.54,-7.34,9.3,13.28,146.04,20.56,16.85,18
1.91,-12.3,19.13,72.7,13.38,-1.86,-7.29,17.16,11.71,68.41,12.74,16.31,18
-1.45,-6.55,18.77,69.78,20.75,6.45,-7.03,17.33,7.19,66.8,15.23,3.03,18
-2.44,-2.13,20.3,16.36,-4.15,2.25,-6.69,21.8,5.84,26.12,-0.93,8.01,18
0.52,-7.44,21.09,1.56,1.42,-1.07,-6.11,18.47,6.93,0.24,-5.42,-2.25,18
-0.06,-6.23,21.02,3.61,-5.13,1.76,-6.67,18.9,6.31,1.32,-0.78,4.69,18
4.02,-19.07,5.69,-227.2,-109.23,18.41,-5.67,5.88,13.1,-235.6,-27.49,-10.3,19
4.6,-22.36,-2.02,-148.1,-78.61,24.51,-5.34,-5.6,17.54,-141.75,-11.91,-6.15,19
3.13,-20.64,-9.61,-119.63,-70.75,8.06,-4.42,-12.75,17.05,-121.92,-19.19,-12.4,19
0.54,-16.89,-11.77,-22.71,-24.56,7.91,-4.26,-11.28,16.97,-32.08,-4.3,8.01,19
0.14,-16.54,-13.59,-23.39,-4.25,-0.83,-3.5,-13.76,16.48,-18.7,-4.49,6.05,19
0.38,-15.15,-12.5,-18.65,3.56,0.15,-3.63,-14.12,15.48,-15.48,-0.63,-5.18,19
0.46,-15.58,-14.12,-6.49,-10.45,0.44,-3.22,-15.66,16.3,-10.01,-0.05,2.88,19
0.18,-16.06,-14.25,3.17,-9.96,0.54,-4.13,-15.24,15.08,-0.68,0.73,8.35,19
-0.01,-15.87,-14.57,-1.61,-0.1,1.66,-3.95,-15.87,15.54,-0.49,0.15,0.78,19
0.88,-16.96,-13.64,14.4,4.98,-0.93,-3.99,-16.6,15.5,15.97,0.63,4.88,19
0.47,-18.65,-15.8,96.97,48.34,4.74,-4.02,-14.63,19.64,107.86,14.79,34.72,19
2.3,-21.98,-6.66,178.03,65.67,-9.77,-6.77,-5.41,14.98,176.56,7.57,26.56,19
-1.43,-17.06,3.06,156.01,87.45,-5.08,-6.57,9.78,17.19,147.61,-8.06,9.72,19
1.53,-15.03,11.61,93.9,-2.15,-12.84,-5.9,11.7,15.4,62.89,-22.22,-0.15,19
2.49,-16.54,13.27,45.07,18.6,-18.75,-4.16,12.96,16.59,49.37,-14.36,-0.98,19
2.53,-14.48,15.83,50.49,28.03,-6.79,-4.15,14.56,13.86,57.03,0.44,-4.64,19
1.33,-9.74,19.23,61.28,9.42,-8.35,-4.07,17.75,9.45,67.77,5.57,-2.29,19
0.38,-5.19,19.92,82.86,25.34,-7.18,-3.61,21.01,6.61,71.48,-5.13,1.03,19
0.01,-5.59,21.07,22.36,-3.08,-0.24,-3.96,22.12,8.24,10.74,-2.73,5.03,19
-3.7,-1.94,17.49,3.86,11.18,6.64,-6.03,16.72,2.43,-6.59,-2.93,-12.35,19
3.01,-13.0,15.37,-135.25,-60.5,12.16,-5.63,11.12,12.86,-190.09,-11.67,-0.63,20
3.51,-16.38,9.14,-180.91,-80.71,22.56,-3.7,-1.43,18.31,-139.84,-15.28,-0.2,20
6.63,-24.03,0.75,-130.52,-59.42,14.65,-2.51,-7.29,20.31,-118.51,-4.35,-2.39,20
5.78,-23.62,-5.85,-102.73,-48.78,17.38,-2.97,-8.51,19.55,-57.42,-3.03,7.81,20
3.19,-19.3,-8.37,-48.49,-30.62,14.89,-3.05,-12.86,18.54,-52.93,-3.47,5.08,20
1.63,-19.03,-11.19,-43.6,-22.61,14.5,-3.84,-11.45,16.42,-29.49,-2.1,0.78,20
0.9,-17.05,-10.95,-26.22,-12.3,4.2,-2.96,-13.8,16.81,-19.14,0.54,-3.27,20
0.36,-15.43,-13.25,-12.5,-8.01,4.15,-3.07,-13.52,15.77,-6.25,-1.32,0.54,20
1.17,-15.54,-12.38,-9.28,3.42,0.24,-2.61,-14.23,16.3,-1.07,-3.17,-4.15,20
1.3,-15.95,-13.62,-2.1,-1.32,-2.15,-2.83,-14.27,16.46,-0.73,-0.2,-2.98,20
0.81,-15.7,-13.82,-0.68,2.44,1.03,-2.63,-14.68,16.71,16.8,3.03,-2.83,20
2.43,-17.69,-12.92,19.97,10.94,2.49,-3.07,-13.57,17.62,31.05,8.35,-0.2,20
1.36,-17.95,-11.55,47.95,-9.62,8.69,-2.73,-15.81,19.43,60.69,13.13,-3.86,20
3.46,-23.5,-10.62,83.54,34.23,0.2,-4.6,-2.82,18.82,92.82,20.85,-7.62,20
1.73,-18.9,-3.5,90.77,42.43,-3.27,-4.82,-1.71,19.38,131.59,18.7,0.68,20
2.8,-20.36,-0.01,128.52,49.61,-7.42,-6.21,6.54,17.03,127.15,19.19,12.16,20
1.86,-17.71,7.93,131.3,33.4,-11.47,-6.5,12.22,13.96,118.6,13.72,9.62,20
1.38,-15.37,14.13,115.72,37.06,-9.72,-6.05,19.1,9.32,107.96,17.68,12.11,20
-1.22,-8.21,17.94,103.76,26.76,-1.81,-6.25,20.96,6.84,27.34,4.49,2.93,20
-0.02,-5.13,22.15,35.11,4.88,0.29,-6.85,18.83,4.85,2.34,1.86,-3.81,20
7.24,-19.6,9.67,-155.66,-93.65,17.04,-6.68,17.98,6.95,-0.0,0.93,1.66,21
5.4,-18.17,3.89,-141.94,-80.32,38.18,-6.59,17.58,7.34,1.37,0.44,0.0,21
4.35,-20.1,-5.21,-121.53,-78.81,26.42,-6.57,17.79,7.1,2.0,-0.34,-0.29,21
4.57,-21.04,-9.79,-96.63,-60.01,20.31,-6.57,17.61,7.02,-0.0,-0.05,-0.63,21
1.16,-17.74,-12.59,-38.77,-17.04,6.49,-6.62,17.95,6.85,1.46,0.49,0.1,21
2.52,-18.23,-13.42,-7.67,-11.87,9.23,-6.58,17.77,6.96,0.2,-0.05,-0.1,21
-0.75,-14.5,-10.93,2.05,-9.96,3.13,-6.57,17.81,6.85,-3.52,-3.66,-4.35,21
-0.27,-15.21,-12.78,-9.91,4.1,-2.2,-6.48,17.43,7.43,-0.73,0.34,0.34,21
0.08,-15.96,-14.39,-3.08,1.32,-2.49,-6.66,17.62,7.11,-1.07,-0.59,-1.12,21
-0.47,-15.56,-13.11,2.39,-2.59,-0.2,-6.6,18.17,7.04,1.07,0.59,0.2,21
1.97,-17.9,-13.62,12.35,16.75,1.76,-6.58,17.84,7.2,-0.0,-0.24,0.2,21
2.96,-21.02,-12.08,60.89,22.22,26.46,-6.54,18.01,7.16,0.68,0.44,-0.05,21
1.36,-21.63,-7.31,100.78,20.7,10.45,-6.57,17.66,7.23,0.05,0.1,-0.44,21
0.83,-17.85,2.02,162.89,27.83,-6.74,-6.47,17.76,7.22,-0.59,-0.24,0.93,21
0.83,-18.84,8.15,163.28,42.87,-32.76,-6.57,17.63,7.23,0.24,0.0,-0.49,21
1.54,-14.52,15.84,85.25,8.79,-24.12,-6.56,17.74,7.27,-0.2,-0.15,0.0,21
2.25,-13.6,18.28,74.8,22.61,-18.02,-6.56,17.8,7.14,0.1,0.05,0.93,21
2.06,-9.24,19.82,21.58,1.71,-8.3,-6.55,17.54,7.36,-0.34,-0.39,0.15,21
1.04,-6.51,20.24,31.79,2.0,-3.32,-6.47,17.76,7.18,-0.2,-0.34,0.93,21
0.49,-5.33,20.55,10.74,-2.29,-6.4,-6.42,17.82,7.3,0.1,-0.39,0.39,21
3.19,-14.22,12.48,-131.93,-48.14,18.9,-4.7,12.81,14.55,-142.92,-36.08,14.79,22
4.76,-18.91,5.54,-121.83,-55.91,27.49,-2.92,5.5,19.24,-132.86,-20.21,13.96,22
3.78,-20.38,-2.23,-123.24,-75.49,35.69,-2.6,-3.53,18.3,-140.63,-11.67,19.04,22
3.99,-20.82,-6.64,-86.96,-54.59,20.7,-1.4,-10.12,19.01,-91.99,-6.01,12.16,22
1.55,-19.21,-9.61,-52.93,-40.19,14.45,-1.4,-12.49,18.02,-70.8,-7.08,3.42,22
1.17,-17.52,-11.43,-40.67,-30.18,3.56,-1.0,-14.67,16.67,-45.07,-10.3,-4.44,22
0.02,-16.12,-11.54,3.32,-17.43,1.42,-1.41,-12.53,15.99,-1.27,-2.39,14.55,22
-2.19,-15.59,-12.59,-3.17,2.34,-1.86,-2.1,-13.38,16.24,-4.69,-6.64,-1.86,22
0.2,-16.73,-14.0,-1.47,-6.45,4.83,-0.33,-16.24,15.85,-7.42,0.39,4.1,22
0.08,-14.35,-12.85,-6.69,9.28,4.83,-0.42,-14.33,14.95,-3.42,-2.54,-9.33,22
0.99,-16.76,-15.36,-3.08,9.77,1.76,0.58,-15.54,16.21,2.1,1.86,-2.44,22
-0.91,-15.06,-14.22,2.39,7.42,4.83,-1.01,-14.28,15.01,1.46,3.91,1.32,22
3.66,-19.96,-13.91,40.43,23.78,2.1,0.9,-18.59,16.58,43.31,16.36,-4.88,22
3.42,-23.4,-9.97,137.45,36.67,3.61,-0.4,-16.4,17.68,114.65,45.46,4.0,22
-1.04,-17.26,-2.85,242.97,97.12,-25.88,-5.43,5.9,16.24,230.03,36.28,7.37,22
1.91,-16.85,9.6,142.97,36.28,-24.12,-7.17,5.38,14.94,143.6,15.23,-3.91,22
2.27,-13.8,16.29,120.07,20.31,-24.8,-5.73,14.82,14.89,121.0,13.67,3.56,22
2.1,-7.12,20.06,73.14,21.53,-17.19,-6.25,17.1,9.34,72.02,10.45,-4.2,22
-0.5,-1.95,19.1,58.69,21.44,-8.3,-6.29,20.31,4.72,53.91,7.76,6.69,22
6.3,-3.55,28.16,6.15,-18.65,5.91,-4.72,25.11,6.85,1.27,1.22,-5.71,22
-2.7,-4.69,19.83,12.74,73.19,4.0,-6.14,19.52,3.94,33.64,12.6,13.77,23
-1.74,-3.81,21.24,3.61,-15.38,-3.52,-5.18,21.15,2.91,4.2,15.09,16.55,23
0.23,-2.0,22.72,-59.23,-47.66,-5.76,-5.13,25.04,4.87,-46.19,11.04,9.08,23
1.08,-15.92,15.45,-143.6,-64.75,6.69,-6.0,10.93,7.91,-173.73,-19.14,-22.95,23
2.65,-19.45,10.29,-143.21,-59.42,15.72,-7.04,10.16,13.0,-151.9,-10.6,-21.24,23
5.38,-22.47,4.02,-117.38,-61.04,15.87,-6.28,2.4,17.0,-129.64,5.32,-6.79,23
4.1,-22.04,-4.01,-120.36,-64.31,15.33,-4.48,-2.07,20.05,-134.77,-12.89,3.17,23
1.5,-18.51,-7.94,-88.77,-52.1,14.36,-5.07,-6.47,18.08,-96.68,-8.89,-2.64,23
0.73,-17.49,-11.55,-37.21,-11.23,2.83,-4.55,-13.99,17.36,-47.8,-5.81,-1.56,23
-0.15,-17.04,-13.26,-13.43,-15.92,-0.78,-5.07,-14.31,16.79,-17.04,18.55,-2.15,23
0.46,-16.76,-13.3,-12.6,0.44,0.0,-5.04,-12.38,16.53,-13.04,1.95,-11.23,23
0.3,-16.47,-14.15,0.63,-3.17,1.76,-4.62,-13.84,16.61,-0.73,-1.32,3.27,23
-0.12,-16.1,-13.86,-5.18,3.32,1.32,-5.19,-12.96,16.5,-0.73,0.73,-2.78,23
0.59,-16.29,-14.27,-2.0,3.71,2.2,-4.67,-14.07,16.68,-0.05,-3.61,-4.98,23
0.78,-16.15,-13.76,2.44,1.76,1.61,-4.51,-13.03,16.78,-0.88,-0.93,-0.39,23
1.46,-16.99,-12.55,14.06,0.0,2.05,-4.53,-13.6,17.4,5.03,-3.42,5.57,23
1.68,-17.57,-12.17,42.87,19.53,2.83,-5.02,-13.89,16.63,31.45,0.68,2.69,23
2.29,-17.86,-9.1,43.02,19.68,-3.12,-4.61,-7.29,19.09,52.88,0.39,5.86,23
2.14,-18.27,-6.04,94.34,42.29,-15.77,-5.18,-5.65,19.44,89.94,9.18,2.73,23
3.21,-20.02,-2.61,61.91,21.83,-9.81,-5.49,-2.2,20.42,65.53,1.27,8.25,23
2.2,-3.6,20.67,-6.74,-4.1,0.15,-4.7,17.07,9.99,-114.01,-25.54,-14.7,24
3.09,-5.29,19.9,-23.68,-24.9,-11.47,-3.49,9.5,15.9,-143.12,-35.69,-0.49,24
2.55,-9.44,14.73,-118.65,-47.61,27.39,-5.04,4.86,16.94,-100.44,-5.81,7.28,24
11.79,-21.31,14.17,-111.38,-55.52,30.22,-3.74,1.65,18.0,-160.84,-4.54,24.02,24
6.37,-18.87,6.76,-86.67,-52.98,29.93,-2.76,-15.71,15.02,-210.16,-5.08,-12.7,24
4.57,-19.06,-0.52,-132.08,-87.94,71.19,-2.87,-11.68,17.02,-16.7,0.54,10.5,24
3.73,-25.8,-11.17,-153.52,-70.95,60.74,-3.21,-13.55,17.49,-0.05,1.42,10.84,24
0.04,-18.67,-11.07,-16.94,-13.96,6.74,-2.75,-12.87,16.84,-12.01,1.61,-9.86,24
-0.72,-18.15,-11.97,-2.05,-4.64,0.1,-2.65,-12.29,17.25,-0.83,-0.05,4.3,24
-0.33,-17.63,-12.18,-10.5,3.91,4.35,-3.6,-12.82,16.82,2.88,-0.54,2.69,24
-2.19,-16.02,-12.13,2.25,-6.2,2.44,-2.9,-15.16,17.87,29.69,4.98,-1.51,24
-1.62,-17.55,-11.58,4.74,-0.98,0.29,-4.03,-7.79,17.56,53.03,13.38,-1.61,24
0.83,-20.3,-11.74,31.93,21.83,-4.98,-4.2,-9.54,19.3,114.4,13.53,-4.64,24
0.59,-17.54,-7.77,52.25,29.15,-14.94,-5.22,-1.15,19.91,95.56,10.11,7.96,24
3.39,-22.97,-6.57,99.95,68.99,-39.11,-5.84,5.76,18.46,107.96,14.55,11.82,24
5.64,-21.81,1.08,90.38,36.08,-29.2,-5.4,10.41,15.34,108.79,6.64,3.47,24
4.32,-17.37,6.72,107.57,30.42,-25.05,-5.87,14.05,9.7,91.02,8.5,-1.22,24
5.47,-16.7,12.28,103.95,42.09,-38.62,-4.79,15.91,6.83,53.95,2.29,1.71,24
4.56,-11.0,17.01,89.21,27.98,-28.52,-5.62,19.15,2.84,38.28,10.69,0.39,24
5.53,-7.66,19.64,54.49,6.25,-18.7,-4.48,25.75,5.39,-5.96,6.45,-6.69,24
6.3,-11.02,16.26,-116.26,-56.25,25.54,-6.07,15.02,9.57,-124.66,-21.53,-4.44,25
5.57,-14.83,10.42,-136.47,-68.9,49.46,-5.12,10.97,14.4,-155.37,-11.52,0.34,25
6.75,-19.57,3.45,-128.17,-70.95,49.17,-4.63,1.91,17.75,-138.33,-11.28,9.08,25
4.44,-20.14,-2.75,-109.96,-70.21,47.75,-4.24,-3.83,18.52,-126.17,-7.76,5.08,25
3.23,-21.21,-7.7,-68.7,-42.82,25.44,-3.68,-7.97,20.19,-69.48,-8.06,2.93,25
0.66,-19.39,-11.11,-52.93,-29.69,21.29,-3.25,-12.07,19.26,-60.25,-2.44,-5.57,25
0.88,-18.93,-11.23,-23.93,-20.75,6.69,-3.64,-11.35,18.12,-19.97,2.83,1.07,25
-0.04,-17.59,-11.5,-12.11,-6.25,0.93,-3.39,-12.03,18.39,-9.33,5.08,-10.6,25
-1.88,-16.67,-12.56,-9.62,-3.76,7.52,-3.65,-13.45,17.01,-12.94,4.15,-6.05,25
-1.38,-15.7,-12.28,-6.2,-1.56,8.35,-3.42,-12.09,17.19,-10.21,2.05,-5.91,25
-1.65,-16.33,-12.22,-0.78,-5.42,0.59,-3.68,-11.83,16.94,-4.3,-2.44,4.0,25
-0.71,-17.07,-12.34,-0.15,-3.17,0.83,-3.4,-12.59,17.69,-2.98,-3.12,-0.15,25
-0.67,-17.55,-12.58,5.71,-4.59,0.05,-3.56,-13.3,17.52,2.83,0.1,5.96,25
2.06,-20.2,-11.53,42.92,35.89,-6.3,-3.48,-13.31,18.09,53.42,7.47,-0.73,25
3.73,-21.78,-8.88,74.12,37.26,-22.31,-4.06,-13.26,17.89,91.89,16.11,5.81,25
3.27,-22.2,-5.18,95.56,47.12,-29.49,-4.98,-5.82,20.01,111.52,12.84,17.19,25
3.91,-20.4,2.56,146.58,71.48,-36.82,-5.76,6.53,17.18,154.83,15.72,27.83,25
5.14,-17.75,10.15,105.47,55.91,-37.35,-5.45,10.43,15.2,115.33,2.29,4.1,25
4.56,-11.76,15.04,110.35,42.53,-40.28,-4.78,15.65,11.25,113.67,-12.55,2.34,25
3.29,-5.28,18.0,85.06,20.7,-17.87,-4.08,19.82,7.76,81.35,-6.49,-2.59,25
5.5,-4.22,20.09,-9.77,-7.71,2.98,-6.32,19.42,6.87,-34.23,-8.84,-1.27,26
5.84,-5.54,20.29,-34.18,-12.16,3.91,-6.53,13.5,8.57,-115.04,-11.18,-11.33,26
3.72,-10.79,14.88,-109.77,-27.39,28.22,-5.28,15.71,12.36,-115.97,-29.2,1.9,26
6.14,-10.47,14.74,-104.2,-47.71,25.15,-4.38,10.66,16.52,-119.09,-3.47,4.54,26
8.04,-16.19,9.26,-112.99,-47.36,34.72,-3.62,5.37,19.66,-90.23,-5.96,15.23,26
7.35,-19.86,3.53,-72.71,-54.88,32.18,-3.89,3.25,19.43,-110.21,-3.71,10.21,26
4.24,-18.18,-0.56,-78.03,-50.15,40.48,-3.56,-6.67,19.0,-93.31,-6.59,-0.49,26
2.77,-19.52,-5.73,-77.64,-50.49,41.5,-2.84,-10.37,19.14,-75.15,-9.42,-6.74,26
1.17,-18.48,-9.21,-63.82,-38.87,26.22,-3.28,-10.82,17.29,-42.92,-0.88,6.4,26
-0.87,-17.09,-10.97,-33.89,-28.42,13.33,-3.37,-12.67,16.66,-18.36,6.05,2.69,26
-1.34,-16.71,-11.28,-11.96,-14.99,8.5,-2.92,-14.09,16.72,-12.11,6.2,-4.74,26
-2.67,-16.27,-13.22,-13.13,-3.27,3.42,-3.32,-15.99,16.39,-13.53,-0.54,-6.59,26
-1.62,-16.74,-13.95,-2.05,-14.5,0.83,-4.08,-10.72,15.1,0.83,-3.66,6.49,26
-0.89,-15.28,-10.43,3.61,-1.76,-3.37,-2.94,-16.3,15.99,2.0,-5.03,0.54,26
-2.38,-15.72,-14.09,0.68,-0.1,-3.81,-3.8,-13.84,16.54,55.22,7.76,2.93,26
1.31,-19.41,-11.61,47.61,38.72,-8.94,-4.11,-16.32,16.45,81.25,20.8,9.33,26
1.14,-21.82,-11.65,75.34,47.02,-9.57,-5.33,-9.36,19.73,108.11,26.61,-0.39,26
2.26,-21.85,-7.65,100.98,60.69,-19.19,-6.87,1.23,18.84,84.81,9.18,4.15,26
2.42,-18.79,1.07,81.01,39.84,-18.02,-6.35,5.89,19.83,77.73,-1.32,1.46,26
3.15,-18.87,3.86,71.68,40.87,-21.24,-6.34,8.63,18.07,103.08,-0.44,9.72,26
4.54,-13.5,12.01,-137.11,-75.2,35.45,-4.92,12.77,14.51,-146.24,-17.53,32.67,27
7.91,-21.29,5.69,-120.17,-72.02,32.71,-3.79,8.21,18.73,-106.69,-7.62,34.33,27
4.78,-18.39,1.45,-95.56,-62.45,35.3,-3.9,4.17,19.07,-123.54,-1.12,16.02,27
3.85,-18.63,-3.94,-86.87,-54.49,28.52,-3.75,-4.66,19.55,-101.56,-12.16,4.69,27
4.03,-20.43,-7.66,-41.06,-16.21,10.79,-3.0,-7.6,20.67,-32.62,-5.62,-5.42,27
-0.2,-17.07,-10.74,-26.03,-21.29,12.01,-2.91,-8.0,19.72,-48.19,2.83,0.2,27
0.34,-17.64,-10.49,-20.46,-15.33,7.52,-2.87,-8.28,19.53,-40.23,9.03,-12.01,27
0.01,-17.14,-11.68,-4.0,-23.29,8.79,-3.25,-9.68,18.02,-12.79,1.9,12.55,27
-2.1,-16.17,-13.43,-16.26,-12.06,10.94,-3.24,-14.72,16.86,-34.96,0.39,-20.46,27
-0.91,-17.27,-12.2,0.39,-6.45,-0.78,-2.86,-12.0,17.81,-8.5,-1.22,-2.54,27
-0.87,-17.26,-12.14,6.59,3.56,0.68,-3.27,-12.61,17.32,5.66,2.2,2.83,27
1.59,-20.16,-12.23,48.29,44.14,-3.08,-3.48,-12.85,17.87,64.75,8.79,11.77,27
4.41,-25.44,-9.74,104.93,73.0,-21.34,-4.01,-15.88,17.45,159.08,39.5,-4.74,27
1.41,-14.08,0.73,170.41,76.12,-31.88,-6.69,7.97,17.81,136.03,-3.42,22.75,27
6.74,-21.13,6.83,86.23,44.73,-23.97,-5.83,6.24,18.98,107.42,-1.81,-7.57,27
6.45,-18.62,11.79,75.44,26.66,-23.68,-5.87,10.25,16.81,85.64,-2.69,1.81,27
4.85,-15.18,14.47,83.89,24.66,-23.19,-5.88,14.1,13.29,89.5,3.71,4.69,27
4.8,-9.74,17.82,70.56,21.68,-22.9,-5.14,18.41,10.83,65.09,-2.15,3.91,27
4.41,-6.39,19.14,54.0,19.68,-12.06,-5.48,17.47,7.69,52.05,-1.56,-8.2,27
2.61,-4.75,18.8,22.8,23.05,-2.34,-6.52,16.41,5.24,29.44,-6.45,-15.38,27
-4.8,-4.28,20.15,17.19,50.63,-16.46,-6.42,20.02,4.76,21.39,1.03,23.29,28
-3.74,-1.83,22.39,-101.42,-67.77,-23.19,-4.27,23.55,5.14,3.71,-7.03,18.16,28
0.34,-12.79,13.67,-140.04,-86.52,-18.31,-6.02,15.5,5.6,-114.89,-16.46,2.59,28
3.8,-17.38,10.7,-111.96,-74.32,1.71,-4.51,12.51,10.9,-156.84,-1.46,10.79,28
4.51,-17.16,3.71,-91.21,-62.6,8.54,-4.57,11.94,14.92,-125.54,7.28,7.96,28
3.98,-18.63,-3.35,-103.96,-68.55,13.43,-3.78,6.8,18.92,-130.37,1.22,7.23,28
2.89,-16.18,-7.44,-71.78,-40.33,10.4,-4.16,-2.5,18.88,-126.71,0.0,5.03,28
2.91,-17.17,-9.51,-45.46,-27.78,2.0,-4.3,-10.57,18.48,-95.95,-5.66,-5.37,28
2.63,-16.15,-11.2,-34.18,-1.51,6.59,-3.45,-9.55,19.95,-57.91,6.25,-4.93,28
3.66,-16.08,-13.31,-43.6,49.56,-2.49,-2.44,-10.18,17.54,-63.97,24.07,-42.29,28
3.85,-15.71,-14.36,-18.8,5.47,-0.1,-2.55,-10.47,17.45,-34.96,37.16,-39.31,28
4.7,-13.71,-12.17,0.78,-4.3,2.05,-3.63,-15.24,15.11,-11.62,14.16,-7.42,28
6.02,-17.78,-13.76,21.73,12.84,10.74,-3.73,-17.05,14.57,0.49,-7.18,0.78,28
5.31,-18.85,-11.33,87.21,100.63,59.08,-4.19,-15.08,14.41,34.62,6.15,16.6,28
7.52,-25.85,-10.17,110.3,62.3,37.11,-6.54,-6.17,14.8,79.35,17.19,31.74,28
0.5,-17.75,-2.54,91.65,-14.7,14.94,-6.97,-11.95,16.0,155.76,38.77,50.83,28
-0.53,-18.28,1.49,130.62,57.13,6.05,-7.15,-3.99,17.45,71.44,-7.37,19.38,28
3.03,-15.64,13.27,100.88,24.51,-12.65,-5.89,4.87,18.41,117.63,-10.55,15.48,28
2.47,-18.31,13.71,113.48,3.17,-4.0,-5.85,10.69,17.46,94.92,-7.08,0.29,28
2.41,-12.1,15.12,216.06,65.53,-23.78,-5.56,9.63,14.36,122.75,8.94,0.73,28
4.44,-21.39,-11.3,-91.26,-44.58,7.03,-4.03,-15.14,16.43,-36.91,0.49,3.52,29
1.61,-16.59,-13.21,-27.54,-26.76,3.17,-3.93,-14.94,15.16,-19.43,-1.32,7.91,29
0.61,-15.34,-13.19,-9.96,-30.37,4.98,-5.1,-13.07,15.38,0.78,-6.25,5.47,29
0.49,-15.8,-11.77,-4.35,-2.05,-4.88,-3.46,-19.57,16.57,25.54,-0.34,-10.64,29
4.49,-19.89,-13.96,12.84,24.71,0.29,-4.71,-16.16,16.89,62.84,8.94,10.11,29
3.94,-21.34,-11.38,57.13,31.84,-0.34,-5.66,-11.07,19.44,91.85,18.75,10.4,29
4.75,-23.52,-8.41,87.16,50.59,0.88,-6.92,-1.09,17.44,148.34,2.54,16.85,29
1.52,-20.1,-3.01,135.84,67.63,-10.64,-5.06,8.33,16.2,172.75,-19.78,28.66,29
6.59,-18.03,8.88,153.61,70.7,-37.89,-4.4,14.08,16.36,57.96,-3.47,16.89,29
2.88,-14.07,13.73,63.28,7.81,-8.69,-4.16,15.49,13.4,82.13,-7.08,2.34,29
2.53,-12.63,16.78,72.41,37.16,-7.08,-4.28,17.32,9.98,56.25,-3.08,0.44,29
0.77,-9.31,18.54,49.12,22.56,-3.17,-4.35,17.91,7.8,57.42,-2.44,0.49,29
0.19,-8.79,19.66,49.85,22.75,2.69,-4.47,17.71,6.03,50.73,-11.04,-13.82,29
-0.97,-6.67,19.3,40.58,24.51,0.15,-5.28,21.26,6.44,23.97,-9.13,-3.91,29
-1.95,-7.56,23.11,18.12,8.4,-6.4,-6.06,16.6,2.45,-14.6,-3.17,-10.16,29
-3.49,-3.83,19.11,-15.33,0.54,-1.22,-5.31,19.28,5.38,-1.17,-1.51,-0.34,29
-1.32,-5.74,21.23,-0.15,-0.24,-0.15,-5.02,19.53,4.45,1.12,-1.56,2.05,29
-0.91,-4.57,21.29,2.2,-1.86,-1.17,-5.53,18.18,4.7,-0.1,-1.71,-1.07,29
-1.51,-5.8,20.77,-1.17,-1.46,-1.12,-5.36,18.87,4.67,-3.61,-0.68,-0.49,29
-1.16,-5.07,21.05,-3.66,-1.81,0.59,-5.63,18.33,5.2,-1.51,1.22,0.34,29
2.53,-13.38,14.35,-119.14,-60.4,1.22,-5.57,15.86,10.68,-121.39,-17.48,-0.73,30
2.75,-17.49,7.91,-131.01,-70.31,9.91,-5.08,11.56,16.05,-137.01,4.15,6.64,30
4.91,-22.34,-0.99,-124.17,-72.8,20.31,-4.95,-0.74,18.39,-134.47,-7.08,4.1,30
4.28,-21.17,-6.02,-96.48,-51.17,11.04,-3.88,-5.56,20.55,-93.21,-20.02,11.18,30
2.93,-19.95,-9.45,-47.27,-21.63,6.79,-4.55,-7.51,19.82,-61.77,13.13,-12.01,30
1.54,-17.51,-11.45,-46.39,-24.02,9.57,-4.68,-9.97,17.7,-54.3,-0.63,-2.78,30
0.83,-15.79,-11.79,-21.14,-4.15,2.44,-4.19,-9.46,17.38,-29.88,12.65,-2.78,30
0.91,-16.01,-13.43,-16.02,-7.67,4.49,-4.24,-12.9,16.48,-27.59,5.13,-13.92,30
0.91,-14.71,-13.65,-9.77,-4.1,-0.15,-3.91,-14.76,15.49,-8.69,-1.81,-3.52,30
1.88,-16.07,-13.88,3.86,-0.88,-1.81,-3.54,-16.11,16.3,-0.39,-7.96,-2.83,30
0.53,-14.72,-14.83,0.98,7.57,5.66,-3.27,-14.66,16.35,3.32,-8.01,-7.23,30
2.05,-16.62,-13.47,14.21,7.03,3.47,-3.02,-15.42,15.86,14.99,-5.86,7.32,30
1.11,-16.24,-12.93,59.08,42.92,9.72,-3.51,-13.95,16.61,64.75,7.52,5.86,30
6.17,-23.46,-11.17,47.66,38.72,1.22,-2.3,-15.87,19.05,42.58,6.1,2.93,30
3.17,-19.36,-6.65,57.91,43.75,4.54,-4.63,-8.27,19.39,64.94,11.91,9.28,30
3.07,-16.6,-1.05,135.6,12.11,20.46,-5.47,-1.61,17.93,122.31,2.05,10.01,30
-0.56,-16.83,3.84,98.63,29.64,12.74,-4.96,7.29,19.14,89.06,6.01,8.98,30
2.59,-15.33,13.48,107.91,-17.38,3.66,-5.27,10.73,16.49,97.41,0.15,-1.66,30
0.09,-12.88,14.46,105.62,8.54,-0.24,-5.51,14.67,13.19,97.12,1.9,5.86,30
1.03,-8.79,18.75,79.25,5.18,-1.42,-4.83,18.15,10.1,69.19,5.81,5.86,30
2.55,-14.72,15.73,21.58,19.63,1.51,-6.63,12.03,12.77,32.18,-1.32,10.4,31
2.32,-14.32,18.5,79.0,54.3,-11.43,-4.65,18.29,9.64,88.53,-7.42,26.46,31
0.15,-5.04,20.53,74.9,4.69,0.68,-4.45,18.46,6.05,52.29,-4.64,1.81,31
-2.09,-3.24,20.47,40.43,11.47,-0.98,-4.34,20.21,4.05,13.77,2.49,-1.95,31
-2.36,-5.96,20.12,22.07,15.67,-8.69,-4.24,21.12,3.65,20.36,-0.39,11.47,31
-1.76,-4.77,21.8,11.91,8.84,-5.86,-3.72,20.54,2.8,0.54,-3.03,2.1,31
-2.36,-3.17,21.08,-6.59,0.44,-3.03,-4.18,18.14,2.6,0.83,-3.52,-3.71,31
-2.71,-3.59,20.62,2.39,3.08,-0.34,-4.43,19.39,3.09,-6.25,-3.56,-3.61,31
-2.29,-5.37,20.61,-1.81,-6.3,-0.59,-4.15,20.0,3.22,-1.81,-0.24,-0.34,31
-2.27,-3.91,21.26,-1.07,2.34,-0.44,-4.55,19.23,2.9,-6.01,1.32,-1.86,31
-1.99,-4.3,21.35,-0.73,0.0,-0.05,-4.36,19.36,3.24,-1.66,0.39,-0.34,31
-2.21,-4.55,20.9,-1.95,-1.51,1.81,-4.42,19.43,3.32,1.17,-0.1,1.9,31
-2.23,-4.2,21.3,-1.9,0.34,0.78,-4.65,19.07,3.06,-1.42,-0.49,-2.83,31
-2.32,-4.77,20.64,-2.49,-3.27,-1.07,-4.56,18.93,3.3,-0.44,0.68,1.07,31
-1.87,-4.25,21.3,0.88,-2.88,1.51,-4.54,19.42,3.1,0.59,-0.15,-0.44,31
-1.94,-4.72,21.08,-0.98,-0.54,0.78,-4.54,19.13,3.23,0.2,-0.29,-0.15,31
-2.1,-4.82,20.8,-0.34,-2.44,-0.05,-4.53,19.24,3.59,-0.1,0.34,1.37,31
-1.95,-4.43,21.13,0.2,-1.76,1.07,-4.57,19.15,3.42,-0.49,0.34,0.39,31
-1.79,-4.35,21.16,0.59,-1.32,0.93,-4.39,19.04,3.34,0.2,-0.1,0.1,31
-1.86,-4.45,21.04,1.76,-1.27,1.22,-4.49,19.27,3.33,0.93,-0.59,0.88,31
1.31,-15.89,15.8,-101.61,-29.64,0.98,-5.06,19.25,5.06,17.48,-0.44,1.61,32
1.16,-15.62,10.92,-111.04,-44.97,5.18,-4.86,18.94,6.28,-3.03,-1.12,-3.47,32
2.12,-21.76,3.52,-98.63,-38.72,10.79,-4.51,17.94,4.31,5.08,6.4,-3.96,32
1.36,-22.52,-2.05,-93.31,-47.31,23.88,-4.53,19.29,5.73,3.86,-2.98,1.32,32
0.43,-20.75,-4.14,-55.62,-42.14,24.85,-5.29,18.48,5.47,0.49,-2.15,-0.34,32
-1.25,-19.01,-6.91,-44.82,-17.04,13.13,-4.97,19.16,4.34,5.66,-1.03,-0.59,32
-1.07,-17.3,-9.51,-44.92,1.66,7.91,-5.28,17.53,4.99,0.15,-5.03,0.63,32
-1.43,-18.62,-12.96,-44.58,16.99,3.17,-4.73,19.2,5.56,4.3,-2.59,-12.06,32
-2.07,-18.3,-13.43,-10.94,8.64,18.41,-5.36,18.58,4.2,3.81,1.37,2.59,32
-1.3,-17.01,-12.89,-12.84,5.03,16.36,-5.38,18.98,4.99,-0.05,0.78,3.32,32
-1.78,-16.12,-13.33,-8.89,3.32,7.18,-5.21,18.41,4.37,0.05,4.93,1.86,32
-1.73,-15.95,-13.53,-8.25,-0.2,1.32,-4.63,18.53,4.62,4.74,1.46,1.61,32
-0.91,-16.0,-13.4,-9.72,-3.96,2.2,-4.45,19.5,3.87,6.64,-0.15,-0.2,32
-1.81,-14.04,-13.65,-3.03,-6.59,7.42,-4.9,19.13,3.91,-0.15,-3.76,0.15,32
-2.56,-15.11,-13.92,-0.63,-4.64,0.98,-5.17,19.16,4.2,0.49,-2.54,-0.34,32
-1.68,-17.34,-15.28,9.81,5.76,-0.2,-5.14,19.27,4.4,-1.03,-2.78,-2.83,32
-1.21,-17.52,-12.83,58.69,10.3,0.0,-5.5,18.3,4.42,-3.08,3.47,-4.15,32
-0.7,-20.0,-9.37,101.86,30.47,-10.25,-4.57,19.39,4.25,3.81,6.4,1.27,32
1.1,-21.77,-3.02,184.86,67.19,-11.82,-5.23,19.46,5.11,2.39,2.78,-2.73,32
-1.54,-18.19,5.26,189.89,58.79,-11.77,-5.87,17.27,2.65,-2.69,5.42,-4.93,32
4.02,-17.89,7.96,-165.38,-72.85,16.46,-6.94,5.71,15.49,-166.55,-5.32,-26.51,33
2.86,-21.02,-1.74,-156.2,-71.63,24.46,-6.71,-2.63,17.22,-151.71,-9.23,-25.0,33
3.01,-21.85,-8.16,-107.18,-39.06,8.35,-5.78,-8.65,18.33,-78.56,-6.98,-27.05,33
1.69,-18.53,-12.2,-68.46,-19.24,4.79,-5.4,-15.69,16.06,-45.26,0.44,-28.61,33
1.63,-16.22,-10.41,-13.13,-22.66,0.98,-4.05,-14.76,15.58,-30.22,11.04,-30.81,33
0.18,-16.32,-15.0,-21.53,-4.2,6.64,-4.88,-14.9,14.54,-18.51,5.52,-6.93,33
1.03,-16.78,-13.48,-9.67,-1.03,-1.42,-4.27,-18.06,15.16,-4.44,5.66,0.05,33
-0.64,-15.71,-13.47,4.15,-13.92,5.76,-4.35,-16.22,13.32,-1.86,2.98,-1.9,33
-0.88,-14.63,-13.18,-1.12,-3.81,-0.05,-4.14,-16.2,13.89,-0.73,-2.25,-3.47,33
-0.35,-16.2,-14.02,-8.2,9.42,-0.98,-4.49,-16.69,14.41,5.66,2.39,0.49,33
0.6,-16.68,-13.53,9.42,3.03,1.66,-4.52,-17.59,14.73,42.28,11.23,12.35,33
-2.09,-14.07,-12.71,17.97,3.13,3.08,-5.09,-15.99,15.23,6.74,1.51,10.69,33
0.41,-18.25,-12.2,45.8,2.25,0.15,-5.71,-14.51,16.54,52.29,9.18,24.07,33
1.73,-20.97,-9.94,93.07,46.53,-2.73,-7.93,-10.29,17.02,117.19,22.22,38.82,33
2.19,-20.08,-2.8,131.98,52.93,-50.78,-9.62,-1.58,17.6,117.43,17.09,24.56,33
4.82,-21.76,3.41,131.49,44.92,-33.79,-8.89,8.33,15.97,150.15,6.45,65.53,33
2.98,-17.1,9.75,94.04,34.28,-16.06,-8.59,13.79,15.34,66.55,3.86,41.85,33
4.44,-16.32,13.71,50.2,25.39,-0.44,-8.54,13.45,12.98,60.99,4.64,29.15,33
3.31,-12.75,16.22,53.03,24.07,4.83,-7.82,16.18,10.47,38.96,5.91,16.11,33
2.88,-10.86,18.23,26.51,6.88,-0.98,-6.94,16.13,9.84,31.69,0.2,12.55,33
-2.63,-6.2,21.92,56.88,68.16,23.1,-1.83,34.35,0.75,-8.55,3.03,-10.3,34
-6.05,6.82,23.42,-26.37,-44.38,-24.37,-5.22,14.62,2.1,-249.46,-1.86,-89.45,34
-3.28,-13.31,8.79,-282.76,-90.43,-35.11,-8.37,0.62,14.7,-152.44,-16.89,-43.21,34
6.25,-25.95,6.28,-146.0,-65.77,0.24,-8.28,2.12,17.03,-103.08,-11.52,-33.35,34
2.95,-20.07,0.56,-91.94,-47.07,-1.81,-8.0,-3.29,17.53,-118.02,-13.09,-37.06,34
3.48,-19.63,-5.16,-104.35,-51.66,1.32,-6.49,-5.89,19.35,-69.97,-4.0,-40.38,34
7.21,-15.95,-4.88,-119.82,62.4,-16.46,-6.58,-12.25,17.28,-46.78,11.96,-51.51,34
3.46,-16.76,-14.31,-50.1,33.2,3.03,-6.11,-15.14,15.67,-20.61,12.79,-19.29,34
4.41,-15.79,-14.77,-22.56,5.22,5.76,-6.48,-16.23,14.59,-13.72,7.32,-6.4,34
4.48,-15.18,-14.21,-5.52,-11.77,3.81,-5.28,-15.95,14.3,-20.07,-5.71,-14.31,34
4.0,-13.53,-13.72,-5.13,-12.99,0.2,-5.57,-16.38,14.52,-9.08,-3.91,-10.45,34
3.52,-14.3,-14.26,-0.0,-3.71,-0.44,-5.07,-16.75,14.51,-0.49,-3.52,0.24,34
3.7,-14.45,-15.15,1.42,-0.44,2.64,-5.54,-18.49,14.81,46.68,11.87,24.76,34
5.25,-17.97,-14.36,37.26,22.12,16.75,-6.51,-14.14,15.42,68.85,26.22,23.39,34
6.56,-18.26,-8.8,69.19,32.57,14.7,-9.27,-2.94,16.26,133.35,16.26,63.09,34
3.37,-16.31,-6.29,129.0,77.1,17.72,-10.09,0.65,16.94,112.7,2.83,60.45,34
5.83,-16.56,5.69,133.01,21.83,1.76,-9.84,2.49,16.89,72.12,-9.86,57.91,34
1.28,-21.23,3.15,92.43,2.2,-5.08,-8.44,8.65,16.2,75.78,-0.29,37.84,34
3.34,-19.47,9.64,83.5,25.68,2.98,-7.49,11.84,14.96,36.82,5.47,8.74,34
2.81,-16.17,13.89,39.31,14.7,4.3,-6.9,12.77,14.35,26.22,1.86,8.4,34
2.21,-15.91,8.13,-139.65,-65.87,7.62,-6.36,-2.96,17.28,-158.35,-24.56,-13.38,35
3.53,-16.97,2.34,-132.96,-83.98,12.45,-4.21,-14.3,18.45,-81.4,-16.02,-35.5,35
5.6,-18.99,-5.1,-135.89,-76.9,11.18,-3.37,-15.1,17.81,-50.78,4.59,-14.06,35
3.21,-19.4,-11.65,-66.75,-41.94,3.37,-3.88,-12.6,14.6,-23.14,7.28,-7.76,35
1.27,-17.0,-12.77,-32.18,-22.95,6.59,-3.15,-13.41,16.14,-10.21,-0.2,27.93,35
1.08,-17.99,-16.21,-6.64,-4.69,2.59,-5.61,-14.51,14.21,-10.84,1.12,-0.98,35
0.1,-16.11,-11.49,-10.99,-2.88,9.77,-5.4,-15.94,14.79,-6.69,0.1,-8.54,35
0.31,-16.51,-11.5,-4.44,-4.88,-0.05,-4.08,-17.14,14.46,-0.29,0.15,0.78,35
0.16,-15.71,-14.62,-5.66,-4.74,1.56,-4.06,-15.37,15.04,3.08,1.12,-2.25,35
0.76,-15.64,-13.16,0.05,-1.51,-1.07,-4.91,-17.09,15.95,39.89,15.19,6.79,35
1.6,-17.46,-13.48,7.81,8.89,4.64,-5.46,-20.08,14.31,20.17,14.4,14.16,35
-2.98,-15.8,-14.99,48.39,-42.33,24.22,-6.51,-10.67,16.94,79.49,18.31,34.33,35
-0.57,-18.64,-9.86,75.88,37.11,-8.2,-9.23,-0.06,17.39,124.02,11.82,39.65,35
2.65,-21.64,-5.53,132.81,66.21,-14.84,-9.84,-1.61,16.27,113.57,7.47,34.57,35
1.97,-20.38,0.88,92.24,-6.69,-8.64,-9.09,7.05,17.12,81.74,-5.66,25.39,35
2.16,-18.1,6.86,94.34,41.55,-29.25,-8.44,8.78,15.37,80.37,-4.3,19.48,35
2.84,-18.34,10.42,73.53,26.07,-17.33,-8.29,6.59,11.07,99.22,12.01,3.42,35
1.48,-11.85,13.14,112.84,-31.45,8.35,-7.21,16.21,9.6,60.69,3.13,11.43,35
1.43,-7.53,17.15,96.83,24.9,-24.76,-7.41,19.54,6.92,38.67,1.46,10.84,35
3.93,-5.51,20.92,63.72,17.58,-12.6,-6.78,19.14,5.73,6.15,-8.15,0.88,35
-1.72,-5.4,21.26,77.1,44.29,23.54,-4.42,25.42,1.74,68.31,16.85,49.76,36
-3.69,5.77,22.56,-52.49,-26.95,-4.83,-3.29,30.95,3.82,-130.22,14.4,-26.86,36
-0.78,-11.47,12.73,-239.84,-107.08,-3.08,-4.73,11.07,10.68,-233.06,-18.75,-33.79,36
7.08,-19.28,8.22,-199.61,-116.89,23.93,-5.99,1.14,17.05,-173.97,-20.56,-41.36,36
4.44,-20.93,-2.4,-154.39,-85.25,39.21,-6.42,-8.01,16.53,-139.84,-10.45,-31.54,36
3.88,-21.84,-8.45,-104.44,-45.56,19.04,-5.82,-14.87,17.11,-49.8,-6.45,-29.54,36
2.09,-15.65,-9.53,-40.63,10.25,15.72,-2.39,-18.18,19.82,-41.89,6.69,-34.62,36
-0.36,-14.16,-12.33,-26.9,-2.69,13.53,-3.52,-16.17,15.14,-39.31,4.2,-23.88,36
-0.11,-15.51,-14.46,-25.29,-13.13,3.13,-3.86,-17.63,13.97,-19.53,-2.34,-2.64,36
0.31,-15.97,-13.0,-1.71,-17.09,0.24,-3.5,-14.93,14.47,-5.71,-8.54,-5.86,36
1.24,-19.98,-16.14,-7.96,4.69,-4.05,-3.47,-14.33,13.88,-3.13,-0.15,-0.15,36
-0.06,-14.19,-14.13,1.76,3.56,1.42,-2.36,-16.44,14.55,3.42,-2.93,1.81,36
3.29,-19.35,-14.69,33.35,15.48,-0.59,-4.03,-14.34,15.53,63.48,17.77,25.24,36
1.9,-21.73,-12.85,108.54,33.94,11.87,-5.62,-13.37,16.49,104.74,24.51,58.54,36
2.34,-21.01,-3.58,160.94,84.62,-30.18,-7.65,-0.44,15.91,175.0,6.93,60.21,36
3.39,-16.59,6.38,127.0,14.7,-11.13,-6.98,5.61,18.24,99.56,1.12,21.73,36
2.27,-18.38,8.57,105.37,37.06,-17.68,-7.17,9.64,15.68,113.38,-6.74,28.27,36
2.06,-13.78,14.23,94.09,25.73,-21.73,-6.38,12.74,12.88,87.01,-0.24,18.36,36
4.19,-9.35,19.43,92.04,14.75,-13.23,-4.89,17.95,10.38,67.38,6.2,3.03,36
2.63,-5.88,19.88,53.32,21.68,-0.39,-5.82,19.31,5.86,52.73,-3.86,-13.92,36
2.94,-8.64,19.73,-50.73,-21.39,15.48,-7.42,10.18,13.49,-99.27,-8.35,8.3,37
3.11,-11.05,17.51,-44.68,-29.74,5.32,-6.49,8.63,16.31,-86.87,-2.59,9.91,37
2.97,-14.87,13.71,-95.51,-42.58,20.51,-4.62,2.39,18.88,-134.03,-23.83,7.37,37
5.6,-18.78,11.5,-88.13,-52.05,20.36,-4.71,-1.56,19.25,-96.44,-7.32,4.44,37
5.7,-20.29,5.01,-123.73,-72.17,30.27,-4.3,-9.3,18.88,-98.39,-5.08,-6.15,37
4.37,-20.61,-0.67,-86.52,-51.81,27.1,-3.98,-9.52,18.03,-58.25,39.45,-22.31,37
3.92,-21.8,-6.17,-99.76,-57.03,23.97,-4.86,-12.2,15.97,-31.64,22.9,-12.74,37
1.53,-19.58,-9.38,-48.14,-26.07,24.32,-5.96,-13.37,13.98,-33.01,11.77,-17.87,37
-2.04,-16.49,-13.22,-32.57,-7.52,21.0,-6.21,-14.32,14.24,-23.49,1.9,-9.91,37
-1.0,-15.61,-11.29,-16.99,-16.65,6.54,-5.25,-18.4,11.14,-21.83,12.79,-6.79,37
-2.83,-16.15,-13.8,-14.21,-14.06,10.16,-2.85,-21.02,9.86,-5.22,-14.6,-14.26,37
-2.67,-16.79,-14.6,-6.69,-14.45,21.39,-3.66,-17.26,11.98,8.89,-6.01,-0.39,37
-6.15,-11.9,-16.14,-7.72,-2.39,3.81,-3.92,-16.09,13.83,-8.98,-5.18,2.98,37
-3.66,-15.04,-14.1,2.29,6.1,-3.08,-3.88,-18.73,11.39,7.81,14.11,14.26,37
-5.39,-14.57,-15.49,2.88,-7.37,-3.32,-4.69,-18.39,11.77,51.17,17.87,12.99,37
-3.79,-15.08,-14.05,14.06,4.44,7.28,-6.72,-12.23,14.49,56.59,-6.3,18.55,37
-1.7,-16.74,-12.53,38.57,30.03,-7.23,-6.1,-14.15,16.07,100.78,12.65,25.59,37
-1.53,-14.54,-10.72,47.36,33.3,-23.97,-7.0,-8.69,17.5,82.42,0.15,16.8,37
1.85,-21.55,-10.0,83.94,51.71,-25.39,-7.32,-0.45,18.74,97.27,-10.06,12.89,37
2.23,-19.93,-5.04,82.18,38.43,-18.16,-5.95,2.67,19.73,102.25,-5.03,5.66,37
2.3,-7.6,19.61,2.69,-2.98,1.03,-7.51,17.02,8.23,-0.49,-0.54,0.0,38
2.31,-7.89,19.78,0.78,-0.49,0.78,-7.48,17.13,8.01,0.24,-1.56,-0.63,38
2.72,-7.71,20.0,-0.05,-1.07,0.29,-7.32,17.32,8.0,-0.98,-1.42,2.0,38
2.68,-7.55,20.03,1.22,-0.63,1.03,-7.2,17.07,8.17,0.15,-0.05,0.49,38
2.76,-7.88,19.88,0.44,-1.95,0.49,-7.44,17.04,8.05,1.76,1.03,-2.15,38
2.33,-7.75,19.94,0.29,-0.83,0.63,-7.55,17.27,7.77,0.15,2.15,2.39,38
2.56,-7.82,19.89,-0.15,-1.22,0.39,-7.54,17.14,7.95,-0.93,-0.15,-0.54,38
2.11,-7.72,19.61,1.9,-0.15,1.61,-7.48,17.15,7.96,0.15,-0.1,-1.22,38
2.4,-7.77,19.83,-1.12,-0.34,0.49,-7.56,16.99,7.82,0.15,-0.54,1.37,38
2.45,-7.61,19.92,0.15,-0.63,0.2,-7.31,17.35,7.98,-0.44,0.39,1.46,38
2.63,-7.84,19.76,0.54,-0.73,0.49,-7.46,17.12,8.02,-0.15,-0.29,-0.68,38
2.8,-7.79,19.98,0.24,-0.68,1.56,-7.37,17.32,7.96,0.05,-0.34,1.32,38
2.39,-7.77,19.7,0.1,0.73,0.59,-7.39,17.05,7.91,-0.54,-0.29,-0.24,38
2.19,-7.77,19.78,0.2,-1.17,1.42,-7.42,17.23,7.87,-0.2,-0.39,0.24,38
2.62,-7.72,19.78,1.17,-0.59,1.22,-7.35,17.17,7.91,-0.34,-0.24,0.63,38
2.41,-7.86,19.68,0.78,0.34,1.27,-7.35,17.2,7.96,-0.0,0.15,0.59,38
2.48,-7.94,19.83,0.98,-3.08,0.83,-7.33,17.18,7.99,-0.68,-0.39,0.39,38
2.9,-7.63,20.0,-0.44,-0.93,0.44,-7.3,17.17,8.03,-0.15,-0.1,0.1,38
2.67,-7.94,19.72,0.93,-0.05,0.49,-7.35,17.13,7.97,-0.05,-0.2,-0.44,38
2.74,-7.83,19.87,1.86,0.34,2.15,-7.44,17.14,7.94,-0.49,-0.34,-0.73,38
2.09,-8.28,19.7,-2.34,-8.64,-1.61,-7.45,17.08,8.67,0.15,-0.63,2.05,39
2.18,-8.8,19.81,2.93,0.83,1.42,-7.61,16.82,8.76,0.49,0.24,0.63,39
1.83,-8.48,19.44,-6.4,-6.35,-2.54,-7.6,16.7,8.7,-0.93,-0.49,-1.03,39
2.15,-8.79,19.51,-1.32,-1.71,0.15,-7.66,16.73,8.79,-0.29,0.15,0.73,39
2.2,-8.47,19.24,1.37,0.29,1.51,-7.68,16.69,8.71,-0.54,0.05,-0.44,39
2.16,-8.96,19.45,0.68,-0.15,0.73,-7.75,16.6,8.74,-0.2,-0.34,-0.2,39
2.2,-8.65,19.44,0.54,1.61,0.88,-7.67,16.74,8.63,0.05,-0.59,-0.44,39
1.96,-8.94,19.34,-0.05,0.39,0.63,-7.8,16.48,8.76,-0.24,-0.39,-0.2,39
2.01,-8.75,19.6,1.32,-1.07,1.32,-7.84,16.66,8.58,-0.1,0.2,0.29,39
2.11,-8.88,19.5,0.68,0.0,1.07,-7.77,16.67,8.75,-0.78,-0.34,-0.63,39
2.07,-8.89,19.37,1.27,-1.12,0.24,-7.76,16.84,8.83,0.83,0.15,0.1,39
1.92,-8.8,19.35,1.51,1.76,1.37,-7.77,16.66,8.76,0.05,-0.2,-0.1,39
2.07,-8.86,19.58,0.93,-0.39,1.12,-7.74,16.77,8.69,0.05,0.29,0.34,39
1.95,-8.88,19.46,0.29,-1.03,0.49,-7.75,16.71,8.82,0.15,-0.1,0.24,39
2.0,-8.83,19.64,1.07,-1.46,0.44,-7.4,16.85,8.07,1.51,-0.98,0.05,39
1.77,-8.78,19.5,0.73,-1.12,1.27,-7.78,16.63,8.71,-0.29,0.0,0.15,39
2.11,-8.69,19.7,1.46,-0.15,1.66,-7.72,16.86,8.69,-0.44,0.1,-0.2,39
1.87,-8.3,19.36,-1.66,-1.32,-0.34,-7.7,16.93,8.72,0.68,0.15,-0.05,39
2.17,-8.99,19.5,3.32,1.22,2.29,-7.77,16.68,8.74,-0.15,-0.2,0.49,39
1.96,-8.98,19.36,-0.88,-1.32,0.34,-7.79,16.54,8.71,-0.29,-0.44,-0.54,39
2.91,-15.37,12.01,-167.82,-60.94,6.1,-6.9,11.1,11.47,-157.52,-41.6,-2.44,40
5.17,-23.61,0.01,-194.34,-87.7,43.12,-4.44,-0.22,16.27,-199.51,-10.5,21.24,40
5.33,-24.18,-6.71,-152.59,-88.77,31.1,-4.04,-7.85,18.52,-151.37,-5.32,11.96,40
1.51,-18.56,-11.05,-74.9,-36.96,18.95,-4.18,-12.08,17.33,-80.03,10.06,-7.76,40
0.07,-17.32,-15.08,-38.04,-5.57,9.03,-3.46,-14.85,17.52,-38.97,22.85,-9.37,40
-1.51,-14.9,-14.21,-27.83,3.17,4.74,-6.03,-15.67,13.81,-30.22,10.16,-11.87,40
-1.2,-13.51,-14.81,-14.16,9.08,14.16,-4.51,-13.66,13.46,-21.83,13.77,-22.71,40
-1.86,-13.86,-14.64,-5.71,-2.29,3.96,-5.79,-14.58,13.58,-5.62,0.93,-2.1,40
-1.88,-13.62,-16.3,1.27,-2.64,4.98,-4.8,-16.25,13.53,0.68,0.98,6.35,40
0.99,-17.1,-15.74,21.09,3.66,12.7,-4.3,-19.12,15.0,14.16,10.79,9.72,40
-1.63,-16.4,-12.92,85.4,32.52,-1.22,-6.52,-15.03,13.0,79.54,15.19,10.6,40
4.34,-23.47,-8.34,181.54,83.5,-28.17,-7.0,-7.68,16.18,202.59,18.6,38.23,40
1.18,-19.41,-0.31,180.13,44.63,-13.67,-6.68,3.05,16.85,164.79,5.76,48.29,40
0.31,-14.36,9.89,168.6,59.72,-27.93,-7.3,10.49,11.35,164.94,3.86,14.99,40
0.01,-8.96,18.05,110.55,19.53,-9.86,-7.78,19.77,11.85,103.27,7.37,10.79,40
-1.11,-4.88,19.72,33.89,15.92,21.53,-9.02,16.55,6.1,13.33,9.81,-25.59,40
3.77,-10.41,21.46,5.71,-4.79,-3.66,-7.13,18.79,9.79,9.72,-0.63,3.56,40
1.01,-8.26,20.33,1.22,-8.25,1.27,-7.85,17.31,8.13,-0.63,2.05,2.29,40
0.99,-9.16,19.22,2.25,-5.13,1.22,-7.65,16.65,8.69,0.44,0.63,2.49,40
2.56,-8.51,19.71,-2.73,-2.54,3.17,-7.25,17.35,8.62,-4.49,-1.37,-0.39,40
1.82,-8.88,19.47,-1.12,0.63,0.24,-7.31,16.76,8.95,0.05,-0.59,0.59,41
1.93,-9.1,19.42,0.49,-0.93,0.59,-7.42,16.69,8.93,0.05,0.24,-0.93,41
1.88,-8.99,19.4,0.63,0.39,0.98,-7.46,16.59,8.89,-1.07,-1.17,-0.98,41
1.71,-8.95,19.45,-0.34,-0.34,0.49,-7.37,16.97,8.89,0.1,0.1,-0.78,41
1.92,-8.87,19.36,0.63,0.29,1.22,-7.5,16.6,9.03,-0.29,0.83,-0.34,41
1.57,-9.4,19.18,-0.73,-0.49,2.44,-7.57,16.64,9.09,-1.51,-0.15,-1.03,41
1.81,-9.28,19.43,-1.17,-0.39,1.42,-7.33,16.94,8.76,2.39,0.0,4.1,41
2.0,-9.12,19.36,4.49,-3.47,0.39,-7.42,16.12,9.25,-1.32,-3.56,-2.0,41
1.62,-9.28,19.17,-3.56,0.78,-2.1,-7.32,17.01,8.72,1.07,0.15,1.9,41
1.9,-8.67,19.42,4.98,-1.9,1.22,-7.13,16.22,9.14,-0.05,1.03,2.59,41
1.94,-9.39,19.03,1.27,-1.81,2.0,-7.19,17.18,8.76,0.78,-1.07,0.15,41
2.18,-8.37,19.72,2.2,-1.46,0.0,-7.07,16.61,9.11,0.49,-1.07,0.1,41
1.99,-9.29,19.35,0.29,-0.54,-0.54,-7.25,16.89,8.87,-0.59,-0.49,-0.49,41
2.0,-8.67,19.7,0.59,0.39,1.27,-7.12,15.54,8.5,16.7,6.98,5.13,41
1.67,-9.43,19.17,-0.54,25.63,5.37,-6.83,20.54,6.74,50.78,14.7,37.5,41
0.54,-8.24,19.38,18.9,30.96,15.43,-5.81,34.62,8.4,-158.35,-15.48,-31.74,41
2.08,-4.25,21.36,-95.95,-55.52,3.27,-4.2,6.29,14.76,-268.6,-43.7,-3.91,41
3.64,-21.61,1.14,-297.71,-109.37,50.63,-5.54,-4.38,17.38,-167.19,-15.33,-5.37,41
-0.05,-18.78,-6.9,-155.03,-70.46,40.87,-4.85,-13.37,17.51,-80.57,1.76,-8.94,41
1.18,-20.64,-13.01,-88.38,-28.32,11.13,-6.43,-10.24,18.11,-17.33,8.74,19.58,41
1.81,-7.59,20.53,3.37,7.47,-0.24,-6.95,19.62,7.66,-85.89,-16.89,-13.18,42
4.56,-10.19,20.86,-91.46,-23.78,-10.06,-7.11,10.18,11.98,-158.4,-40.87,0.49,42
3.3,-16.06,10.13,-148.54,-71.83,-3.66,-3.84,7.32,18.4,-235.01,-21.87,15.48,42
5.47,-20.64,1.14,-209.23,-113.23,62.94,-3.4,-11.08,10.28,-298.39,-21.58,-4.83,42
-1.31,-16.17,-14.09,-253.66,-144.14,75.1,-3.73,-16.17,12.84,-31.35,1.56,4.83,42
-4.04,-13.11,-15.99,-29.74,-2.0,8.01,-3.55,-17.53,13.12,-10.84,-12.35,-8.45,42
-1.28,-13.86,-13.87,-13.77,2.73,-4.74,-1.85,-17.96,12.77,1.22,-5.86,2.2,42
-0.34,-13.04,-15.31,-0.29,-1.51,-0.59,-2.25,-18.02,13.31,10.89,-4.98,1.61,42
0.15,-15.44,-15.4,11.87,3.32,-3.66,-3.93,-15.14,16.75,54.54,5.27,14.6,42
-2.91,-17.66,-14.8,72.9,3.03,-4.88,-4.42,-9.67,15.07,210.74,32.13,17.33,42
0.76,-20.37,-11.87,198.0,97.31,-45.65,-4.83,3.85,18.01,138.23,-3.96,35.25,42
5.45,-17.58,3.24,128.12,43.51,-31.54,-3.89,6.55,19.16,103.37,-13.04,18.46,42
5.71,-18.48,7.33,97.56,29.05,-29.98,-3.91,11.66,17.8,83.35,-6.35,6.05,42
4.92,-16.38,12.24,72.95,26.46,-22.56,-2.83,10.77,14.46,55.76,1.32,10.89,42
6.14,-16.12,14.2,51.95,11.47,-10.01,-3.18,20.03,13.29,36.47,-10.74,7.47,42
5.17,-7.93,18.52,36.08,3.32,-12.5,-3.8,13.58,13.47,-9.28,-5.66,-4.93,42
5.56,-13.17,15.95,-10.6,-0.93,-1.95,-4.03,14.4,13.1,-4.69,0.29,-0.78,42
4.81,-12.2,16.09,-5.37,-4.05,2.39,-3.43,15.26,14.17,-1.81,1.81,2.0,42
5.82,-12.93,16.61,-0.59,-2.34,3.86,-3.07,14.9,14.26,-8.15,6.79,1.37,42
6.14,-12.99,16.32,-3.81,-6.05,9.08,-3.36,15.63,14.08,-96.0,13.09,-3.86,42
4.25,-8.19,18.75,-4.25,-0.15,-1.17,-4.6,17.72,7.54,1.56,1.42,8.2,43
4.55,-6.96,19.79,7.81,-3.52,-0.34,-5.75,18.01,7.23,-3.22,-0.73,-0.54,43
4.5,-6.58,19.74,-1.07,-1.03,-1.95,-5.49,18.3,7.25,3.27,0.44,-4.98,43
4.98,-7.16,19.68,-0.73,-4.25,-1.07,-5.57,17.17,7.62,-3.61,-3.27,-0.39,43
4.74,-6.79,19.7,-3.13,-0.15,-0.44,-5.84,18.23,7.25,1.66,2.59,3.32,43
5.2,-6.96,19.63,2.29,-3.12,1.51,-5.65,17.83,7.62,-1.61,-1.71,-1.76,43
4.91,-6.94,19.71,-1.03,-0.78,0.24,-5.72,17.98,7.39,-1.07,-2.49,-1.32,43
5.17,-7.0,19.58,0.15,1.61,1.07,-5.74,17.65,7.72,0.98,-0.24,1.71,43
4.63,-7.41,19.47,0.34,-0.93,0.98,-5.63,17.82,7.56,-2.1,-1.32,-4.05,43
4.76,-6.86,19.7,-0.88,-0.15,0.39,-6.14,17.7,7.85,0.2,-0.54,-0.93,43
4.9,-7.09,19.64,-8.3,9.08,-2.05,-5.34,17.78,7.97,2.59,2.64,2.78,43
2.9,-8.92,19.09,-16.5,18.65,-5.03,-6.08,18.4,7.32,0.49,-0.78,0.83,43
2.17,-8.52,19.12,-5.76,11.67,-1.81,-5.71,17.62,7.82,-0.24,-0.59,-3.47,43
2.74,-8.66,19.47,-0.0,2.64,0.78,-6.0,17.51,7.74,-1.37,1.9,-1.37,43
2.97,-8.4,19.95,1.12,-2.49,1.27,-6.2,17.68,7.51,0.05,1.22,-1.12,43
2.29,-8.51,19.2,-1.32,1.12,0.63,-6.11,17.81,7.39,-0.15,-1.27,0.68,43
2.33,-8.74,18.89,0.68,0.88,0.24,-6.01,17.52,7.98,-3.17,-2.93,1.42,43
2.93,-8.62,19.84,2.34,-1.86,1.03,-6.13,18.17,7.46,4.35,3.52,4.88,43
2.77,-8.72,19.66,2.88,-1.22,1.61,-5.73,17.38,7.81,-0.29,0.78,-3.08,43
2.31,-8.26,19.41,-0.54,-0.34,1.76,-6.2,18.87,7.55,-1.42,0.63,-1.86,43
2.9,-7.73,19.75,-3.27,-1.86,2.05,-7.24,17.52,7.31,-0.44,0.34,-0.05,44
2.92,-7.98,19.61,-1.61,-1.76,0.93,-7.14,17.46,7.43,-0.0,0.39,1.51,44
3.17,-7.85,19.76,0.63,-1.42,1.12,-7.15,17.43,7.39,-0.54,-0.24,-0.54,44
2.91,-8.0,19.63,-0.0,-2.25,1.03,-7.33,17.75,7.39,-17.19,-3.37,-3.47,44
3.01,-7.9,19.71,-1.27,-0.63,0.63,-7.39,16.92,8.51,-9.28,-1.51,-0.98,44
3.11,-6.71,20.28,-13.38,-6.79,6.15,-7.81,17.93,8.68,-48.0,-2.69,-1.76,44
3.04,-9.48,18.84,-8.2,-3.81,3.13,-6.82,21.52,14.69,-112.26,-26.81,-6.69,44
2.98,-7.99,19.97,-34.03,-18.16,15.43,-8.88,10.55,14.58,-137.26,8.54,-3.17,44
3.81,-10.41,17.19,-79.39,-32.86,5.96,-7.4,2.78,17.8,-123.14,-10.25,-12.74,44
4.69,-16.08,10.88,-116.06,-65.33,28.81,-5.48,-4.46,19.17,-110.11,-17.72,-6.88,44
6.8,-21.1,4.38,-116.31,-65.82,40.53,-4.39,-11.4,17.48,-103.37,-27.59,-16.46,44
3.04,-20.34,-3.2,-98.29,-49.32,37.06,-2.98,-14.99,17.69,-31.93,10.25,-4.88,44
1.58,-19.08,-7.64,-98.1,-46.34,30.27,-6.58,-17.94,12.02,-44.29,26.03,-14.75,44
0.52,-20.15,-12.22,-49.37,-28.66,15.87,-5.65,-17.59,12.79,-21.92,0.49,-6.15,44
-2.46,-17.03,-12.33,-22.51,-18.41,16.7,-4.75,-19.96,12.66,-23.97,-1.46,-8.01,44
-2.98,-15.73,-11.96,-19.29,-12.26,8.35,-4.73,-17.37,13.69,4.69,-5.52,7.96,44
-3.76,-15.61,-14.17,-22.71,-9.62,3.71,-4.41,-16.11,14.44,17.14,-0.1,4.64,44
-1.92,-15.55,-12.45,2.15,-6.2,-3.27,-7.56,-11.02,14.07,87.16,25.63,29.88,44
-1.71,-15.91,-12.81,16.6,12.21,-0.34,-7.5,-10.67,15.71,88.92,13.13,26.07,44
-2.47,-17.47,-11.09,76.12,50.83,-12.06,-7.95,-8.23,19.01,62.11,3.76,18.65,44
2.67,-6.29,20.36,-1.32,-0.68,0.44,-6.89,19.02,5.25,-10.94,-3.56,-8.25,45
2.38,-4.41,20.38,-14.8,-4.35,-3.47,-7.31,18.51,6.3,-16.6,-3.32,-8.54,45
2.44,-7.44,19.26,-18.36,-21.04,-3.52,-7.01,18.29,9.07,-62.65,-4.83,9.13,45
8.45,-9.23,19.34,-47.17,-56.2,1.37,-4.5,17.04,13.49,-132.18,-46.48,-1.03,45
9.27,-13.19,14.87,-128.47,-65.48,33.45,-6.38,11.16,14.05,-175.34,-26.51,-10.4,45
3.85,-15.67,6.06,-159.33,-85.69,59.86,-4.55,0.4,18.21,-130.03,-12.3,-3.37,45
6.05,-19.79,-0.53,-108.15,-66.65,46.97,-3.35,-6.8,21.2,-116.46,-11.62,-0.73,45
11.12,-30.59,-7.64,-89.94,-44.63,32.71,-4.34,-11.27,17.38,-62.7,-5.37,-6.3,45
0.51,-17.71,-9.6,-49.02,-26.37,22.56,-2.86,-18.87,16.61,-74.22,-9.33,-12.65,45
-0.28,-18.61,-13.82,-38.67,-27.93,21.14,-3.9,-14.86,14.84,-17.63,2.34,6.84,45
-2.86,-15.93,-13.14,-10.25,-13.23,10.06,-2.93,-14.76,15.2,-14.36,-3.96,1.9,45
-2.93,-15.57,-14.1,-12.6,-14.31,5.86,-2.78,-14.91,15.19,-2.39,-0.83,-2.93,45
-2.72,-16.0,-14.57,-2.88,1.71,4.83,-2.71,-16.4,15.89,11.03,1.71,3.27,45
-1.27,-17.28,-13.85,15.97,15.82,-1.46,-3.82,-12.79,15.58,13.23,6.45,-1.66,45
-2.54,-16.17,-12.88,12.35,9.08,-0.15,-3.83,-15.19,16.26,28.66,7.13,2.29,45
-0.79,-18.41,-12.03,35.35,21.09,-8.25,-4.28,-10.79,17.4,66.8,9.33,1.9,45
0.73,-19.71,-9.89,60.16,41.41,-20.51,-5.29,-2.53,18.95,136.67,10.06,16.6,45
0.84,-17.86,-5.61,94.58,55.08,-26.03,-6.28,-2.44,19.21,89.4,8.74,10.55,45
4.27,-21.18,-0.44,86.47,41.06,-26.56,-5.95,6.25,18.87,110.74,7.71,7.42,45
5.34,-18.37,5.9,100.34,49.17,-26.86,-6.05,10.56,15.87,130.86,4.64,0.54,45
4.84,-8.21,19.15,0.1,0.59,0.73,-5.81,16.36,9.86,-2.78,-0.34,-1.03,46
4.82,-8.29,19.13,1.07,-1.03,0.88,-5.31,17.42,9.31,0.54,0.63,1.22,46
4.03,-8.09,18.74,0.1,3.03,3.91,-6.08,16.52,9.38,-0.39,-3.17,-2.39,46
4.64,-8.11,19.28,1.07,-0.05,0.73,-5.58,16.94,9.5,-0.54,-0.93,-2.0,46
4.21,-8.25,19.2,-0.83,-0.88,1.56,-6.14,16.63,9.71,-1.9,-1.51,-0.98,46
4.43,-8.87,18.74,-5.22,-0.68,2.1,-5.6,16.98,9.62,0.49,-0.44,1.17,46
4.83,-8.2,19.05,2.64,-2.59,2.73,-5.7,16.89,9.74,-1.56,-0.78,-0.78,46
3.61,-8.62,18.6,-3.37,3.27,2.39,-5.97,16.52,9.62,-1.42,0.2,-1.37,46
4.41,-8.97,18.85,-2.2,1.12,-0.49,-5.73,17.27,9.67,-0.1,-0.54,0.83,46
4.11,-8.82,18.97,-1.95,0.34,0.98,-6.2,16.84,9.59,1.07,1.71,0.83,46
4.6,-8.67,18.84,1.81,-2.0,1.32,-5.6,16.96,9.88,-2.54,-2.1,-1.9,46
4.54,-9.04,19.12,-1.81,-1.61,0.44,-5.9,16.56,10.22,-0.29,1.51,2.0,46
4.42,-9.0,18.91,-0.54,0.54,1.61,-5.93,16.92,9.99,-3.32,-0.15,-5.13,46
4.25,-8.77,18.75,1.46,-1.32,1.61,-6.48,16.21,9.85,3.42,1.42,1.32,46
4.26,-9.6,18.9,0.34,-1.22,1.12,-5.73,17.2,9.96,-0.54,1.07,0.83,46
4.71,-8.89,18.68,-3.47,-0.29,1.42,-6.31,16.29,10.12,1.9,0.05,0.05,46
3.93,-9.67,18.54,0.34,-2.29,2.34,-4.72,15.33,11.51,-1.47,0.49,-6.05,46
4.73,-8.78,18.89,-1.22,2.69,2.49,-6.97,18.28,9.02,6.1,7.86,6.25,46
3.47,-9.78,18.27,1.61,1.76,4.98,-5.21,17.27,11.9,-84.28,11.38,-7.76,46
4.63,-9.05,19.02,3.12,-2.83,2.54,-7.31,8.84,13.81,-110.06,10.99,-1.22,46
2.68,-6.4,20.93,1.76,-10.45,2.15,-8.18,17.67,6.93,-4.05,-1.32,2.05,47
3.08,-7.56,20.29,-6.35,-1.17,-0.83,-8.17,16.94,7.39,-1.95,-0.63,-0.2,47
3.06,-7.41,20.04,-0.78,-4.49,-0.44,-7.6,17.36,7.57,-0.73,0.05,3.47,47
2.79,-7.41,19.95,0.24,-2.0,0.24,-7.81,17.31,7.57,-0.59,-0.98,2.15,47
3.09,-7.36,20.12,1.42,-2.2,-0.44,-7.57,17.23,7.51,-0.15,-1.27,2.29,47
3.04,-7.2,19.77,-1.86,-2.2,-0.54,-7.6,17.24,7.55,-0.44,-0.68,0.88,47
3.61,-7.62,19.86,-1.56,-8.11,-0.54,-7.54,17.12,7.54,-0.24,0.44,0.1,47
3.47,-7.48,19.7,0.44,-2.69,0.54,-7.59,17.41,7.5,-0.29,-0.44,0.83,47
3.76,-7.32,19.62,3.71,-1.22,1.61,-7.5,17.24,7.44,0.1,0.24,0.63,47
3.63,-7.46,19.71,-0.24,-0.44,1.07,-7.5,17.2,7.52,-0.68,-0.39,-0.05,47
3.67,-7.45,19.76,1.61,-0.63,0.98,-7.58,17.23,7.43,-0.05,0.05,0.2,47
3.71,-7.36,19.77,2.39,-1.86,0.59,-7.45,17.48,7.55,0.1,-0.15,1.17,47
3.83,-7.12,19.8,1.12,-0.68,0.98,-7.55,17.39,7.54,-0.34,-0.93,-0.44,47
3.78,-7.33,19.74,0.83,-1.56,0.88,-7.49,17.31,7.38,-1.42,-0.44,-0.34,47
3.82,-7.61,19.71,-0.39,-1.37,0.39,-7.35,17.5,7.87,-0.88,-0.78,-0.73,47
3.97,-7.43,19.82,-0.24,0.24,2.0,-7.64,17.05,7.7,-1.95,0.63,-2.15,47
3.83,-7.69,19.83,4.2,0.93,2.59,-7.42,16.81,7.7,7.47,0.98,3.52,47
3.03,-6.88,19.76,-6.74,3.52,-0.39,-7.52,18.01,7.26,-0.83,2.83,-5.37,47
2.91,-9.01,19.4,-7.52,0.05,-2.1,-9.16,17.62,7.07,-7.81,10.25,5.08,47
4.01,-7.33,20.08,-65.48,-28.27,-10.06,-9.29,21.79,7.93,-69.14,-19.63,11.13,47
2.44,-9.2,19.2,1.12,-0.68,0.63,-5.37,18.02,6.35,-0.73,-0.73,-0.1,48
2.38,-9.31,19.04,0.63,-0.93,1.07,-5.29,17.99,6.3,-0.68,-0.15,0.68,48
2.26,-9.29,19.13,0.68,-0.49,0.24,-5.2,18.28,6.49,-0.63,-1.9,0.2,48
2.41,-9.37,19.21,1.51,-1.56,0.63,-5.33,18.18,6.35,0.29,-0.54,1.32,48
2.39,-9.33,19.07,1.51,-1.03,0.68,-5.21,18.35,6.47,0.29,-0.24,1.27,48
2.62,-9.31,19.22,0.83,-2.05,0.93,-5.01,18.26,6.43,-1.03,-0.1,0.98,48
2.56,-9.24,19.22,0.68,-1.42,0.63,-5.04,18.29,6.47,-0.63,-0.44,0.29,48
2.62,-9.38,19.36,1.46,-2.54,0.15,-5.13,18.36,6.45,0.98,0.34,0.78,48
2.73,-9.3,19.28,0.29,-1.07,0.44,-5.08,18.41,6.52,-0.2,-0.39,-0.59,48
2.57,-9.25,19.22,1.07,-1.61,0.2,-5.02,18.59,6.44,0.59,-0.05,0.68,48
2.66,-9.17,19.24,0.59,-1.51,1.12,-5.09,18.28,6.28,0.44,0.0,0.15,48
2.6,-9.32,19.06,0.2,-0.68,1.22,-5.07,18.2,6.56,0.15,0.34,0.44,48
2.62,-8.97,19.33,0.24,-0.39,0.68,-5.08,18.36,6.43,-0.73,-0.24,-0.15,48
2.13,-9.75,18.81,1.03,-29.39,7.91,-6.3,19.5,5.82,-22.95,9.86,-2.1,48
3.6,-10.47,16.7,-48.73,-46.92,-7.13,-3.73,18.47,10.5,-72.85,6.15,24.22,48
6.13,-15.68,11.17,-106.15,-51.12,28.81,-5.45,8.31,12.88,-111.91,6.3,2.0,48
6.03,-14.55,10.25,-80.18,-53.03,23.68,-3.15,12.53,17.79,-122.07,-8.84,15.97,48
6.47,-18.01,5.75,-99.27,-60.21,51.9,-5.22,4.0,16.57,-123.83,3.17,-2.78,48
8.09,-19.95,1.62,-64.7,-51.03,29.49,-3.08,4.97,20.85,-79.3,-5.96,6.88,48
6.64,-22.54,-3.73,-62.65,-39.11,37.01,-3.72,0.01,20.98,-77.98,4.59,-3.56,48
4.06,-6.52,19.83,1.61,-1.07,1.32,-4.13,18.52,6.27,-0.59,0.0,-0.2,49
4.27,-6.46,19.91,0.39,-1.03,0.73,-4.02,18.54,6.45,-0.54,0.0,0.78,49
4.21,-6.36,19.87,0.98,-0.39,1.42,-4.12,18.3,6.42,-0.39,-0.63,0.15,49
4.39,-6.64,19.86,0.2,-2.2,1.03,-4.05,18.6,6.19,-0.93,-0.93,-0.2,49
4.08,-6.64,19.64,0.15,-1.07,0.54,-3.88,18.75,6.31,1.22,0.15,0.54,49
4.34,-6.31,19.89,-1.27,-1.27,0.1,-4.29,18.26,6.6,-2.25,-0.24,-1.17,49
4.47,-6.17,19.87,3.32,-0.15,1.12,-4.06,18.73,6.07,-0.1,0.63,0.34,49
4.02,-7.37,19.73,-2.49,-0.73,1.37,-4.31,18.4,6.58,0.05,0.1,-0.34,49
4.38,-6.01,19.97,2.0,-0.73,2.15,-3.95,18.49,6.43,-1.9,-2.15,0.2,49
4.12,-6.89,19.79,0.83,-0.73,0.63,-4.01,18.4,6.82,-2.15,-2.0,4.83,49
4.24,-6.55,19.64,-2.1,-1.22,-0.24,-3.36,18.85,6.61,-0.73,-1.27,-0.54,49
4.53,-7.08,19.86,-0.63,-5.62,-0.83,-4.11,18.16,6.6,0.05,-0.88,0.05,49
5.48,-6.44,19.93,-1.47,-0.1,-0.05,-3.82,18.69,6.72,-0.15,0.93,1.12,49
3.93,-6.89,19.53,-0.0,-0.88,0.05,-3.94,18.36,6.56,-0.05,0.05,-4.25,49
4.72,-6.69,19.89,1.22,-2.0,1.86,-4.19,18.23,6.64,0.2,1.71,-0.05,49
4.32,-6.71,19.63,-0.15,2.93,1.42,-4.19,18.63,6.45,-0.29,-0.05,0.59,49
3.94,-6.77,19.61,1.32,-0.98,2.29,-3.85,18.56,6.61,-0.15,-1.07,0.83,49
4.17,-6.37,19.75,-0.2,-1.42,0.78,-4.04,18.46,6.73,0.49,-0.49,0.0,49
4.61,-6.61,19.73,0.15,-1.51,-0.24,-3.85,18.71,6.57,-0.88,0.05,-0.39,49
4.26,-6.75,19.65,1.27,-0.44,0.68,-4.08,18.19,6.74,-1.81,0.88,0.39,49
4.15,-5.34,20.38,0.39,-1.17,1.61,-5.73,18.34,5.62,-1.12,-0.24,0.93,50
3.79,-6.28,19.9,-0.98,-2.1,0.63,-5.73,18.46,5.43,-1.42,-0.93,0.54,50
4.03,-5.42,20.03,1.32,-2.64,1.22,-5.51,18.4,5.59,-0.54,-1.81,0.24,50
3.92,-5.78,19.92,0.93,-0.24,0.39,-5.72,18.11,5.6,-0.59,-0.24,-0.68,50
3.94,-5.91,20.01,-0.29,-0.63,1.27,-5.61,18.77,5.65,-0.39,0.1,0.39,50
4.15,-5.62,20.14,0.59,-2.05,0.34,-5.61,18.39,5.7,-0.93,-0.29,-0.2,50
4.2,-5.92,20.03,0.44,-0.88,0.78,-5.53,18.43,5.81,-0.34,-0.78,-0.1,50
4.07,-5.85,20.0,-0.98,-0.78,0.39,-5.66,18.46,5.58,-0.24,-0.54,0.39,50
3.93,-5.87,20.01,1.46,-0.78,0.78,-5.71,18.55,5.72,0.05,-0.83,0.83,50
3.94,-5.82,19.91,0.34,-0.88,0.24,-5.56,18.52,5.62,-0.88,-0.49,-0.15,50
4.22,-5.72,20.11,0.83,-0.88,1.12,-5.58,18.57,5.6,-0.0,0.49,-0.39,50
3.95,-5.82,20.0,0.98,0.1,1.56,-5.7,18.31,5.84,-0.34,0.49,-0.98,50
4.04,-6.26,20.0,-0.44,-0.24,1.46,-5.69,18.44,5.73,-1.12,-0.1,0.15,50
3.89,-5.91,19.95,0.15,-0.63,1.42,-5.74,18.33,5.73,-0.68,-0.44,-1.17,50
4.1,-6.01,20.16,-0.05,0.24,0.73,-5.77,18.37,5.81,-0.34,-0.34,-0.24,50
3.93,-6.13,19.96,-0.59,-0.88,0.73,-5.77,18.41,5.85,-2.34,-0.44,-2.44,50
4.06,-6.01,20.11,-1.95,0.2,1.32,-6.0,18.14,5.96,-1.61,0.34,-1.46,50
3.71,-6.4,19.92,-1.81,0.05,2.05,-5.99,18.18,6.02,-0.59,0.29,0.73,50
3.7,-6.46,19.88,0.59,-1.32,2.2,-5.96,18.32,6.08,-1.12,-0.54,-0.83,50
3.91,-6.47,20.14,-1.42,-1.07,0.78,-6.01,18.07,5.81,-0.05,-0.05,0.44,50
