ACC-X-Ring1,ACC-Y-Ring1,ACC-Z-Ring1,GYRO-X-Ring1,GYRO-Y-Ring1,GYRO-Z-Ring1,ACC-X-Ring2,ACC-Y-Ring2,ACC-Z-Ring2,GYRO-X-Ring2,GYRO-Y-Ring2,GYRO-Z-Ring2,TEST
-3.03,11.57,15.64,81.69,17.48,54.79,-1.23,11.19,-15.13,97.51,-6.05,2.83,1
-2.01,14.46,11.3,35.94,-5.52,27.15,-2.1,6.52,-15.77,42.68,-13.28,0.15,1
0.09,14.0,14.46,14.11,-29.88,14.6,0.73,11.43,-16.79,22.46,7.28,9.08,1
-1.18,15.62,12.09,6.49,-5.62,5.22,0.08,8.49,-17.72,4.0,8.01,3.96,1
-0.69,16.9,11.6,-11.62,-5.32,-8.25,-0.02,9.78,-16.89,-32.47,6.84,-4.74,1
-1.39,19.85,11.36,-111.57,10.3,-47.56,-1.85,11.39,-16.65,-142.72,23.63,-7.18,1
-1.34,12.71,18.92,-136.72,-12.99,-63.38,0.71,19.98,-9.26,-134.08,-1.81,-41.36,1
-3.33,1.07,20.12,-105.13,5.86,-34.03,-2.97,16.1,-5.46,-93.31,-10.99,-30.52,1
-2.99,1.1,20.02,-103.71,-9.81,-22.95,-3.82,18.01,-2.09,-106.3,-8.89,-23.0,1
-2.22,-5.67,20.09,-73.63,-13.33,-18.21,-4.09,19.43,3.95,-72.71,-16.8,-17.09,1
-2.96,-9.53,18.5,-47.36,-2.93,-8.79,-4.29,20.54,7.35,-48.44,-6.69,-12.01,1
-0.22,-14.24,19.08,-44.58,-6.45,-2.69,-4.45,19.54,10.46,-43.12,3.56,-4.93,1
-1.1,-16.27,14.85,-51.17,-6.25,3.56,-6.27,12.17,10.58,-36.18,1.9,-8.4,1
-1.2,-16.11,15.92,-0.78,4.79,3.91,-6.13,15.17,11.95,-2.78,4.69,-11.08,1
-1.19,-14.82,16.13,-5.13,3.81,-0.63,-6.54,16.01,11.62,-2.88,0.68,-9.33,1
-2.42,-15.43,14.86,14.7,4.88,4.49,-7.33,15.31,11.34,15.82,1.27,-7.81,1
-1.78,-15.52,15.33,-1.12,-5.81,0.34,-7.16,15.43,11.25,-1.56,2.64,1.27,1
-1.33,-16.28,15.19,-1.47,1.07,-0.2,-7.02,14.94,11.93,0.49,-1.37,-1.61,1
-1.68,-15.76,15.21,-0.63,1.66,0.1,-7.25,15.11,11.52,0.05,-0.88,-1.71,1
-1.74,-16.13,14.86,-0.63,-2.49,-0.1,-7.22,14.53,11.99,0.49,-0.54,0.78,1
-1.5,-17.16,15.62,33.3,6.1,19.24,-6.62,13.35,10.88,23.0,-2.1,14.36,2
-2.96,-13.41,17.71,85.89,6.05,32.71,-4.94,16.88,9.01,73.1,3.27,32.96,2
-4.48,-4.77,18.16,159.33,13.77,40.28,-3.06,18.49,0.65,155.57,-5.42,37.99,2
-4.74,1.74,20.23,109.62,-1.81,24.9,-2.54,18.05,-5.91,110.06,-4.1,23.68,2
-4.17,5.7,19.61,68.16,-3.12,17.19,-1.48,16.24,-9.76,71.29,-5.52,6.4,2
-3.44,7.87,19.54,76.81,7.28,30.86,0.5,17.12,-10.98,82.47,-5.18,1.51,2
-4.85,15.51,12.72,50.44,10.79,35.84,-1.62,11.71,-15.39,56.01,-7.23,-12.55,2
-3.76,14.9,12.64,19.14,-6.98,15.28,-2.73,9.67,-17.5,25.59,-12.11,-7.28,2
-2.53,13.87,13.47,11.08,-7.71,8.15,-1.34,10.32,-15.14,13.48,-6.15,4.1,2
-1.67,14.57,15.0,2.39,-9.81,6.4,-1.86,11.1,-16.59,4.3,5.32,1.66,2
-2.96,14.47,13.36,-39.21,6.05,-31.1,-1.95,9.24,-15.78,-46.63,13.48,-4.93,2
-3.61,12.85,17.4,-66.26,-9.86,-54.0,-1.79,14.93,-15.86,-49.85,7.91,-16.7,2
-5.31,3.25,20.16,-74.07,4.3,-40.28,-4.44,12.87,-11.07,-58.74,-9.57,-19.73,2
-6.83,1.72,17.91,-100.59,0.1,-33.11,-4.5,13.54,-9.45,-89.16,-1.9,-21.53,2
-4.71,-1.94,20.81,-78.37,-17.82,-24.95,-3.72,17.46,-4.82,-74.61,-2.93,-4.1,2
-3.88,-3.21,21.61,-53.81,-15.82,-16.6,-3.67,20.61,-1.39,-60.01,-8.69,-3.96,2
-3.83,-7.38,19.69,-51.66,-13.57,-11.47,-3.68,20.71,2.68,-50.24,-1.46,-8.01,2
-2.93,-9.19,18.78,-56.59,-15.33,-6.25,-4.61,20.14,4.63,-61.82,-2.29,-6.88,2
-2.07,-14.3,17.21,-33.74,-8.25,-5.52,-5.51,16.58,7.07,-28.37,-3.52,-5.37,2
-2.2,-12.54,17.43,4.44,1.22,3.22,-5.33,19.03,7.94,2.93,-1.42,1.32,2
-3.64,-10.05,19.27,38.38,6.05,14.5,-3.22,17.98,1.84,57.47,4.39,23.39,3
-3.42,-8.02,20.45,68.46,3.86,34.23,-1.89,19.97,-2.67,78.12,10.25,26.51,3
-3.54,2.4,20.95,78.12,0.49,34.77,-1.31,17.79,-7.41,98.68,0.34,23.83,3
-5.08,6.88,18.34,100.1,0.49,38.23,-0.17,16.42,-11.34,88.62,-2.29,15.23,3
-3.61,11.04,18.78,95.95,-16.31,25.59,1.43,16.21,-14.24,83.45,-9.62,6.93,3
-1.75,12.85,18.1,74.8,3.71,38.96,-0.18,10.47,-18.16,42.38,5.91,21.63,3
1.53,12.98,17.26,32.47,-12.16,26.66,0.07,10.58,-16.82,24.17,-4.54,13.23,3
-0.55,15.63,14.75,13.23,-11.23,14.36,0.09,9.81,-15.38,6.45,-3.86,8.64,3
-1.06,15.11,14.29,-1.66,-7.76,0.15,0.44,9.39,-16.17,-16.5,-7.28,-1.22,3
-0.9,12.41,15.46,-11.28,2.98,-9.67,0.95,15.57,-16.67,-48.54,14.5,-14.55,3
-0.53,19.38,15.0,-47.22,3.81,-20.61,0.39,10.84,-13.24,-57.62,-14.79,-2.25,3
-3.63,0.97,17.92,-64.45,4.3,-81.49,-0.88,13.53,-12.29,-102.64,12.11,-29.74,3
-5.38,1.98,18.35,-107.57,8.11,-42.43,0.17,20.73,-7.01,-123.73,-1.07,-27.29,3
-5.36,5.85,17.91,-121.29,-6.2,-29.25,-1.3,21.27,-0.13,-114.99,-4.25,-7.42,3
-3.81,-4.92,19.28,-120.65,-27.54,-19.34,-2.72,19.49,3.72,-39.55,1.61,-3.42,3
-2.64,-9.01,19.43,-35.64,-6.79,-4.64,-3.1,20.1,5.59,-46.83,5.42,0.29,3
-2.7,-10.04,18.79,-51.86,-16.16,-1.32,-3.11,18.03,9.45,-51.03,0.0,-3.03,3
-0.91,-13.77,16.79,-51.27,-10.4,-0.78,-4.49,12.68,12.33,-57.76,-4.54,-12.11,3
0.83,-19.97,13.57,-58.84,-4.35,-6.25,-6.26,12.51,11.92,-10.45,-1.22,-24.95,3
-3.54,-17.5,10.05,-22.02,10.21,-0.54,-5.78,14.45,13.49,-2.34,0.24,-16.85,3
-2.58,-20.07,12.51,73.73,7.67,28.42,-4.18,16.99,9.84,97.12,6.84,30.57,4
-4.35,-15.28,16.61,111.77,8.01,37.16,-1.78,19.72,0.36,158.64,-6.79,29.98,4
-5.42,-1.73,17.99,169.19,8.54,42.53,-1.8,18.32,-7.21,117.24,-2.0,17.58,4
-5.24,7.27,18.88,93.07,-9.47,27.98,-0.65,17.16,-9.5,58.84,3.17,12.65,4
-3.58,5.47,20.31,55.13,-15.77,15.63,0.53,16.63,-11.05,73.19,-0.68,6.84,4
-3.76,9.82,17.67,59.08,-10.45,38.82,-0.0,13.66,-15.07,43.75,7.52,3.52,4
-2.66,14.32,16.0,16.65,4.05,27.69,1.56,14.14,-15.57,34.72,6.25,10.06,4
-0.24,10.68,18.95,24.17,-11.04,20.12,-0.25,8.31,-15.35,27.0,-8.69,-5.96,4
-1.94,13.6,13.48,23.63,-6.49,19.09,-0.59,8.75,-17.37,17.82,-7.37,-0.34,4
-1.23,16.67,12.27,6.93,-11.67,8.11,0.59,10.15,-16.86,-4.93,0.63,2.83,4
-0.48,13.34,15.33,-2.93,0.83,-4.05,0.54,9.95,-16.47,-12.7,1.66,-0.34,4
-0.12,16.02,14.7,-16.89,2.44,-5.91,0.23,11.99,-16.57,-35.6,9.62,-11.23,4
-1.2,14.76,15.39,-30.52,22.75,-28.91,-1.08,11.89,-16.84,-65.28,17.53,-18.85,4
-4.02,10.6,17.7,-42.72,10.74,-43.31,-1.51,13.03,-12.41,-65.28,8.54,-27.1,4
-6.17,6.84,18.27,-56.88,3.96,-52.25,-1.2,15.63,-7.66,-86.08,8.54,-25.73,4
-6.83,0.95,19.17,-68.12,-9.86,-40.62,-1.36,19.84,-4.53,-87.89,-1.03,-31.45,4
-6.24,-2.81,21.04,-81.79,-15.87,-28.56,-3.01,20.61,-0.58,-81.25,-5.91,-23.14,4
-5.75,-3.49,20.02,-81.05,-17.63,-19.04,-4.55,17.24,3.66,-57.52,-11.52,-17.19,4
-4.62,-11.39,18.28,-42.33,-7.42,-17.38,-5.45,19.89,5.26,-8.84,-6.64,-9.72,4
-4.58,-10.67,17.71,-11.43,1.71,-6.84,-5.84,19.17,5.44,-2.0,-1.76,4.15,4
-4.76,-6.7,19.88,39.89,16.55,8.06,-4.23,22.35,-0.99,58.89,-2.88,16.26,5
-6.32,-0.76,19.73,66.55,19.38,22.8,-3.1,20.68,-4.09,72.22,-5.18,21.44,5
-5.52,0.56,21.43,72.51,18.41,32.28,-1.61,19.12,-7.98,95.36,-7.18,18.21,5
-6.42,6.77,18.57,98.14,4.83,32.08,-2.73,15.83,-13.25,24.22,0.24,9.13,5
-5.8,12.53,18.76,31.64,-4.69,36.96,-0.58,15.88,-11.06,30.42,0.2,6.4,5
-5.03,5.73,19.95,27.73,0.15,18.41,-0.78,13.31,-13.44,57.91,8.45,-2.78,5
-4.48,8.92,17.81,53.17,3.56,44.87,-0.37,11.2,-16.88,34.91,12.99,1.56,5
-3.66,15.41,14.66,39.36,-4.0,50.78,-0.29,8.08,-15.66,28.27,-7.57,-0.44,5
-3.41,15.24,11.25,21.34,-10.69,26.9,1.44,8.58,-14.61,5.47,-24.07,4.83,5
-0.42,14.85,13.81,-3.61,-35.21,2.59,-0.1,9.3,-16.21,0.39,-17.33,8.79,5
-1.31,15.16,12.0,1.32,-2.54,2.69,-1.18,9.28,-17.65,-9.13,8.45,6.64,5
-1.03,14.83,13.09,-10.35,-3.76,-0.2,-1.25,8.02,-17.37,-35.21,12.89,-8.11,5
-1.27,14.48,13.67,-34.62,22.75,-24.46,-0.44,12.31,-16.16,-28.08,-10.01,-4.79,5
-2.84,12.32,15.68,-16.16,2.83,-35.5,-1.35,11.25,-15.43,-62.6,17.43,-22.36,5
-4.2,9.48,15.94,-46.39,2.49,-42.43,-2.16,14.66,-12.34,-82.96,10.4,-23.78,5
-4.27,8.3,18.47,-68.6,3.17,-42.29,-1.76,18.46,-7.98,-83.11,17.68,-33.45,5
-5.85,4.76,18.77,-59.38,-26.17,-31.49,-2.16,22.42,-3.49,-68.85,18.31,-27.05,5
-5.32,0.98,20.09,-53.37,-25.05,-12.6,-4.37,20.06,-1.37,-54.54,4.0,-11.96,5
-3.79,-3.19,21.17,-59.57,-10.21,-7.08,-5.62,19.27,1.71,-62.35,1.9,-12.01,5
-3.18,-6.94,19.98,-74.95,-5.52,-7.32,-6.64,16.79,5.65,-68.07,0.59,-12.11,5
-4.33,-18.42,11.55,-1.47,-1.56,-0.83,-6.25,15.46,11.76,-3.27,-1.66,4.0,6
-3.77,-18.0,11.94,-1.32,-5.62,-2.83,-6.85,15.23,11.83,-0.83,3.42,-7.42,6
-3.87,-18.31,11.7,-2.88,1.56,6.4,-7.47,15.05,11.23,5.66,-2.88,-0.24,6
-4.53,-17.96,11.52,7.23,2.25,0.98,-6.49,16.36,11.42,-2.59,-0.98,3.37,6
-4.73,-17.36,11.95,0.49,-2.78,-2.88,-6.69,14.46,11.97,1.12,0.29,-1.61,6
-3.58,-18.68,11.33,0.05,-1.12,3.03,-6.83,15.81,11.38,2.1,-2.1,2.34,6
-4.61,-17.51,11.89,5.18,-0.39,-1.27,-6.57,15.32,11.82,-1.61,-2.1,-0.93,6
-3.62,-18.0,12.06,-2.3,-0.05,-0.44,-6.58,15.57,11.39,1.22,-3.47,-2.05,6
-3.93,-17.85,12.02,2.15,2.93,-0.68,-6.54,15.58,11.58,-1.37,-0.68,2.59,6
-4.09,-17.93,12.13,-0.54,-3.96,-0.73,-6.45,15.78,11.62,-2.78,-2.39,1.86,6
-3.55,-17.79,12.2,0.05,-4.79,-2.73,-6.4,14.8,11.74,1.76,-1.22,1.42,6
-3.49,-19.01,11.66,0.24,-0.39,2.1,-6.32,16.27,11.82,8.15,-1.03,-2.93,6
-5.86,-16.26,12.29,10.6,20.31,14.7,-7.8,14.44,10.5,49.07,1.61,10.84,6
-4.83,-21.02,12.91,46.14,15.48,31.93,-4.52,18.61,5.32,118.9,-8.01,16.26,6
-7.76,-12.71,14.55,131.74,17.43,29.88,-4.72,16.97,-0.21,100.24,-6.54,19.34,6
-8.34,-8.09,17.48,101.42,7.57,38.82,-3.33,17.0,-5.72,106.64,-28.66,11.13,6
-9.1,0.87,17.76,125.93,26.22,39.11,-2.89,15.24,-8.18,86.38,-23.58,6.25,6
-8.27,0.34,19.36,71.04,-4.25,27.25,-3.25,14.86,-12.65,65.67,-34.72,0.15,6
-6.56,9.69,17.48,58.64,-17.68,37.16,-4.1,13.81,-15.77,35.06,-26.27,0.78,6
-5.37,11.7,15.99,39.65,0.54,32.91,-5.11,11.17,-15.61,21.29,-15.62,-3.47,6
-3.63,-17.01,12.97,-0.24,-4.88,0.44,-6.61,15.37,11.64,1.61,-0.2,0.93,7
-3.24,-17.91,12.68,-0.98,-7.81,-2.0,-6.51,15.58,11.52,2.59,-1.27,2.2,7
-2.79,-17.8,13.08,0.68,-7.37,-1.9,-6.46,15.48,11.41,-0.88,0.1,0.39,7
-2.58,-17.59,12.96,1.32,-2.83,-0.54,-6.36,15.7,11.46,1.76,-0.39,1.56,7
-2.55,-17.6,12.91,3.27,-2.73,-0.54,-6.36,15.71,11.38,0.44,-1.07,0.63,7
-2.48,-17.45,13.08,-0.24,-2.49,-0.73,-6.31,15.52,11.21,9.03,-3.47,5.91,7
-2.55,-17.96,13.11,11.67,6.49,0.49,-5.42,16.06,11.28,14.7,-1.56,15.77,7
-3.57,-16.79,13.47,31.4,4.35,15.04,-6.3,16.26,8.79,52.73,-14.21,4.05,7
-6.05,-12.88,14.25,65.48,27.59,30.76,-6.61,17.3,4.79,95.07,-3.27,5.86,7
-6.91,-12.31,17.32,94.48,23.88,46.48,-4.45,18.31,-2.19,126.27,-16.7,8.59,7
-7.68,-2.95,19.36,134.72,9.23,22.85,-4.03,19.31,-8.38,92.14,-2.1,0.88,7
-7.2,7.61,18.21,114.6,-7.76,41.75,-3.01,18.11,-10.7,62.45,4.0,16.02,7
-7.69,9.1,17.63,69.19,-20.8,37.79,-2.33,15.12,-12.12,43.26,7.37,7.03,7
-5.61,9.48,17.9,39.89,-13.38,29.69,-2.5,13.17,-14.88,44.09,9.67,6.4,7
-4.72,9.77,16.91,34.23,-14.26,29.3,-2.07,12.13,-15.49,35.99,-15.82,23.93,7
-3.91,14.07,14.67,23.29,-25.54,22.46,-1.78,12.72,-15.57,14.94,-17.68,0.1,7
-0.03,12.77,18.94,16.8,-16.94,12.26,-3.94,8.82,-15.93,-4.93,-12.01,4.98,7
-0.95,15.24,14.27,-1.12,-2.64,5.18,-1.88,12.48,-15.93,-3.91,7.62,1.9,7
-0.47,13.26,16.78,0.15,-5.57,2.49,-2.15,12.24,-15.54,-21.88,-0.15,-6.3,7
-0.65,13.53,16.72,-6.4,4.3,-14.45,-1.85,14.73,-15.35,-36.08,13.23,-8.2,7
-0.5,-16.85,13.75,0.73,-0.44,0.54,-3.4,13.12,15.14,-1.27,-0.49,-0.05,8
-0.48,-16.97,13.67,1.07,-1.22,0.68,-3.3,14.39,14.61,2.34,-1.03,0.34,8
-0.5,-16.98,13.78,3.86,0.54,0.24,-3.6,13.59,14.71,-0.0,-1.03,-0.49,8
-0.61,-16.81,13.59,0.59,-0.88,0.78,-3.39,13.6,14.96,-1.71,-1.37,-0.93,8
-0.38,-16.73,14.05,0.68,-1.56,0.88,-3.48,14.53,15.07,0.98,-1.22,2.0,8
-0.45,-16.95,13.77,0.73,-1.07,0.83,-3.57,13.47,14.57,-1.22,0.59,0.29,8
-0.37,-16.81,13.93,0.24,-0.98,0.98,-3.56,13.44,14.79,-2.05,-0.59,-1.42,8
-0.47,-16.73,13.78,0.59,-0.78,1.12,-3.31,13.94,14.93,-0.05,-0.15,0.59,8
-0.36,-16.88,13.89,0.05,-0.98,1.12,-3.56,13.68,14.81,-0.59,0.05,0.15,8
-0.41,-16.75,13.94,0.63,-0.68,1.22,-3.46,13.48,14.79,-0.0,-0.2,0.59,8
-0.45,-16.99,13.83,0.63,-0.49,1.07,-3.43,13.45,14.81,-0.05,-0.24,0.54,8
-0.45,-16.88,13.86,-0.05,-0.83,0.93,-3.36,13.72,14.94,-1.12,-0.2,-0.29,8
-0.36,-16.6,14.02,1.32,-0.63,1.61,-3.37,13.63,14.84,0.2,-1.03,0.34,8
-0.24,-17.1,14.11,0.98,-1.9,0.44,-3.39,13.68,14.85,-0.2,0.2,0.1,8
-0.59,-16.74,13.87,0.29,-0.49,0.98,-3.38,13.66,14.76,0.34,-0.59,0.39,8
-0.51,-16.73,13.94,1.07,-0.98,1.22,-3.41,13.71,14.68,-0.0,-0.44,0.29,8
-0.55,-16.94,13.77,0.78,-0.1,0.68,-3.42,13.6,14.86,-0.44,-0.93,-0.44,8
-0.51,-16.81,13.87,0.59,-0.63,1.17,-3.51,13.61,14.6,0.78,-0.88,0.93,8
-0.54,-16.78,13.84,0.54,-1.03,1.27,-3.46,13.43,14.81,0.39,-0.78,0.2,8
-0.61,-16.94,13.69,0.39,-0.73,0.93,-3.37,13.73,14.85,-0.39,-0.15,-0.1,8
-0.66,-16.76,13.87,0.24,-0.93,1.07,-3.48,13.77,14.75,-0.73,-0.1,-0.1,9
-0.64,-16.93,13.8,0.73,-1.22,0.39,-3.36,13.85,14.84,-0.2,-0.29,0.54,9
-0.6,-16.95,13.8,0.24,-1.12,0.59,-3.43,13.59,14.78,-0.1,-0.59,0.29,9
-0.62,-16.77,13.81,0.93,-1.03,0.83,-3.41,13.77,14.75,-0.49,-0.1,0.1,9
-0.57,-16.89,13.71,0.44,-0.78,0.59,-3.37,13.76,14.82,0.15,-0.54,0.24,9
-0.51,-16.96,13.81,0.59,-1.07,0.78,-3.5,13.63,14.69,0.15,-0.29,0.2,9
-0.5,-17.02,13.81,0.44,-0.78,0.59,-3.41,13.7,14.57,-1.12,0.24,-0.2,9
-0.63,-16.83,13.63,1.03,-0.49,0.83,-3.33,13.77,14.83,-0.05,-0.29,0.05,9
-0.51,-16.91,13.82,0.29,-0.83,0.73,-3.33,13.67,14.8,0.24,-0.63,0.1,9
-0.49,-16.74,13.92,0.49,-1.12,1.17,-3.46,13.64,14.67,-0.54,-0.15,-0.2,9
-0.44,-16.88,13.96,0.54,-1.03,1.03,-3.34,13.83,14.76,-0.15,0.05,-0.24,9
-0.52,-17.07,13.78,0.24,-0.73,0.83,-3.38,13.69,14.74,0.2,-0.15,-0.1,9
-0.6,-16.9,13.69,0.83,-0.59,1.03,-3.38,13.6,14.76,0.24,-0.05,0.2,9
-0.52,-17.04,13.84,0.1,-0.63,0.49,-3.31,13.75,14.91,-0.68,-0.05,-0.59,9
-0.59,-16.86,13.84,0.49,-0.24,0.93,-3.39,13.6,14.83,-0.05,-0.49,-0.2,9
-0.63,-16.8,13.85,0.63,-0.98,0.98,-3.44,13.75,14.72,-0.2,-0.2,-0.15,9
-0.59,-16.96,13.82,1.07,-0.88,0.98,-3.43,13.74,14.69,-0.1,0.24,-0.2,9
-0.25,-17.17,14.37,3.03,8.35,6.01,-3.41,13.91,13.89,34.23,-10.45,12.16,9
-3.6,-15.36,14.26,-15.09,16.36,62.55,-5.33,11.15,10.81,5.96,23.97,1.12,9
-5.1,-18.52,14.17,32.76,10.3,26.03,-3.69,14.45,11.87,54.64,3.66,3.17,9
-3.73,-19.03,10.51,1.22,0.34,0.29,-1.84,13.61,15.33,-0.83,0.39,-1.51,10
-4.06,-19.15,10.17,3.91,-1.76,1.56,-1.89,12.9,15.49,1.86,-1.22,-0.34,10
-3.75,-18.74,10.64,0.78,-2.49,0.63,-1.79,13.67,15.07,6.01,-1.71,5.57,10
-3.89,-19.02,10.34,1.76,0.68,1.17,-1.6,13.58,15.2,-0.2,0.05,-0.73,10
-3.92,-18.85,10.55,0.78,-1.12,0.49,-1.84,13.63,14.79,1.32,-1.07,0.39,10
-3.9,-18.99,10.56,1.22,-1.56,1.37,-1.51,13.61,15.18,7.37,-3.61,4.98,10
-3.62,-18.94,10.68,1.12,-1.12,0.34,-1.29,13.82,14.64,-0.44,-0.05,-0.54,10
-3.92,-18.81,10.72,1.17,0.44,0.59,-1.46,14.08,14.56,0.54,0.88,-0.73,10
-3.81,-18.59,10.68,1.66,-0.54,0.2,-1.26,14.03,14.86,1.61,-1.12,0.83,10
-3.85,-18.85,10.65,1.07,-0.63,0.34,-1.3,13.98,14.64,0.34,-1.66,0.24,10
-3.6,-18.58,11.04,1.12,-0.98,1.12,-1.44,13.75,14.39,0.15,0.78,-0.68,10
-3.95,-18.85,10.5,0.49,-0.24,0.98,-1.33,14.02,14.73,-1.17,0.1,-1.56,10
-3.74,-18.73,10.69,0.78,-1.46,0.88,-1.23,14.19,14.69,0.34,-0.15,0.54,10
-3.81,-18.6,10.82,1.12,-0.54,1.12,-1.43,13.95,14.68,-0.29,0.73,-0.73,10
-3.82,-18.73,10.76,0.49,-1.56,0.98,-1.41,14.0,14.64,-0.0,-0.2,-0.1,10
-3.75,-18.65,10.84,0.34,-1.42,0.78,-1.42,13.98,14.69,-0.05,-0.1,0.34,10
-3.7,-18.88,10.77,-0.34,3.47,-0.73,-1.62,13.8,14.23,-0.63,-2.2,0.24,10
-3.51,-19.36,10.99,4.54,-1.66,2.39,-1.35,13.63,14.63,-1.95,2.88,-1.51,10
-4.59,-19.28,11.39,33.35,12.06,22.51,-1.13,13.43,14.69,25.73,-3.91,1.71,10
-8.09,-17.62,13.59,89.4,27.29,33.98,-2.93,14.73,12.5,54.3,-15.58,-4.98,10
-4.68,-15.16,15.43,0.15,-2.05,0.54,-3.74,15.66,12.14,-0.68,0.2,1.07,11
-4.73,-15.41,15.33,-1.37,-1.12,-0.44,-3.75,15.42,12.29,-1.47,-1.22,0.0,11
-4.86,-13.76,15.81,24.71,-2.39,26.86,-2.08,16.49,13.7,19.09,-10.16,8.45,11
-5.1,-13.55,16.91,15.92,0.78,10.4,-2.6,16.78,10.97,16.06,-2.93,6.84,11
-6.64,-13.0,16.69,18.07,10.69,27.64,-2.77,16.72,10.73,19.14,5.81,-1.86,11
-6.93,-15.07,17.28,35.2,6.74,27.0,-2.01,17.88,9.92,36.23,-0.88,2.44,11
-8.56,-8.82,16.37,159.81,15.92,16.65,-3.71,18.38,4.38,134.96,-18.75,-26.71,11
-10.03,7.56,15.87,117.33,6.93,57.76,-2.94,22.31,-4.08,147.66,-31.49,-42.68,11
-6.38,10.42,18.71,50.2,-13.77,61.04,-5.27,18.64,-10.23,73.19,3.86,-3.27,11
-4.81,12.53,16.82,38.72,-16.36,34.28,-6.89,14.2,-11.91,39.6,-2.98,-6.69,11
-3.97,12.35,15.56,30.86,-18.07,22.71,-6.45,14.27,-12.32,30.37,-12.6,-4.69,11
-2.45,13.75,15.14,17.38,-21.63,17.14,-8.07,12.07,-12.32,13.18,-13.48,0.59,11
-2.75,15.36,14.23,2.93,2.05,-1.46,-8.45,13.57,-13.14,-2.93,-10.94,-9.81,11
-2.27,12.2,16.33,-13.04,10.84,-10.89,-8.95,13.07,-13.8,-18.16,18.8,5.96,11
-3.53,18.0,16.11,-72.07,56.49,-46.92,-5.78,15.08,-10.63,-36.33,38.23,1.71,11
-7.76,3.04,18.38,-92.77,14.65,-76.51,-4.67,17.53,-8.84,-124.61,26.61,11.18,11
-8.69,-2.48,18.48,-125.78,-16.02,-62.35,-4.78,18.51,-2.97,-147.07,14.75,2.78,11
-9.29,-7.77,16.65,-97.75,-28.86,-31.98,-5.15,17.47,2.96,-101.66,-4.35,12.5,11
-5.32,-12.78,17.56,-73.83,-15.58,-25.29,-4.01,17.9,8.6,-73.44,-6.84,10.6,11
-4.89,-14.11,15.38,-38.53,-1.07,-18.21,-2.58,16.43,12.4,-29.93,-9.23,2.34,11
-3.62,-16.61,13.83,0.63,-1.32,1.27,-7.15,13.19,14.07,-0.29,0.15,0.0,12
-3.61,-16.7,13.89,0.39,-0.83,0.93,-7.15,13.2,14.17,0.05,-0.54,0.0,12
-3.57,-16.67,13.94,0.49,-0.98,0.93,-7.06,13.29,14.19,-0.34,-0.54,0.1,12
-3.63,-16.56,13.9,0.2,-0.44,1.07,-7.2,13.12,14.04,-0.24,-0.44,-0.63,12
-3.63,-16.65,13.95,0.44,-1.12,0.88,-7.28,13.38,14.22,-0.0,-0.83,0.34,12
-3.61,-16.52,13.91,0.39,-0.88,0.88,-7.07,13.3,14.12,-0.44,-4.59,-0.83,12
-3.61,-16.68,13.95,0.73,-1.17,1.12,-6.92,13.32,14.3,0.93,-2.39,0.59,12
-3.71,-16.7,13.84,0.83,-0.49,0.78,-6.85,13.21,14.39,-1.07,-1.61,-0.05,12
-3.63,-16.78,14.02,0.59,-0.98,0.29,-6.82,13.2,14.26,1.22,-1.95,1.22,12
-3.67,-16.68,13.85,0.59,-0.73,1.03,-7.01,13.03,14.1,-0.0,0.05,-0.34,12
-3.63,-16.68,13.89,-0.05,-0.93,0.63,-6.86,13.27,14.35,-0.88,-0.2,-0.15,12
-3.64,-16.57,13.95,1.07,-1.27,1.42,-6.91,13.22,14.23,0.88,-0.59,0.78,12
-3.7,-16.94,13.78,-0.1,-0.98,0.83,-6.97,12.91,14.23,0.15,-0.88,0.63,12
-3.6,-17.81,14.04,5.13,2.15,24.71,-7.16,12.52,11.98,36.18,-4.98,10.25,12
-5.82,-16.48,15.11,43.41,8.5,46.24,-6.43,14.32,11.27,41.36,-4.98,16.41,12
-8.45,-13.23,15.18,49.07,4.54,32.81,-4.22,17.0,11.19,50.98,-8.64,17.53,12
-7.77,-10.37,18.08,71.14,-7.42,36.57,-2.8,18.68,8.42,70.95,-14.6,7.81,12
-6.3,-1.9,20.01,142.97,-23.88,34.47,-2.24,21.12,0.66,148.14,-17.82,-10.79,12
-7.55,2.09,17.86,113.77,-16.55,21.53,-5.64,16.66,-5.31,115.97,-25.05,-10.4,12
-6.08,6.01,17.61,98.93,-15.62,20.65,-6.01,15.91,-10.13,97.22,-26.37,-12.94,12
-3.21,-16.41,14.01,1.17,0.54,0.88,-4.23,15.58,12.48,-2.54,-1.12,-2.44,13
-2.98,-16.45,14.13,1.32,-1.32,0.83,-4.3,15.73,12.35,1.07,-1.61,0.24,13
-2.79,-16.25,14.32,0.68,-1.42,0.68,-4.15,16.0,12.26,-2.2,-0.44,-2.34,13
-2.81,-16.42,14.21,-0.2,-4.64,0.39,-4.26,15.91,12.45,1.51,-3.47,1.71,13
-2.92,-16.33,14.08,-0.39,0.54,0.63,-3.9,15.99,12.58,1.9,-2.34,0.24,13
-2.75,-16.44,14.39,0.83,-1.07,1.32,-4.22,15.66,12.47,0.83,0.05,0.1,13
-3.14,-16.54,14.12,0.59,-2.49,-0.24,-4.28,15.43,12.42,1.03,-2.2,2.1,13
-2.05,-15.68,14.72,2.54,0.2,0.68,-3.73,15.72,11.86,1.46,-0.1,1.27,13
-3.06,-17.03,13.88,-3.22,4.15,1.37,-4.37,15.35,12.61,-3.96,-1.27,-5.96,13
-3.61,-16.29,14.04,2.59,1.51,2.0,-4.31,15.48,12.35,1.61,0.98,-5.08,13
-2.84,-16.13,14.21,0.88,-3.08,-0.39,-4.15,16.03,12.39,1.9,-0.73,2.83,13
-2.84,-16.33,14.68,3.17,1.56,-0.59,-4.44,15.63,12.31,2.93,-2.98,-0.98,13
-2.77,-16.05,14.76,5.86,6.49,-0.34,-4.27,15.63,12.18,4.83,-3.27,-4.69,13
-3.36,-15.76,14.65,3.52,0.68,-0.39,-4.48,15.71,12.11,2.93,-1.9,0.0,13
-3.12,-15.75,14.7,0.78,3.66,0.0,-4.19,16.11,12.03,0.63,-1.9,-3.42,13
-3.76,-16.42,14.09,0.05,5.52,-2.69,-4.78,15.17,12.26,-1.12,-3.91,-5.52,13
-3.4,-15.4,14.69,3.22,4.44,-0.39,-4.38,16.01,11.88,2.54,-3.61,-3.71,13
-3.68,-16.17,14.44,-2.39,-4.0,-2.34,-4.86,15.43,12.16,-4.2,-1.22,2.0,13
-2.55,-15.83,15.22,2.29,-2.98,0.78,-3.99,16.07,12.36,2.29,-0.93,3.56,13
-3.23,-16.21,14.48,-2.64,0.98,2.1,-4.42,15.49,12.16,-2.93,1.22,-2.98,13
-3.31,-17.25,13.82,1.61,-2.39,-1.37,-5.49,15.02,12.21,1.81,-1.07,-1.32,14
-3.77,-16.87,13.6,2.25,1.27,1.22,-5.16,15.66,12.3,1.22,-0.29,-0.68,14
-3.55,-16.79,13.92,2.64,-0.05,0.29,-5.26,15.65,12.42,2.49,-2.44,0.34,14
-3.76,-16.78,13.81,2.1,-0.1,0.78,-5.39,15.05,12.12,-1.37,-1.12,1.03,14
-3.56,-16.79,13.92,-0.15,-1.22,-0.44,-5.21,15.04,12.42,0.68,-0.68,1.61,14
-3.61,-16.88,13.9,3.17,-0.83,1.56,-4.68,15.67,12.5,8.64,-2.98,8.25,14
-3.47,-18.81,14.77,6.01,-2.44,13.04,-3.93,15.78,11.77,101.71,-16.11,14.16,14
-5.81,-18.5,13.77,111.72,13.28,52.44,-3.09,20.85,1.03,160.6,-26.42,-10.11,14
-7.64,-6.34,17.58,164.21,22.17,45.12,-5.16,16.48,-6.44,172.07,-19.97,-3.81,14
-7.96,4.2,14.07,163.38,-8.98,58.98,-3.9,15.02,-11.09,112.01,-23.68,0.05,14
-7.19,8.73,14.59,107.91,-18.65,43.31,-4.43,14.49,-14.73,53.56,-33.15,-8.74,14
-3.18,12.44,18.39,46.92,-26.07,34.72,-6.67,11.49,-14.93,25.98,-16.94,-4.2,14
-3.21,13.84,14.18,24.9,-9.77,24.61,-6.21,12.41,-14.56,7.71,-9.42,-2.98,14
-1.25,13.58,15.6,8.59,-6.93,17.92,-8.2,10.18,-14.84,-6.54,1.95,5.27,14
-1.52,15.98,13.28,-6.3,-5.57,11.82,-7.37,11.6,-14.77,-18.02,-2.34,-0.29,14
-1.1,14.04,15.22,-11.38,-0.68,-4.2,-6.97,11.52,-14.11,-58.69,47.22,5.62,14
-1.63,14.17,15.93,-58.25,24.56,-23.05,-5.27,13.5,-10.96,-61.96,32.13,6.3,14
-5.21,6.98,17.52,-53.86,23.88,-26.61,-5.0,18.49,-10.17,-71.09,30.37,4.64,14
-6.9,8.69,18.41,-73.34,26.56,-47.36,-3.64,19.23,-5.77,-95.07,42.24,-7.86,14
-7.8,1.88,18.2,-94.24,-2.05,-52.05,-5.17,18.38,-1.21,-123.54,27.34,-16.7,14
-2.41,-13.68,16.88,1.22,1.66,0.44,-5.19,15.96,10.93,1.07,-0.78,1.95,15
-2.61,-13.96,16.49,0.34,-1.27,0.88,-4.92,16.28,11.12,1.22,-0.39,0.15,15
-3.11,-12.77,16.01,1.22,1.56,2.25,-4.79,17.05,10.79,1.46,-0.73,1.22,15
-2.9,-13.6,16.41,4.49,1.03,1.86,-4.91,16.45,11.09,1.37,-1.46,1.71,15
-2.54,-13.81,16.81,0.78,-0.59,0.98,-4.95,16.3,10.8,1.03,-1.95,0.68,15
-2.58,-13.52,16.95,1.66,-1.27,0.98,-4.89,16.4,10.7,-0.1,0.15,-0.05,15
-2.53,-13.69,16.8,1.76,-1.66,0.83,-4.81,16.34,10.85,0.05,-0.29,-0.34,15
-2.44,-13.58,16.95,0.68,-0.1,1.46,-4.71,16.72,10.67,1.37,-0.59,-0.1,15
-2.61,-13.83,16.88,3.32,0.83,2.25,-4.76,16.6,10.58,4.0,-1.17,0.54,15
-2.66,-13.88,17.06,3.91,2.73,4.35,-4.56,16.77,10.62,3.37,-1.61,-4.35,15
-2.77,-13.78,17.34,5.86,1.12,4.05,-4.84,18.11,10.18,0.39,0.24,11.38,15
-4.41,-13.22,17.12,4.54,3.17,4.74,-2.77,14.45,10.22,105.81,-29.2,38.33,15
-2.13,-18.29,19.62,7.08,-0.49,22.56,-5.18,10.12,-1.42,129.54,-3.71,-8.64,15
-2.33,-13.34,19.63,110.3,5.71,70.95,-6.14,17.06,-8.32,125.39,-25.1,-16.31,15
-5.89,2.11,18.24,180.27,-6.84,50.0,-4.79,17.41,-11.87,107.18,-29.3,-26.46,15
-5.33,5.31,16.76,131.1,-29.54,36.52,-5.78,15.56,-14.63,46.83,-18.07,-19.78,15
-3.58,11.08,16.16,71.19,-25.83,35.5,-9.0,9.27,-15.44,30.91,5.27,-13.96,15
-1.86,14.35,15.63,40.28,-2.88,28.86,-8.75,9.5,-15.58,15.28,-2.98,-10.16,15
0.43,15.47,13.51,25.88,-16.6,24.46,-8.11,9.45,-15.55,6.74,-0.39,-2.25,15
0.28,15.49,12.11,14.31,-11.28,14.75,-8.69,10.23,-15.95,-22.66,8.11,-1.17,15
-0.94,21.17,12.83,34.52,-2.93,61.23,-5.6,15.21,5.6,-99.07,17.29,-17.77,16
-0.13,14.53,14.38,22.51,-23.34,26.03,-2.62,18.77,12.46,-32.91,7.18,0.1,16
0.98,14.93,13.12,10.64,-8.98,19.73,-3.31,15.22,12.44,-19.78,-4.05,-21.73,16
1.32,18.89,10.9,2.2,-1.32,11.38,-6.33,16.97,10.95,0.15,-1.27,-23.78,16
0.81,16.34,13.08,-14.31,7.32,-8.15,-5.39,13.44,12.36,2.0,0.44,11.82,16
-0.19,16.02,10.91,-66.5,14.75,-42.09,-5.03,17.38,10.82,6.54,-0.24,5.27,16
-3.09,6.97,16.16,-145.75,45.26,-101.37,-5.33,15.86,11.7,-2.39,-1.37,-3.08,16
-7.54,-1.61,15.67,-146.29,23.83,-96.58,-4.9,16.97,10.87,6.88,-2.25,0.73,16
-7.29,-9.61,16.01,-134.62,6.45,-77.05,-5.08,15.81,11.53,0.49,-2.49,1.61,16
-6.1,-14.8,16.92,-86.87,-4.79,-38.72,-4.96,16.34,11.12,0.59,-0.73,0.88,16
-2.79,-18.22,19.4,-27.73,-16.94,-15.43,-5.07,15.81,11.16,-0.93,-0.34,0.34,16
-2.37,-19.12,16.18,-14.94,13.04,-8.11,-4.75,16.44,11.12,1.71,-0.54,0.83,16
-7.62,-14.89,14.43,-6.3,23.68,-4.0,-4.8,16.08,11.09,0.05,-3.56,1.22,16
-5.76,-16.74,13.35,11.91,-12.94,-4.0,-4.54,16.65,11.13,0.39,-0.88,0.15,16
-4.85,-14.44,15.83,5.66,-10.11,1.37,-4.66,16.24,11.17,1.07,-1.66,0.1,16
-5.02,-15.78,14.79,-0.24,-0.59,-0.68,-4.69,16.15,11.23,0.24,-0.44,-0.39,16
-4.95,-14.41,15.55,3.76,1.17,2.2,-4.83,16.25,10.99,-0.93,-0.24,-0.49,16
-5.1,-15.35,14.98,0.78,-4.49,0.24,-4.55,16.53,11.06,-0.1,-0.78,-0.83,16
-4.62,-14.99,15.46,1.56,-1.76,0.39,-4.71,15.98,11.11,-1.17,-1.76,0.44,16
-4.63,-15.13,15.39,0.59,-3.56,0.29,-4.68,16.21,11.19,-1.17,-0.59,-0.24,16
-2.17,-17.18,13.57,-5.27,-2.39,-0.15,-4.8,11.19,11.02,25.59,-9.86,1.81,17
-1.39,-19.1,15.23,13.38,9.42,11.67,-1.23,16.38,13.33,67.97,-3.22,-7.76,17
-2.83,-20.23,15.35,64.5,20.36,37.4,-2.98,18.72,5.11,136.33,-17.77,-19.19,17
-6.61,-10.48,16.4,146.0,15.77,36.28,-4.97,16.66,-2.57,167.77,-4.35,-30.42,17
-8.59,-1.93,14.56,173.88,17.97,62.26,-4.45,15.15,-8.95,158.69,-12.01,-23.14,17
-7.87,6.84,13.99,162.74,-2.34,66.55,-3.95,16.55,-15.43,81.2,5.91,1.76,17
-2.49,13.92,19.48,67.53,-24.66,53.56,-6.24,11.05,-16.55,28.12,-9.23,-4.98,17
-4.76,16.86,13.09,22.41,-10.69,25.54,-8.65,6.22,-16.04,3.32,-5.22,-5.76,17
-5.16,15.91,9.55,3.42,-0.88,9.18,-6.58,10.6,-15.8,-2.05,-0.39,-1.86,17
-3.58,15.05,13.8,-2.49,-8.15,5.47,-6.14,10.68,-15.2,-14.06,-2.88,-2.73,17
-3.16,14.54,13.85,-7.72,0.73,-3.52,-5.55,12.82,-14.8,-46.39,19.97,1.86,17
-3.11,14.91,14.76,-34.67,3.96,-10.35,-5.57,16.8,-13.06,-100.59,14.26,16.5,17
-4.23,16.89,17.03,-87.16,13.82,-31.05,-4.36,18.39,-7.21,-177.59,9.72,27.54,17
-6.8,7.91,15.19,-166.75,23.63,-58.74,-3.84,17.48,0.3,-161.91,-3.96,23.63,17
-7.87,-5.02,16.91,-168.02,10.89,-52.0,-2.44,15.56,8.71,-102.54,-0.39,16.7,17
-7.04,-14.36,15.96,-115.23,-5.18,-24.46,-1.87,13.98,12.28,-31.49,10.6,2.54,17
-6.39,-17.32,13.78,-37.06,2.59,-4.05,-3.05,15.5,12.44,-14.45,7.62,4.05,17
-7.3,-15.13,13.21,-14.16,-0.98,-3.22,-2.59,16.08,13.8,-10.45,8.84,-1.17,17
-6.61,-17.99,14.95,-7.18,5.13,7.08,-2.74,14.84,14.09,-3.76,1.86,-0.83,17
-6.02,-17.92,13.55,-9.08,-3.27,-3.71,-2.75,14.0,14.09,1.46,-1.61,2.98,17
-4.38,-14.44,15.85,-1.42,2.39,3.13,-2.95,16.53,11.18,-2.88,2.0,-4.05,18
-5.33,-14.18,14.96,-0.73,1.46,4.44,-3.42,16.23,11.6,-0.88,2.2,-3.08,18
-4.86,-14.2,15.89,-0.29,0.98,2.73,-3.94,16.52,10.96,-1.81,0.49,-2.78,18
-4.46,-15.16,15.5,1.95,-3.66,0.44,-3.06,16.3,11.7,1.71,0.98,3.13,18
-4.9,-14.17,15.88,-1.51,0.88,1.76,-3.51,16.75,11.43,-0.88,-1.17,-2.05,18
-5.02,-14.82,15.41,-0.0,-0.93,0.68,-3.59,15.99,11.52,-0.54,-0.39,0.39,18
-5.16,-14.55,15.46,-0.05,-0.05,1.27,-3.77,16.21,11.46,-1.76,0.68,-1.46,18
-4.56,-14.93,15.56,2.59,-3.22,0.98,-3.39,16.16,11.44,1.95,0.49,2.25,18
-4.93,-14.48,15.96,2.54,-0.39,-0.15,-3.78,16.67,11.27,1.42,-1.51,-0.1,18
-4.69,-14.48,15.68,-0.68,2.54,0.34,-3.31,16.32,11.37,-2.05,-1.12,-2.73,18
-5.13,-15.31,15.34,-0.78,-4.2,-2.05,-3.79,15.52,11.62,-0.44,-1.56,2.88,18
-3.94,-15.62,16.58,8.06,-3.17,10.35,-3.71,15.52,9.97,18.99,-10.94,8.79,18
-6.69,-14.0,16.38,18.21,0.88,37.45,-1.69,17.55,10.44,30.62,7.03,19.38,18
-8.6,-13.9,15.82,91.31,7.32,38.23,-1.9,18.22,8.02,92.97,-10.6,-5.37,18
-7.77,-6.26,16.07,182.42,-10.3,52.34,-2.55,20.39,-2.33,184.13,-20.26,-24.41,18
-7.1,3.96,15.1,160.35,-25.05,34.67,-7.73,11.28,-9.65,159.96,-35.6,-33.35,18
-4.16,11.58,16.53,70.36,-0.59,36.62,-6.14,13.73,-14.61,67.04,-11.87,-20.46,18
-2.17,14.55,15.16,15.53,-14.31,24.71,-6.99,11.04,-16.57,20.9,3.27,-3.42,18
-0.98,14.85,16.97,7.67,-18.65,15.48,-6.33,12.54,-15.77,6.49,-4.39,-4.05,18
-2.54,13.8,14.15,-3.42,2.1,1.42,-6.41,11.56,-14.79,-5.32,1.81,-0.05,18
-1.1,-14.75,15.85,1.51,-0.15,0.29,-3.35,16.84,9.94,-0.98,0.68,-1.61,19
-0.9,-14.83,15.92,0.34,-0.63,1.17,-3.3,16.97,10.06,-0.49,0.24,0.2,19
-0.87,-14.75,16.02,0.59,-0.59,1.32,-3.42,16.93,9.56,-0.34,0.0,-1.17,19
-0.95,-14.83,15.97,0.24,-1.22,1.32,-3.23,17.21,9.99,-0.05,0.39,0.39,19
-0.53,-14.28,16.15,0.88,-0.59,1.9,-3.03,17.02,10.55,-0.44,-0.83,0.83,19
-0.83,-15.2,16.14,1.12,-2.15,0.54,-3.01,17.41,10.01,-1.12,-0.24,-0.63,19
-1.07,-15.17,15.77,-0.63,-0.83,0.39,-3.2,17.38,9.7,1.22,0.1,0.68,19
-0.84,-14.51,16.16,-0.1,-0.63,0.44,-3.22,16.9,10.22,0.68,-0.68,0.73,19
-0.86,-14.56,16.23,2.1,-1.51,1.03,-3.25,17.02,10.13,-0.15,-0.78,0.24,19
-1.11,-15.1,15.77,0.34,-1.07,1.12,-3.31,17.27,9.78,-0.0,-0.54,-0.24,19
-1.07,-14.69,15.95,-0.15,-0.49,1.03,-3.21,17.23,10.06,0.54,-0.78,-0.05,19
-0.87,-14.6,16.34,1.07,-0.78,0.73,-3.16,17.24,10.0,-0.2,-0.93,-0.34,19
-0.99,-14.68,16.06,1.66,-0.73,0.49,-3.3,16.73,9.9,0.93,-0.34,0.54,19
-0.92,-14.64,16.18,0.2,-0.54,0.68,-2.67,16.66,10.72,5.03,-5.22,-0.59,19
-0.93,-14.68,16.08,1.32,-1.51,1.61,-3.33,16.27,8.82,89.26,-22.66,-0.29,19
-0.01,-15.41,16.23,3.86,6.1,2.69,-4.4,20.04,-0.85,132.32,-14.45,-10.4,19
-4.5,-16.01,15.56,87.06,56.49,35.99,-3.07,18.81,-6.17,146.78,-37.35,-30.76,19
-5.84,-4.24,17.93,143.21,16.75,42.68,-3.98,18.42,-10.64,103.76,-15.19,-15.33,19
-7.18,0.27,17.51,161.72,14.94,35.89,-3.96,17.5,-14.11,69.53,0.88,-3.86,19
-6.37,10.39,16.3,116.94,-19.38,47.85,-7.16,9.76,-15.91,13.57,-1.56,3.22,19
-1.06,-17.33,16.84,38.43,17.43,57.67,0.05,17.94,14.42,47.85,6.35,4.05,20
-5.88,-13.4,16.04,112.35,8.74,58.79,-4.04,15.0,9.18,95.36,18.8,-5.22,20
-5.52,-4.45,17.97,191.36,4.49,55.57,-5.16,14.19,-1.87,152.34,-4.25,-0.1,20
-7.45,3.95,18.27,46.58,-21.63,28.86,-5.69,21.34,-8.97,80.32,-53.17,-9.96,20
-6.73,9.14,15.09,97.51,-22.07,39.7,-4.92,17.65,-8.77,115.62,-30.66,-27.2,20
-3.27,13.77,15.63,53.66,-20.56,32.37,-6.69,13.56,-12.93,61.08,-9.23,-15.48,20
-1.5,15.74,15.16,21.92,-12.89,22.51,-8.34,12.13,-15.21,30.76,-3.56,-10.16,20
-0.46,16.28,12.82,19.24,-11.52,17.04,-9.19,8.55,-15.69,18.6,9.18,-6.15,20
0.3,15.76,14.35,11.82,-8.59,11.87,-7.86,10.42,-15.79,14.6,11.91,-3.08,20
-0.19,14.93,12.61,-14.4,8.2,-2.15,-7.55,10.91,-15.37,-0.98,3.81,-2.88,20
0.61,21.43,15.0,-67.58,25.88,-22.71,-7.0,12.41,-15.16,-32.47,11.04,-0.88,20
-2.95,15.14,19.3,-115.14,31.45,-43.07,-4.09,15.93,-12.05,-52.39,6.4,18.95,20
-6.98,4.14,18.34,-82.62,7.42,-42.38,-2.95,16.29,-8.11,-104.59,9.77,9.13,20
-6.71,-0.8,18.22,-100.63,-3.27,-55.13,-4.28,17.11,-4.98,-102.59,8.01,12.65,20
-5.55,-10.23,17.71,-118.8,-19.43,-29.74,-4.21,17.58,2.21,-118.8,-1.56,8.01,20
-4.09,-14.88,15.03,-93.75,-19.09,-14.79,-6.46,13.23,5.6,-106.54,10.3,9.96,20
-0.91,-21.64,13.97,-58.3,-17.29,-23.58,-4.06,13.02,12.13,-93.07,13.13,-22.8,20
-3.55,-17.95,14.45,0.68,-0.59,-2.15,-6.22,11.85,13.26,-9.42,7.18,-15.62,20
-3.45,-16.96,13.87,0.15,-0.44,-2.39,-5.47,15.03,14.21,-0.49,1.95,-3.37,20
-2.5,-17.2,13.61,8.2,-2.39,0.83,-4.34,13.86,14.81,9.42,-5.32,6.69,20
-9.65,1.55,14.25,175.2,-10.94,68.12,-6.82,16.43,-11.57,118.46,-21.78,-5.13,21
-6.94,15.51,14.84,109.91,-33.64,55.32,-7.11,13.98,-14.04,49.71,-11.08,-2.78,21
-3.36,14.71,17.58,39.79,-24.66,35.84,-8.02,11.82,-14.93,14.21,-2.88,2.05,21
-2.14,16.39,15.02,2.1,-25.24,26.07,-8.23,11.22,-14.66,-5.47,-3.61,-2.39,21
-3.13,13.12,15.51,-0.1,0.15,1.51,-7.71,12.09,-13.5,0.29,-7.42,-4.39,21
-2.91,12.51,15.22,3.32,0.78,1.86,-8.45,12.56,-14.07,-3.32,2.78,-0.05,21
-1.85,15.7,15.42,1.03,-6.45,4.35,-8.26,12.85,-13.95,-32.03,9.42,0.63,21
-2.21,14.23,16.24,-26.27,11.96,-10.74,-6.9,14.72,-12.36,-25.88,11.52,5.22,21
-3.56,13.93,17.07,-24.71,4.25,-15.97,-6.11,17.28,-9.98,-66.36,17.97,20.12,21
-7.06,5.29,17.44,-79.59,31.05,-50.73,-5.56,17.22,-6.91,-111.33,21.92,7.08,21
-7.95,1.96,17.75,-109.03,17.19,-59.52,-7.02,17.3,-3.88,-122.75,45.12,-7.57,21
-7.18,-4.68,17.31,-129.69,-36.33,-56.4,-6.2,15.75,3.64,-79.05,7.47,-4.83,21
-6.0,-11.6,17.99,-78.27,-13.57,-26.37,-4.53,19.4,8.67,-86.67,1.81,-11.08,21
-4.54,-12.22,17.14,-67.72,-16.7,-14.31,-5.0,15.56,10.4,-45.56,-8.35,1.9,21
-3.81,-13.94,14.47,-40.04,-9.18,-5.66,-4.1,19.64,16.28,-4.79,-5.52,4.49,21
-0.42,-22.7,19.15,-10.69,-18.02,-15.67,-5.23,14.13,13.96,1.46,-6.1,-3.96,21
-2.81,-17.95,14.44,-0.39,3.76,-5.08,-6.12,14.45,12.55,-1.03,1.71,-3.71,21
-3.07,-15.79,14.99,3.86,-7.86,-1.07,-5.85,14.77,13.11,0.98,0.05,-2.0,21
-3.03,-16.01,14.47,2.39,-4.49,0.73,-5.68,14.64,13.28,-1.12,0.0,1.12,21
-2.65,-16.06,14.55,-0.15,-7.96,-0.63,-5.98,14.54,12.8,-2.64,-0.83,-2.49,21
-2.85,-14.0,14.5,30.71,3.61,3.81,-2.98,17.77,11.84,27.59,-11.67,4.49,22
-2.07,-13.63,16.01,20.12,4.44,6.88,-3.5,17.7,9.16,50.83,-30.52,17.92,22
-3.24,-17.27,16.63,39.36,19.63,27.15,-3.62,18.7,8.02,62.01,16.36,-8.74,22
-3.58,-9.68,18.49,74.56,6.74,12.06,-3.17,19.75,4.63,1.07,6.4,-11.47,22
-6.11,-4.68,17.72,-6.64,-4.0,3.13,-3.5,19.31,5.51,-26.66,2.49,-9.23,22
-5.11,-8.74,18.73,-11.72,-6.54,-16.26,-3.12,20.03,7.65,-28.91,10.16,-7.13,22
-3.47,-11.49,19.75,-13.33,-12.4,-10.64,-4.33,19.13,7.41,-14.94,20.17,-8.35,22
-3.44,-9.86,18.76,-3.52,-3.42,-7.76,-5.15,17.67,8.11,-2.78,4.88,-1.32,22
-3.11,-11.14,18.71,-2.78,-7.62,-0.78,-6.63,15.59,4.72,53.71,-16.65,22.9,22
-3.33,-14.27,19.99,37.65,27.49,33.98,-2.91,21.58,2.6,168.7,-26.07,-13.18,22
-5.96,-7.63,17.92,168.65,81.45,47.51,-3.81,20.85,-5.68,182.62,-45.85,-19.34,22
-9.37,9.1,14.81,163.13,3.13,57.62,-4.46,19.12,-11.9,127.88,-34.52,-1.61,22
-5.72,16.69,16.6,91.99,-27.44,50.39,-6.05,13.42,-14.55,50.98,-16.41,-10.89,22
-4.87,14.28,13.57,38.38,-9.18,29.3,-7.64,10.45,-15.72,18.55,0.2,-7.91,22
-3.29,15.23,12.97,13.92,-5.08,21.68,-7.82,10.72,-16.68,0.59,3.17,-3.17,22
-2.16,16.34,14.2,-1.27,-3.08,5.27,-7.02,11.7,-15.52,-24.66,-9.77,-13.04,22
-2.05,16.48,14.54,-19.63,6.35,-9.91,-6.91,14.22,-15.26,-84.08,44.48,0.83,22
-2.32,17.45,15.11,-100.49,25.34,-26.46,-4.17,17.53,-8.51,-108.5,39.84,10.64,22
-7.67,7.62,16.25,-99.51,1.22,-47.12,-4.54,19.7,-6.31,-136.28,36.47,-0.98,22
-7.28,0.92,18.2,-125.88,-3.17,-36.04,-5.71,16.68,-2.41,-164.21,32.32,-34.62,22
-0.28,-16.61,14.27,0.44,-0.93,0.93,-4.14,13.84,14.77,-0.0,0.2,0.15,23
-0.58,-16.66,14.11,0.98,-0.15,0.78,-4.3,13.56,14.62,-0.1,0.2,-0.63,23
-0.45,-16.69,14.12,0.78,-0.63,1.07,-4.17,13.59,14.78,-0.2,-0.2,-0.29,23
-0.59,-16.81,14.01,-0.2,0.24,1.07,-4.2,13.64,14.78,-0.83,-0.05,-1.32,23
-0.44,-16.58,14.17,0.05,-0.78,0.93,-4.22,13.72,14.69,-0.49,0.05,-0.1,23
-0.61,-16.58,14.08,1.17,-0.83,0.88,-4.21,13.61,14.86,-0.05,-0.1,0.1,23
-0.62,-16.66,13.96,0.73,-0.63,0.98,-4.2,13.51,14.83,-0.15,0.1,-0.34,23
-0.44,-16.54,14.23,0.15,-0.78,0.78,-4.19,13.8,14.75,-0.2,-0.1,0.15,23
-0.43,-16.74,14.21,0.93,-0.73,0.73,-4.21,13.8,14.9,0.05,-0.44,0.34,23
-0.08,-16.68,14.98,3.17,22.36,1.37,-4.3,13.62,14.64,0.73,-1.03,-0.39,23
-1.17,-17.25,14.72,5.81,18.85,5.13,-4.16,13.3,14.63,6.74,-2.73,1.07,23
-3.31,-15.84,13.89,21.58,25.63,17.53,-3.93,14.61,14.4,29.0,-4.05,-0.68,23
-4.31,-16.76,15.89,74.61,34.91,41.31,-2.55,17.47,12.62,89.16,-1.27,14.06,23
-7.25,-12.21,18.66,102.78,18.16,33.94,-3.56,19.46,5.12,111.87,-7.91,-4.64,23
-8.79,-0.94,16.29,143.46,12.5,51.12,-3.85,19.09,-2.74,153.91,-12.55,-18.51,23
-7.6,7.76,15.78,101.07,-11.43,46.09,-4.69,17.27,-9.02,117.43,-17.63,-13.43,23
-5.3,11.81,17.44,51.66,-15.97,30.47,-4.67,16.04,-13.28,62.16,-11.38,-3.47,23
-5.16,12.24,14.16,37.3,-20.26,32.81,-6.54,12.36,-14.46,33.11,-12.89,-6.05,23
-0.6,18.98,12.7,15.48,-33.3,42.68,-10.61,8.43,-14.49,23.05,1.56,-1.56,23
0.0,14.9,16.86,-29.15,6.35,-6.84,-6.81,13.59,-15.31,-21.68,2.29,4.69,23
-2.95,-13.33,16.17,37.26,8.3,1.22,-3.68,17.48,10.69,28.76,0.2,-4.44,24
-2.3,-12.65,17.48,9.33,0.73,1.9,-3.65,17.42,9.86,9.77,-3.47,2.2,24
-3.28,-12.63,17.06,11.67,4.2,0.24,-3.91,17.4,9.93,7.37,-1.12,-4.88,24
-3.58,-13.06,16.53,-0.29,-0.44,-0.59,-4.12,16.16,9.88,-0.34,-1.12,-0.24,24
-2.99,-12.76,17.92,1.71,-2.69,-1.76,-3.63,18.23,10.14,0.24,-2.2,1.56,24
-2.94,-12.96,17.81,1.22,0.63,1.56,-3.89,16.94,9.77,3.42,-2.15,0.78,24
-2.84,-13.11,18.16,10.06,2.83,5.62,-3.73,17.67,8.68,25.34,-10.79,8.01,24
-3.7,-15.83,18.73,69.87,39.65,38.23,-4.05,16.21,6.51,80.22,-3.32,-10.6,24
-8.25,-10.07,15.81,170.41,33.06,48.34,-6.15,14.19,-1.84,186.77,-22.8,-30.37,24
-7.54,12.92,13.0,178.86,-18.41,63.87,-5.76,18.68,-11.12,155.57,-11.62,-9.08,24
-3.62,12.25,18.81,52.0,-23.63,36.77,-5.39,15.5,-14.11,57.42,-10.35,4.59,24
-3.19,13.5,16.55,35.25,-8.54,17.53,-6.72,12.66,-14.64,33.11,-32.03,-3.37,24
-0.88,15.8,17.25,11.77,-11.04,15.14,-7.45,13.61,-14.71,3.42,-29.39,-7.28,24
-0.63,15.71,15.13,4.1,-15.72,17.29,-9.78,11.41,-14.97,7.28,-0.59,2.39,24
-0.49,17.28,15.69,-12.3,4.35,-5.62,-8.2,13.54,-14.29,-25.49,27.88,-5.76,24
-3.17,15.07,14.83,-62.01,39.94,-25.88,-6.73,12.05,-12.11,-70.65,73.83,-1.22,24
-6.64,7.15,17.37,-104.79,29.05,-66.5,-6.7,16.04,-11.61,-98.63,2.0,14.01,24
-9.29,3.33,16.39,-114.06,0.1,-61.28,-7.03,16.93,-7.99,-115.67,-5.13,-5.47,24
-7.77,-4.83,18.58,-125.98,-39.65,-35.79,-6.51,18.04,-0.92,-121.14,6.05,9.18,24
-5.27,-12.14,17.18,-116.5,-24.51,-31.74,-4.73,16.64,6.61,-122.8,-2.59,1.37,24
-3.27,-16.14,15.7,6.3,0.39,3.81,-3.79,13.86,10.39,21.78,-2.2,3.13,25
-4.16,-15.07,16.28,24.17,7.18,13.67,-3.05,16.19,10.26,29.44,2.98,-0.83,25
-4.7,-16.61,16.4,70.26,24.37,25.24,-2.23,18.7,8.11,77.78,0.63,-13.13,25
-7.43,-7.4,17.51,58.79,22.07,12.16,-2.86,19.06,3.91,45.65,-6.2,-14.21,25
-7.15,-5.72,18.19,7.03,0.78,-0.93,-4.36,17.59,1.87,0.1,3.08,-2.29,25
-6.96,-7.84,20.25,6.84,-1.51,1.17,-4.19,18.6,2.58,21.87,-10.3,0.49,25
-8.31,-5.66,19.09,100.63,13.13,34.18,-4.08,18.54,-0.87,80.62,-4.98,-12.06,25
-7.82,5.76,18.2,125.24,0.05,63.67,-5.2,18.88,-6.78,94.92,2.54,-20.12,25
-6.91,8.11,18.49,83.74,-9.62,37.79,-6.74,14.82,-11.33,84.33,-29.35,-13.23,25
-5.52,12.15,17.66,48.19,-18.41,23.93,-6.81,14.42,-12.64,51.61,-32.47,-12.01,25
-5.85,12.68,12.98,31.49,-14.11,31.3,-9.26,12.99,-13.09,20.95,-17.14,-12.94,25
-4.94,15.27,12.7,-1.51,-5.32,7.91,-9.78,12.04,-12.35,1.22,0.29,3.56,25
-2.4,15.63,16.11,-27.49,9.18,-2.64,-8.67,15.49,-13.41,-45.22,43.31,2.39,25
-5.31,14.15,15.5,-43.6,27.15,-38.62,-10.22,13.42,-13.89,-69.04,44.53,-6.74,25
-6.61,14.36,17.88,-51.9,-6.84,-37.06,-7.77,17.26,-11.15,-105.47,20.9,10.64,25
-7.99,4.34,17.43,-105.18,-41.02,-49.41,-5.03,20.49,-3.73,-143.8,10.21,-0.88,25
-6.3,-3.32,18.18,-130.47,-16.31,-24.8,-6.1,17.82,1.81,-140.77,-1.12,9.47,25
-4.46,-10.56,19.04,-75.29,-17.29,-12.35,-4.53,18.83,8.37,-71.34,-18.21,22.41,25
-3.75,-13.98,17.29,-69.78,-16.85,-1.32,-3.36,17.01,11.89,-60.25,-8.98,22.31,25
-3.38,-15.36,14.52,-49.32,-12.6,-1.86,-3.38,12.94,12.74,-38.04,-5.91,8.2,25
-3.22,-16.81,13.94,1.22,-1.32,0.34,-3.12,14.47,14.22,-0.29,-0.34,0.34,26
-3.17,-16.87,13.84,-0.05,-0.63,0.44,-3.02,15.11,14.07,-0.2,-0.73,0.44,26
-2.96,-16.48,14.17,0.83,0.0,0.1,-3.23,14.72,13.89,0.98,0.1,0.68,26
-3.06,-16.28,14.17,1.9,-2.0,1.51,-3.22,14.49,14.04,0.15,0.34,0.34,26
-3.21,-16.72,13.86,1.12,-1.07,0.98,-3.18,14.55,14.02,-0.59,0.1,-0.2,26
-3.12,-16.6,13.97,0.49,-2.29,0.59,-3.2,14.54,13.93,0.59,-1.27,0.63,26
-3.0,-16.51,14.07,0.2,-1.17,0.73,-3.23,14.57,13.88,-0.54,0.24,-0.39,26
-2.8,-16.56,14.25,0.78,0.78,0.59,-3.14,14.73,13.92,-0.54,-0.24,0.29,26
-2.98,-16.52,14.16,0.44,0.05,0.44,-3.01,14.67,14.07,2.64,-1.66,1.71,26
-2.95,-16.6,14.1,2.25,-1.9,0.49,-3.27,14.14,13.97,-1.27,-0.49,-0.93,26
-2.96,-16.79,13.92,-1.03,-0.44,0.34,-3.23,14.59,13.68,-0.78,0.63,0.44,26
-2.99,-16.18,14.12,0.98,-2.44,0.59,-3.15,14.29,14.06,-0.34,0.29,-0.24,26
-2.93,-16.71,13.93,0.68,-1.17,0.78,-3.02,14.6,14.12,0.1,-0.88,0.24,26
-2.97,-16.53,13.98,0.34,-0.73,0.49,-3.17,14.63,13.82,-0.88,0.44,-0.2,26
-2.71,-16.34,14.34,0.88,-1.56,0.98,-3.24,14.37,13.91,-0.24,0.39,0.24,26
-2.84,-16.55,14.06,1.27,-1.46,0.78,-3.09,14.45,14.11,-1.17,-0.24,-0.15,26
-2.86,-16.58,13.92,0.24,-1.07,0.39,-3.15,14.8,13.83,-2.1,-0.73,1.22,26
-2.81,-16.24,14.16,-1.27,-1.61,-0.2,-2.93,14.29,14.38,-0.59,-1.03,2.64,26
-2.61,-16.88,13.87,0.2,-3.56,-0.78,-2.1,14.56,15.75,36.82,-16.41,18.65,26
-3.4,-17.04,12.89,5.62,1.03,2.0,-2.89,14.9,11.61,-6.54,7.71,-0.73,26
-1.02,-16.92,13.73,-1.66,-1.32,0.59,-4.62,12.24,15.49,-1.61,0.05,-0.54,27
-0.92,-16.32,14.23,0.54,-1.51,0.93,-4.61,13.04,15.2,-0.93,0.15,-0.34,27
-0.77,-16.5,14.24,0.54,-2.0,0.83,-4.51,13.19,15.22,-0.39,-0.39,0.2,27
-0.79,-16.27,14.2,0.88,-1.61,2.64,-4.51,13.23,15.1,-0.05,0.29,1.22,27
-1.32,-16.24,13.89,4.88,-0.54,0.63,-4.53,13.11,15.17,1.81,-0.63,1.27,27
-0.63,-16.03,14.8,1.37,-2.73,-1.03,-4.38,13.81,14.92,-0.63,-1.46,0.63,27
-0.73,-16.78,14.32,0.68,-2.88,0.0,-4.4,13.3,15.08,1.12,-0.63,1.03,27
-0.81,-16.64,13.97,-2.73,-1.27,1.71,-4.39,12.83,15.21,-3.22,-0.1,0.0,27
-0.61,-16.29,14.45,0.63,-0.49,0.73,-4.39,13.35,15.09,-0.68,-0.54,-0.78,27
-0.82,-16.77,14.07,0.2,-1.22,0.63,-4.44,13.0,15.22,-0.49,-0.29,0.34,27
-0.62,-16.71,14.01,0.49,-1.95,1.17,-4.32,12.86,15.35,-0.0,-0.24,0.83,27
-0.47,-16.3,14.32,-0.78,-0.1,0.63,-4.22,13.16,15.21,-1.56,-0.73,-1.56,27
-0.78,-16.49,14.08,1.81,-1.07,0.73,-4.33,13.17,15.23,0.93,-0.1,0.1,27
-0.5,-16.61,14.17,-1.37,-0.98,0.83,-4.33,12.76,15.35,-1.42,-0.54,-0.54,27
-0.55,-16.4,14.3,1.17,-1.46,0.49,-4.3,13.26,15.21,-0.1,-0.44,-0.15,27
-0.66,-16.65,14.11,2.15,-1.17,0.83,-4.41,13.05,15.14,1.71,0.1,0.0,27
-0.65,-18.52,12.95,12.21,8.25,-2.93,-3.75,11.47,16.68,13.38,-2.34,-1.71,27
-0.78,-13.88,16.18,3.56,-2.34,0.73,-4.43,16.18,13.69,-1.86,1.66,0.24,27
-0.97,-16.91,13.84,3.47,-2.44,0.98,-4.55,13.31,14.78,3.95,1.17,2.34,27
-0.44,-16.36,14.59,-2.69,-0.78,0.24,-4.17,13.34,15.2,-2.25,0.34,-0.73,27
-4.71,-12.51,16.75,-74.9,-16.21,-8.59,-6.3,17.43,7.94,-89.4,-10.69,-11.52,28
-2.72,-15.5,16.02,-58.89,-13.18,-4.83,-6.18,15.01,11.19,-52.34,-6.35,5.42,28
-2.81,-16.06,13.45,-40.63,-5.66,-10.55,-5.95,12.5,12.88,-44.63,-11.96,-6.79,28
-1.0,-20.72,14.47,-15.77,-2.34,-20.07,-4.81,14.81,18.86,-10.16,-8.74,-0.63,28
-1.38,-23.61,11.28,-31.25,30.03,-16.94,-6.38,8.22,17.62,-10.6,-8.3,-18.85,28
-2.26,-16.18,14.4,4.3,3.17,-1.42,-6.13,14.53,14.28,-0.05,0.88,-6.3,28
-2.59,-17.61,12.4,8.64,-10.21,-2.15,-6.05,13.3,15.72,10.06,-4.88,12.16,28
-2.16,-17.78,12.35,3.12,-7.96,-0.44,-5.93,12.27,15.37,-0.0,0.29,0.24,28
-2.28,-17.51,12.8,0.88,-0.54,0.2,-5.9,12.89,15.21,1.37,-1.37,-2.44,28
-2.45,-17.69,12.64,1.12,-1.32,-0.24,-6.23,12.39,15.18,0.54,-0.44,1.07,28
-2.05,-17.65,12.86,2.2,0.24,0.83,-6.04,12.73,15.26,1.46,-0.1,-0.39,28
-1.84,-17.8,12.92,0.88,0.63,1.71,-6.04,12.3,14.99,0.1,-0.73,-2.2,28
-2.59,-17.69,12.63,1.12,0.73,0.88,-6.34,12.2,15.28,0.93,-1.22,-1.95,28
-2.04,-17.4,12.92,3.03,-3.91,-0.93,-5.8,12.98,15.37,2.73,-1.46,3.61,28
-1.82,-17.43,13.16,-0.0,-2.34,0.98,-6.04,12.68,14.99,11.38,0.54,-0.68,28
-1.83,-17.27,13.43,-0.63,-2.34,-0.15,-6.08,13.1,14.99,-0.93,0.24,-0.63,28
-2.01,-18.01,12.65,1.42,-4.3,0.83,-5.93,12.08,15.34,0.54,1.17,4.83,28
-1.1,-17.93,13.53,-0.83,-0.05,6.15,-5.66,12.34,15.05,0.59,3.03,-3.12,28
-1.55,-17.57,13.62,10.3,-4.2,2.83,-5.74,13.42,15.2,7.28,1.9,3.03,28
-2.37,-16.82,13.6,14.84,1.03,3.76,-5.89,13.01,14.54,12.4,-0.54,2.93,28
-6.18,11.18,17.19,93.99,-15.87,30.18,-4.81,17.14,-11.04,100.54,-18.46,-13.53,29
-3.11,14.97,15.09,53.71,-17.19,31.84,-8.32,15.43,-17.04,50.44,-17.48,-21.97,29
-0.76,18.51,19.85,42.09,-4.25,24.8,-6.0,18.22,-16.32,31.59,-7.18,-34.96,29
-2.17,14.76,13.94,0.24,-9.47,11.23,-7.04,11.42,-15.86,9.57,13.77,6.49,29
-3.38,16.83,13.6,-24.02,8.84,-3.86,-7.0,11.57,-15.05,-19.73,11.62,-0.98,29
-3.69,15.57,16.19,-77.0,28.91,-38.09,-7.25,15.14,-15.51,-77.83,38.18,-4.74,29
-6.05,5.27,18.88,-98.73,-45.41,-46.34,-4.48,17.2,-8.88,-83.69,11.23,6.15,29
-6.93,3.4,18.77,-88.97,-4.93,-41.02,-6.85,17.68,-8.38,-100.44,6.74,-25.1,29
-6.37,-4.58,18.07,-123.78,0.0,-25.88,-6.05,17.62,-0.02,-125.98,-8.25,-3.71,29
-4.42,-10.73,17.07,-125.15,-18.85,-19.38,-4.72,17.2,7.82,-123.58,-24.71,15.87,29
-3.97,-17.86,13.87,-96.19,-12.79,-16.99,-5.01,13.33,12.32,-94.63,0.83,15.23,29
-1.53,-19.12,16.25,-15.48,-10.4,-6.1,-5.18,14.84,13.26,-7.13,3.96,-4.05,29
-4.72,-18.71,12.06,-5.57,5.52,-1.22,-6.38,12.56,15.17,-2.44,-2.39,-5.81,29
-3.24,-17.56,12.3,-1.42,-7.96,-5.57,-5.6,13.31,14.73,1.37,-4.25,4.79,29
-2.56,-17.94,12.56,9.91,-6.25,-0.93,-5.07,13.01,14.63,7.37,-1.46,2.29,29
-1.69,-17.09,13.72,2.88,-5.08,-0.83,-4.83,14.36,14.59,1.51,-2.88,-0.15,29
-1.76,-16.91,13.9,1.03,-0.05,1.95,-5.02,14.97,14.41,2.64,-2.78,-1.76,29
-2.57,-17.37,13.21,0.83,-4.39,-0.78,-5.63,12.81,13.88,-1.47,-0.15,0.0,29
-1.69,-17.32,13.36,0.59,-3.61,0.54,-4.9,13.92,14.38,-0.15,-1.32,0.39,29
-2.02,-17.44,13.17,0.54,-0.44,1.42,-5.13,13.56,14.44,-0.29,-0.44,-1.27,29
-3.97,-16.56,16.25,61.52,11.62,28.76,-2.79,16.07,9.74,92.68,3.86,12.79,30
-6.78,-13.05,17.82,155.37,18.51,58.2,-4.2,19.77,0.36,165.14,-8.79,-13.96,30
-9.51,4.65,15.35,158.2,0.2,64.26,-4.88,18.05,-6.69,129.2,3.52,-5.96,30
-7.75,11.4,16.54,93.8,-14.89,42.53,-4.85,13.8,-10.56,74.8,-10.5,-6.54,30
-5.31,10.09,17.58,61.87,-10.06,31.98,-3.74,14.25,-12.91,70.02,-16.89,-4.39,30
-5.36,13.64,13.52,32.03,-10.55,32.23,-4.68,11.81,-15.37,35.06,-7.08,-0.39,30
-4.73,16.06,11.83,9.52,-2.29,15.58,-7.85,8.07,-15.54,6.98,-17.72,4.35,30
-2.41,17.08,14.86,-12.5,-0.63,9.38,-6.76,11.57,-16.51,-24.61,16.36,-6.49,30
-2.78,17.57,15.77,-84.77,7.08,-45.85,-4.4,16.94,-15.24,-119.58,33.98,1.81,30
-6.44,5.29,17.07,-146.68,3.91,-68.85,-2.74,20.01,-6.71,-176.56,18.21,-10.99,30
-7.82,-4.82,16.58,-123.58,-5.52,-47.51,-5.35,17.35,-1.28,-114.6,-23.34,13.09,30
-5.51,-10.85,17.42,-113.48,-23.83,-35.3,-4.72,16.6,5.81,-99.56,-12.06,9.86,30
-3.65,-14.88,15.58,-88.48,-10.3,-18.36,-2.86,16.39,10.97,-81.93,-8.54,18.6,30
-2.22,-17.5,13.19,-58.94,-9.18,-11.04,-2.46,13.05,13.29,-55.81,-6.25,8.01,30
-0.39,-20.39,12.19,-17.29,5.08,-12.84,-0.37,13.22,16.8,-11.67,-4.49,-10.94,30
-2.29,-18.34,11.52,-3.66,3.22,-0.73,-2.51,12.87,15.49,-1.71,-1.27,-8.5,30
-2.1,-18.04,12.36,8.79,-4.64,1.07,-3.12,13.24,14.01,7.23,3.37,0.15,30
-1.66,-17.92,12.3,3.76,-7.86,-0.98,-2.02,14.1,15.02,2.29,0.78,2.59,30
-1.42,-17.83,12.53,1.86,-2.83,1.17,-2.31,14.27,14.97,1.27,0.15,-2.39,30
-1.8,-18.23,11.93,-0.44,3.27,2.39,-2.89,13.43,14.95,-0.05,0.24,-5.57,30
-9.52,-2.53,14.84,168.21,8.25,48.49,-4.31,15.33,-5.21,168.21,-29.0,-21.14,31
-8.47,7.6,12.33,142.19,-22.71,57.18,-4.74,13.35,-11.64,162.06,-32.13,-5.03,31
-3.69,13.01,18.97,38.09,3.47,36.77,-2.92,18.02,-15.79,54.74,-13.67,6.79,31
-4.84,15.83,14.26,-2.15,0.2,6.59,-4.93,12.51,-15.96,3.17,2.73,7.03,31
-5.91,11.68,13.96,-26.86,-0.29,-7.13,-5.97,10.54,-15.52,-30.13,18.36,1.66,31
-5.77,11.99,17.07,-41.36,-10.94,-66.21,-4.59,14.21,-13.39,-74.66,14.11,-21.97,31
-8.93,5.45,15.86,-66.7,0.44,-60.74,-8.15,12.2,-9.92,-90.04,-15.09,-30.96,31
-8.52,2.62,16.86,-122.8,-28.12,-37.79,-8.64,15.01,-5.88,-126.47,-8.98,20.75,31
-6.47,-3.69,17.6,-159.13,-32.71,-21.39,-6.22,19.81,1.92,-162.84,-6.59,29.49,31
-4.32,-11.64,16.76,-103.66,-20.85,-14.79,-4.15,16.76,8.42,-103.22,-9.62,20.95,31
-2.6,-14.45,16.16,-66.89,-19.78,-10.64,-3.48,15.18,11.85,-53.91,-12.45,15.04,31
-2.73,-15.8,14.56,-31.15,-0.88,6.54,-3.32,13.13,13.66,-31.25,1.07,-6.88,31
-2.02,-16.91,13.93,-8.15,-4.35,-2.0,-2.66,13.1,15.06,-8.45,-3.03,2.78,31
-1.68,-17.99,13.43,4.0,0.63,-2.29,-2.53,12.67,15.39,6.1,-2.69,-1.95,31
-1.54,-15.57,15.43,5.81,-2.73,0.44,-2.51,15.4,14.34,1.86,0.1,0.78,31
-1.62,-16.58,14.37,-2.59,3.42,2.54,-3.02,13.88,14.86,-2.05,-1.07,-7.81,31
-2.37,-16.48,14.18,-0.68,-1.46,1.22,-3.36,13.77,14.63,-1.9,0.29,-0.29,31
-2.21,-16.77,14.01,1.9,-2.2,1.12,-3.15,13.43,14.86,0.24,0.68,-0.05,31
-1.97,-16.73,14.12,0.29,1.81,1.32,-3.26,13.56,14.86,-0.39,0.34,-2.29,31
-2.05,-16.58,14.22,1.32,-1.07,1.07,-3.15,13.89,14.86,1.42,-0.05,0.0,31
-5.75,15.73,13.69,-0.59,-11.91,21.44,-5.71,14.39,-16.2,-19.48,9.47,3.66,32
-4.27,19.81,14.6,-19.82,-5.37,-8.59,-4.52,16.0,-12.3,-139.75,35.4,25.1,32
-7.51,10.18,15.67,-133.74,-5.81,-85.6,-4.6,16.59,-6.63,-143.6,8.45,13.23,32
-7.4,-2.24,19.51,-141.26,-10.89,-45.12,-3.82,19.1,-0.16,-134.18,1.81,16.94,32
-6.14,-5.06,17.78,-128.91,-19.58,-35.94,-2.47,16.64,7.75,-110.06,8.98,21.39,32
-4.95,-13.8,15.29,-114.06,-22.71,-25.15,-1.43,15.11,12.42,-77.25,4.35,3.86,32
-2.69,-17.89,13.56,-74.46,-12.4,-11.67,-0.12,13.57,18.52,-2.64,-5.22,-13.57,32
0.09,-24.82,13.49,-13.57,-0.88,-15.77,-2.38,15.04,13.87,6.59,-2.78,-3.71,32
-3.42,-17.78,13.15,7.08,4.64,-2.59,-1.61,13.89,14.0,1.51,-1.66,4.88,32
-2.12,-18.71,12.73,0.54,-4.35,-3.66,-1.05,15.75,13.54,2.78,0.59,1.76,32
-1.72,-16.99,13.62,5.22,-4.3,0.73,-1.75,14.47,14.32,-2.25,0.0,-6.79,32
-2.4,-18.13,12.8,-1.51,2.39,1.56,-1.65,15.22,13.52,0.49,-3.76,-0.73,32
-2.36,-16.99,13.24,-1.07,1.51,1.22,-1.84,14.4,13.9,-3.22,-1.76,-2.78,32
-2.6,-17.49,12.88,-0.24,-1.12,1.22,-1.74,14.83,13.85,1.9,-0.29,1.07,32
-2.34,-17.51,13.04,3.42,-2.54,0.63,-1.75,14.83,13.74,1.37,-1.95,0.68,32
-2.29,-17.44,13.2,0.83,-1.9,0.83,-1.7,14.9,13.8,-0.0,-0.15,-0.05,32
-2.17,-17.55,13.16,0.78,-1.61,0.34,-1.6,14.83,14.02,0.83,-0.83,-0.39,32
-2.42,-17.46,12.85,1.76,-0.39,0.63,-1.68,14.35,13.96,0.24,-1.37,-0.24,32
-2.23,-17.62,13.07,-0.2,-0.05,0.44,-1.87,14.4,13.69,-2.1,-0.1,-1.9,32
-2.27,-17.21,13.13,1.17,-1.32,1.42,-1.63,15.11,13.86,1.07,-1.12,0.2,32
-4.22,-18.49,12.47,48.93,38.04,43.16,-1.79,14.51,12.33,47.61,12.89,17.43,33
-4.8,-15.09,17.07,76.46,14.84,23.19,-1.63,17.23,8.72,83.35,-6.05,-13.62,33
-6.64,-10.32,18.37,95.26,19.78,56.79,-4.54,19.89,-0.11,134.03,-9.86,-21.63,33
-9.8,1.6,17.56,88.92,9.28,33.69,-5.37,17.67,-4.02,65.09,11.13,-11.52,33
-9.38,0.29,16.94,107.76,-1.95,29.2,-3.06,18.69,-6.47,113.18,-19.58,-19.48,33
-7.51,10.15,16.41,99.71,-10.06,58.98,-5.53,16.31,-13.09,79.05,20.21,-4.15,33
-6.53,11.19,16.1,36.77,-3.76,34.67,-4.08,13.4,-12.86,52.44,-2.39,3.71,33
-5.42,14.56,13.86,33.74,-3.08,23.83,-6.1,10.35,-15.44,36.62,-19.38,0.1,33
-2.41,13.41,17.97,8.06,-1.46,10.79,-5.66,12.12,-16.59,7.81,-9.72,-9.62,33
-3.25,14.7,12.71,-1.66,-1.32,7.18,-6.4,9.46,-15.08,0.05,-8.98,-6.84,33
-3.11,17.39,13.22,-15.53,4.3,-1.76,-7.14,11.05,-16.22,-44.53,28.03,-5.03,33
-4.19,15.91,15.71,-84.03,27.98,-64.79,-5.5,15.88,-13.83,-150.93,38.09,-18.95,33
-9.77,10.48,15.26,-83.55,27.78,-96.44,-2.97,24.57,-6.97,-163.62,-8.5,26.95,33
-10.38,-2.56,15.72,-124.07,-23.34,-62.74,-3.52,20.46,0.69,-135.25,-9.42,34.52,33
-8.6,-11.29,13.55,-139.84,-49.66,-49.12,-2.31,15.76,8.91,-111.57,-5.96,40.82,33
-4.68,-18.44,14.75,-87.7,-37.21,-29.59,-1.52,14.66,12.46,-60.11,0.15,20.17,33
-3.12,-18.3,12.97,-26.07,-8.06,-12.84,-1.93,13.05,12.98,-12.94,-3.42,-2.0,33
-5.48,-15.73,10.18,19.04,33.3,9.67,-3.72,10.73,13.55,-12.5,9.77,-21.39,33
-3.7,-15.55,13.68,5.42,-1.95,-1.71,-1.33,15.54,13.61,-1.37,0.49,0.44,33
-2.64,-18.57,12.48,-13.77,-9.18,-8.15,-1.45,12.88,15.21,-3.03,-0.24,-1.22,33
-4.58,-15.25,14.89,37.7,29.44,28.91,-0.41,17.56,10.56,83.54,-7.23,12.3,34
-5.06,-9.52,18.88,83.64,14.6,42.19,-0.83,18.79,5.55,94.14,-14.79,-16.16,34
-8.38,-8.29,17.67,98.34,18.21,54.2,-2.61,21.27,-2.49,102.54,-16.99,-21.14,34
-8.75,-0.98,18.32,101.12,11.77,31.25,-5.55,15.61,-7.06,120.12,-6.84,-18.36,34
-7.43,9.36,17.78,111.62,-12.5,39.84,-4.77,13.98,-10.73,101.46,-14.26,-13.28,34
-6.34,13.17,16.58,75.88,-11.04,44.53,-4.53,14.92,-14.42,65.04,-5.96,1.71,34
-5.37,12.88,15.43,56.25,-1.71,25.78,-6.69,9.73,-15.59,34.86,-27.93,-2.25,34
-5.06,14.32,13.39,28.86,-21.44,28.13,-8.84,11.43,-17.39,-10.84,-27.78,-25.88,34
-5.78,17.14,8.79,-7.86,5.22,-7.13,-7.0,10.63,-14.22,-29.54,23.68,16.5,34
-3.78,16.29,15.19,-46.78,-1.22,-10.01,-5.34,15.47,-15.79,-81.79,46.39,-0.15,34
-6.46,8.71,17.13,-61.33,14.79,-32.71,-6.01,15.15,-11.17,-67.33,28.22,-14.45,34
-6.55,8.01,18.22,-62.6,-11.38,-43.36,-5.25,18.29,-8.63,-88.48,18.02,-2.54,34
-6.69,5.32,18.05,-106.1,-8.01,-39.84,-4.27,19.21,-3.05,-107.13,-5.32,20.7,34
-3.43,-3.79,21.88,-105.03,-17.77,-24.17,-4.81,19.05,2.77,-96.53,-17.29,21.97,34
-3.36,-9.24,19.47,-105.37,-12.21,-23.0,-4.14,15.18,6.84,-75.39,-12.7,10.64,34
-2.75,-13.11,16.39,-58.69,-14.01,-13.57,-2.41,16.43,11.75,-26.95,-8.2,11.57,34
-0.77,-19.49,17.41,-18.26,-4.88,-3.81,-3.38,15.31,10.05,-2.34,-1.22,-8.01,34
-3.61,-15.46,16.29,7.42,-0.83,-0.59,-3.67,16.54,10.96,1.42,-0.05,7.08,34
-2.46,-15.12,15.95,1.86,-12.74,-2.1,-1.9,17.29,10.31,9.08,1.9,2.39,34
-2.3,-14.42,16.86,0.59,-2.1,1.42,-3.1,16.84,10.41,0.54,-0.98,-2.1,34
-3.15,-15.12,15.62,-0.73,-0.59,-0.44,-4.17,16.15,12.23,-2.39,-1.81,0.88,35
-3.37,-15.44,15.28,-1.03,-0.29,0.05,-4.79,15.33,12.28,-1.66,-2.69,-0.05,35
-2.56,-15.17,15.9,-9.23,-4.35,0.88,-4.14,16.04,12.49,-9.86,-2.88,2.59,35
-2.64,-18.78,14.27,-5.13,-1.86,-0.05,-3.34,13.24,13.89,3.17,-4.54,6.15,35
-2.97,-14.78,14.98,17.04,2.83,0.88,-3.33,15.62,12.06,15.33,-1.81,1.76,35
-3.07,-14.28,15.92,10.16,2.15,1.95,-3.67,15.84,11.16,7.57,-0.68,-1.95,35
-3.56,-13.88,16.16,4.05,-5.27,2.1,-3.55,16.87,11.06,-0.88,3.61,1.46,35
-3.43,-14.39,15.61,-1.66,-0.2,0.15,-3.12,16.46,11.52,-1.42,-1.51,-0.05,35
-3.38,-15.06,15.83,0.24,-1.56,0.63,-3.28,16.07,11.74,0.98,-0.78,1.07,35
-3.35,-14.45,15.89,0.78,-1.86,1.46,-3.34,16.32,11.5,-3.32,0.44,0.05,35
-3.15,-15.0,16.17,3.71,1.86,3.13,-3.17,16.61,11.7,3.95,0.39,-1.46,35
-3.73,-15.21,16.02,20.85,3.81,3.52,-3.26,15.85,10.45,36.57,-5.66,6.45,35
-3.67,-12.93,18.11,113.57,22.31,31.01,-2.74,19.68,6.82,119.43,-13.43,-7.42,35
-5.58,-10.06,18.85,104.0,36.33,23.93,-3.96,15.13,0.99,124.12,-21.09,-17.33,35
-7.78,-0.4,15.2,191.85,13.77,39.36,-3.08,19.11,-7.22,196.97,-47.61,-21.48,35
-4.8,11.62,17.69,85.69,-15.04,53.42,-4.76,15.17,-13.71,79.35,12.94,-4.1,35
-5.43,14.72,12.55,22.8,-12.4,38.57,-6.34,8.83,-15.81,35.6,7.91,5.91,35
-3.66,15.6,14.05,-0.93,-11.67,4.69,-5.73,7.89,-15.56,-3.37,-42.29,-0.44,35
-1.51,10.97,16.08,-17.38,1.32,-3.47,-3.05,14.91,-14.6,-15.58,14.94,11.04,35
-2.27,16.31,16.68,-63.43,12.3,-14.01,-4.63,11.85,-14.23,-78.61,29.64,-11.43,35
-6.88,10.55,16.26,52.0,-0.63,35.69,-4.43,14.69,-12.85,59.57,13.09,-12.11,36
-5.02,16.33,14.25,19.48,-26.17,35.4,-6.59,12.07,-15.51,30.66,-3.86,-13.77,36
-1.73,15.17,16.54,17.77,-18.46,26.86,-5.26,13.5,-16.44,24.46,9.96,4.0,36
-4.35,15.8,11.02,-16.46,-1.66,-7.47,-6.24,9.0,-15.26,-12.99,7.03,7.57,36
-3.28,17.82,14.57,-48.78,15.28,-22.46,-4.13,14.51,-13.9,-52.98,4.1,-1.27,36
-3.64,10.35,19.81,-89.45,-2.39,-36.91,-3.31,18.97,-12.4,-104.49,14.79,-6.98,36
-6.55,6.24,18.41,-96.44,10.35,-60.89,-4.11,19.62,-7.32,-97.61,-13.67,-2.83,36
-6.71,-2.76,19.6,-110.99,-23.73,-39.84,-4.68,17.42,-2.88,-102.54,-18.26,11.04,36
-6.29,-8.34,18.63,-101.27,-14.55,-34.18,-5.33,16.81,2.02,-97.56,-12.74,15.38,36
-4.9,-14.3,17.06,-57.76,-18.21,-22.46,-3.84,14.86,8.87,-63.97,-11.18,3.52,36
-3.17,-14.66,17.7,-34.13,-15.77,-4.59,-3.23,16.13,9.69,-34.13,1.37,8.3,36
-5.27,-12.79,15.79,-21.14,-2.25,1.95,-3.78,17.1,11.17,-24.66,-2.44,-0.93,36
-2.04,-16.82,15.23,-17.19,-5.32,-0.49,-2.67,14.88,12.71,-15.14,-2.73,-0.44,36
-3.33,-16.75,14.91,5.76,4.49,3.37,-3.29,14.27,12.7,3.27,2.83,-10.74,36
-3.78,-14.86,15.88,6.54,-2.25,-0.83,-4.02,15.63,11.49,0.88,2.73,-1.37,36
-3.18,-14.47,16.11,2.29,-5.03,-0.78,-3.56,16.37,11.38,-1.61,1.12,3.32,36
-3.23,-14.23,16.1,3.95,-3.91,1.81,-3.33,16.79,11.84,3.27,0.63,2.34,36
-3.27,-14.85,15.67,1.51,-1.32,0.44,-3.38,16.03,11.8,2.25,-2.25,0.49,36
-2.99,-14.55,16.09,-0.29,0.83,1.03,-3.4,16.01,11.61,-4.05,-0.05,-3.86,36
-3.0,-14.67,16.2,1.17,0.39,1.66,-3.67,16.09,11.46,0.49,0.93,-0.88,36
-2.83,-20.22,15.26,24.95,17.04,16.94,-2.97,16.07,12.5,0.1,-1.37,-0.05,37
-5.67,-9.37,17.96,92.72,26.27,34.72,-2.99,15.83,12.32,0.15,0.34,-1.32,37
-6.96,-5.54,18.44,124.46,34.42,36.23,-3.07,15.82,12.36,0.05,-0.44,-0.88,37
-8.43,1.81,16.96,103.91,3.03,33.11,-2.85,16.32,12.51,1.37,-1.32,0.98,37
-8.9,7.97,15.52,78.08,-6.4,33.79,-3.34,15.4,12.03,0.29,-0.2,-0.34,37
-7.02,9.96,17.49,66.89,-10.11,25.83,-3.06,16.13,12.0,-0.93,0.49,-0.2,37
-6.87,13.04,13.56,42.43,-8.01,38.28,-2.94,15.91,12.31,2.05,-0.44,0.63,37
-5.45,14.69,13.47,12.79,-9.57,21.92,-3.21,15.32,11.95,1.56,0.1,1.12,37
-2.45,16.53,16.83,15.97,-3.42,17.82,-3.06,15.79,12.06,-1.42,0.44,-0.63,37
-3.08,14.75,14.27,9.28,1.56,5.96,-3.05,15.84,12.22,0.78,0.2,0.2,37
-2.38,16.54,13.57,3.03,-4.1,6.49,-3.19,15.74,12.08,0.24,2.2,0.54,37
0.09,17.6,17.12,-11.28,-11.77,-1.22,-3.25,15.71,12.09,-0.0,-0.1,-0.59,37
-2.18,17.29,16.76,-60.84,16.16,-31.3,-3.18,15.82,12.14,-1.32,0.0,-1.22,37
-7.07,7.19,16.47,-83.74,-4.74,-45.17,-3.15,16.04,12.2,-0.39,-0.49,0.15,37
-6.18,3.81,19.41,-120.07,-1.42,-34.37,-3.18,16.1,11.98,0.44,-0.44,-0.1,37
-4.86,-4.16,20.68,-131.74,-30.18,-24.71,-3.13,15.92,12.18,0.24,-0.59,0.68,37
-3.25,-10.83,18.92,-97.41,-23.34,-14.06,-3.07,16.02,12.04,0.49,-1.37,0.63,37
-1.99,-12.41,18.22,-56.25,-11.38,-10.45,-3.4,15.42,11.93,-1.22,-0.78,-1.95,37
-2.72,-14.65,16.21,-16.31,4.2,-3.61,-3.24,15.89,12.09,-0.78,0.0,-1.03,37
-1.91,-14.71,16.83,-7.18,9.38,-0.24,-3.15,15.99,12.16,-0.54,0.05,0.34,37
-5.67,-9.57,19.05,72.46,17.29,9.57,-2.83,20.99,7.94,34.42,29.79,-27.83,38
-8.33,1.0,19.01,140.67,31.84,22.02,-4.16,23.72,0.16,124.27,5.71,-13.87,38
-8.32,1.71,17.08,127.88,16.11,43.9,-4.65,18.6,-5.59,143.8,-20.7,20.02,38
-7.69,9.63,15.52,95.61,-10.99,47.22,-2.71,17.5,-9.65,101.32,-6.3,-0.44,38
-6.03,13.05,15.12,36.23,-2.88,26.22,-4.85,13.3,-14.46,48.49,-16.89,13.57,38
-4.01,13.06,15.79,30.76,-9.77,40.87,-4.47,12.6,-15.76,47.12,-18.75,5.71,38
-3.44,14.22,13.58,21.14,-6.2,18.46,-4.84,11.0,-16.02,24.76,-13.82,4.25,38
-2.63,16.48,13.22,7.57,-7.13,12.21,-6.14,9.99,-16.24,9.03,-6.3,1.81,38
-1.81,15.79,14.73,-5.81,-2.0,-0.83,-5.25,11.92,-16.45,-8.94,-2.73,-0.68,38
-2.33,15.47,14.44,-37.4,17.58,-11.62,-5.32,10.92,-15.68,-47.61,29.79,-6.01,38
-4.92,15.8,14.25,-60.5,10.4,-40.04,-4.82,16.22,-13.89,-99.51,39.11,-6.79,38
-6.32,4.6,17.95,-103.22,-1.12,-52.39,-4.24,17.17,-7.49,-122.71,-5.57,-26.76,38
-5.69,1.67,19.35,-120.75,-15.87,-42.43,-5.65,18.77,-3.83,-140.09,-20.51,-10.3,38
-5.2,-4.15,19.19,-127.39,-14.21,-26.56,-5.95,18.6,3.88,-132.18,-28.71,10.01,38
-2.85,-13.25,18.15,-84.72,-19.34,-13.82,-3.98,14.53,10.36,-72.71,-19.78,8.06,38
-1.04,-16.0,18.19,-40.14,-0.54,-7.76,-3.11,16.13,13.98,-32.08,-9.96,-5.47,38
-3.87,-15.59,15.53,-6.15,9.13,-0.83,-5.0,13.46,14.08,-4.44,-2.34,-14.01,38
-3.68,-13.63,16.31,2.39,-6.2,-4.39,-5.29,14.61,12.75,-0.83,-1.03,8.64,38
-2.25,-14.33,16.89,1.42,-3.71,0.15,-4.2,15.36,13.48,-0.2,-1.17,0.88,38
-2.64,-14.42,16.63,0.59,-2.05,1.12,-4.52,14.73,13.47,-0.29,0.1,-0.2,38
-3.1,-14.46,16.34,0.83,-0.63,1.07,-3.41,15.23,12.95,-0.88,0.0,-0.34,39
-3.15,-14.46,16.22,1.12,-1.86,1.32,-3.32,15.18,13.02,0.29,0.49,0.2,39
-3.25,-14.52,16.13,0.29,-0.63,0.93,-3.39,15.05,13.15,0.2,-0.2,0.1,39
-3.19,-14.47,16.22,0.1,-0.63,0.73,-3.27,15.08,13.21,-0.44,-0.1,0.1,39
-3.28,-14.39,16.24,0.39,1.03,1.37,-3.42,15.07,13.1,-0.29,-0.34,-0.54,39
-3.16,-14.43,16.32,0.73,-1.03,0.98,-3.38,15.16,13.04,0.15,-0.1,0.1,39
-3.15,-14.42,16.41,0.49,-0.2,1.03,-3.42,15.08,12.97,-0.24,-0.44,-0.49,39
-3.05,-14.36,16.39,1.12,-0.98,1.07,-3.52,15.52,12.77,0.24,0.0,0.05,39
-3.53,-15.2,16.36,8.54,7.67,12.4,-2.88,13.28,13.94,21.78,-3.27,2.88,39
-3.63,-13.32,18.56,93.9,11.04,28.03,-3.67,17.84,9.62,83.01,13.09,-13.82,39
-6.71,-10.21,20.66,104.49,24.85,33.64,-4.89,19.17,2.22,131.01,12.21,-16.8,39
-8.14,0.2,17.61,99.61,15.58,35.6,-5.29,15.96,-2.0,115.19,0.83,-22.75,39
-8.19,7.06,15.66,110.45,-3.52,41.8,-4.67,16.66,-7.98,118.85,-8.11,-1.61,39
-4.14,14.21,16.67,72.85,-14.31,56.45,-5.55,15.08,-13.77,65.92,18.95,-4.3,39
-4.28,14.8,14.85,45.07,-23.88,33.3,-4.15,14.3,-14.71,53.08,0.39,11.52,39
-2.89,15.84,15.01,10.2,-9.77,14.99,-4.77,13.1,-16.62,9.08,-3.61,3.76,39
-2.36,15.77,15.02,-16.75,-4.98,0.0,-5.61,11.06,-15.45,-25.63,6.49,-2.39,39
-3.88,12.03,15.37,-28.32,2.39,-17.24,-3.84,12.99,-13.71,-41.31,11.91,-7.42,39
-4.12,12.81,17.01,-26.56,12.21,-27.49,-4.42,15.05,-12.19,-73.83,-0.1,-5.42,39
-7.46,7.6,15.32,-103.76,17.58,-55.42,-5.23,16.49,-7.87,-121.73,-14.26,-8.3,39
-3.54,-13.1,17.24,0.2,-0.1,0.68,-3.95,15.72,12.3,-0.68,-0.34,-0.29,40
-3.54,-13.2,17.2,0.88,-0.78,0.68,-4.0,15.66,12.29,0.2,-0.24,0.2,40
-3.42,-13.05,17.4,0.83,-2.29,0.73,-3.99,15.83,12.24,0.05,-0.29,0.59,40
-3.4,-13.14,17.24,0.54,0.34,0.73,-3.93,15.67,12.16,-0.15,-0.44,-1.17,40
-3.56,-13.29,17.14,-0.15,-0.83,0.68,-3.94,15.43,12.35,-0.59,-0.29,-0.68,40
-3.52,-13.25,17.17,0.05,0.39,0.68,-3.96,15.56,12.37,-0.44,-0.59,-1.07,40
-3.36,-13.12,17.29,1.03,-0.98,0.29,-3.78,15.69,12.26,0.29,-0.68,0.49,40
-4.08,-13.39,17.05,0.88,1.12,1.27,-4.55,15.46,12.65,-0.05,0.05,-2.44,40
-3.16,-13.04,17.53,2.73,-0.78,-0.1,-3.78,15.83,12.11,1.66,-1.27,-0.34,40
-3.53,-13.06,17.41,1.27,0.24,-0.49,-4.07,15.76,12.15,0.24,-0.83,-1.56,40
-3.58,-12.96,17.39,-0.15,-1.27,1.81,-4.2,15.74,12.12,-0.93,0.54,0.1,40
-3.35,-13.07,17.52,1.46,-2.2,0.68,-4.11,15.81,12.15,0.73,0.1,0.68,40
-3.41,-13.19,17.47,0.29,-1.46,0.1,-4.13,15.73,12.25,-0.54,-0.78,0.1,40
-3.45,-13.0,17.85,-1.42,0.0,1.17,-4.39,15.97,11.97,-2.73,0.2,0.24,40
-2.77,-19.25,17.71,45.95,21.29,20.41,-2.34,10.89,13.29,68.21,-4.88,24.56,40
-5.64,-4.24,20.78,107.52,29.35,44.43,-4.61,21.71,2.67,122.7,12.94,3.32,40
-8.55,-2.55,16.1,140.92,31.69,57.47,-4.78,15.77,-3.1,150.39,-0.73,-21.58,40
-7.38,5.16,14.35,122.56,-7.42,64.36,-6.36,12.16,-10.01,137.55,-1.42,-16.85,40
-5.0,14.42,14.29,55.22,-20.21,50.78,-5.89,12.78,-15.16,73.44,0.05,3.61,40
-3.05,14.65,14.31,26.51,-23.24,27.44,-4.98,11.23,-15.53,37.5,-12.06,6.79,40
-4.25,-13.01,17.32,-7.03,-1.81,-1.32,-4.07,16.86,10.2,5.32,3.13,0.05,41
-4.76,-12.59,16.86,5.27,0.34,2.39,-4.27,17.49,9.78,0.68,0.05,-0.05,41
-4.11,-12.27,17.71,-0.49,0.88,-0.05,-4.24,17.24,9.72,-0.78,-0.05,1.32,41
-4.27,-12.44,17.56,4.69,0.93,2.05,-4.08,16.91,10.36,-1.9,-0.15,0.88,41
-4.12,-12.03,18.19,9.08,-7.67,7.13,-4.2,17.14,9.95,-1.51,-1.07,-1.22,41
-4.05,-12.07,17.91,-0.29,-0.93,-1.27,-4.28,17.24,9.94,0.24,-0.05,0.15,41
-4.39,-12.56,17.58,-1.12,-0.1,-0.24,-4.22,16.87,10.16,-4.49,-0.39,0.93,41
-4.42,-11.87,17.72,2.49,-3.56,-1.22,-4.23,16.94,10.29,1.66,0.2,0.39,41
-3.81,-11.85,17.83,-1.07,-0.59,-1.56,-4.02,17.05,10.21,-5.18,3.03,1.95,41
-3.88,-12.97,17.57,-0.73,-0.98,0.24,-4.18,16.16,10.95,-4.15,-1.07,-0.54,41
-3.58,-12.12,18.16,-0.2,3.42,2.88,-4.17,17.62,9.92,0.39,1.76,0.24,41
-4.52,-12.55,17.35,0.2,-0.59,1.27,-4.75,16.64,10.22,-28.71,3.76,8.84,41
-4.09,-12.1,17.72,-1.81,-0.98,-0.49,-3.66,14.15,12.89,-4.93,-2.49,0.88,41
-4.38,-12.9,17.13,-0.05,-0.83,0.54,-3.85,17.05,11.17,2.73,1.66,-3.17,41
-3.9,-12.25,17.75,-0.24,-2.59,-0.44,-4.26,15.3,12.04,-2.64,0.15,-0.63,41
-3.71,-12.81,17.56,-0.93,-0.29,0.0,-3.87,16.37,11.59,-1.07,0.29,1.46,41
-3.96,-12.47,17.45,-0.15,-1.32,0.2,-4.25,15.79,11.87,-0.93,-0.2,-1.56,41
-4.0,-12.83,17.43,-0.29,-1.81,-0.2,-4.21,16.15,11.62,-0.29,-0.05,0.93,41
-3.48,-12.94,17.52,-0.98,-1.9,0.0,-4.04,16.21,11.87,-0.54,0.1,1.22,41
-4.06,-12.58,17.28,-1.47,-0.34,1.12,-4.06,15.68,12.01,-0.88,-0.34,-0.63,41
-6.11,14.34,13.88,50.68,-5.22,39.7,-4.74,11.89,-12.81,67.14,1.86,-8.84,42
-3.53,16.14,16.37,33.98,-22.9,26.37,-4.09,12.45,-15.44,46.73,-6.69,2.2,42
-5.81,15.69,11.24,5.03,-11.77,2.15,-7.22,7.71,-16.41,-0.24,-15.87,-0.49,42
-4.23,16.14,12.17,0.98,-11.52,7.81,-5.97,8.96,-14.73,4.88,4.2,-1.95,42
-3.57,15.44,13.45,-15.72,3.81,-9.96,-5.44,10.45,-15.52,-16.41,2.15,0.49,42
-4.1,19.05,12.97,-88.77,-21.29,-21.87,-3.08,15.46,-13.32,-76.03,25.29,-3.86,42
-4.69,10.09,17.21,-137.6,12.16,-33.59,-1.03,21.77,-7.46,-116.31,-13.04,6.25,42
-4.96,0.15,17.5,-172.66,-33.11,-24.66,-5.07,18.1,-1.67,-174.76,-7.37,24.27,42
-0.66,-13.61,20.21,-124.07,-24.9,-15.87,-2.53,17.69,7.9,-121.34,-15.23,44.24,42
-3.11,-15.77,14.28,-59.03,4.15,0.59,-3.29,10.89,11.2,-71.58,-4.59,-5.86,42
-0.59,-22.04,18.19,-10.21,-4.35,-14.75,-2.17,15.11,15.18,-12.21,-10.21,-9.57,42
-1.69,-17.43,15.22,-6.1,5.76,-6.69,-4.44,11.57,11.09,-17.92,6.84,-13.72,42
-3.71,-15.95,15.14,10.35,-2.25,1.27,-3.52,14.05,13.88,4.59,1.95,-6.25,42
-2.4,-15.21,15.73,-1.27,-5.66,-3.22,-3.51,15.46,13.54,-1.81,-1.12,4.74,42
-2.62,-15.46,15.33,6.54,0.44,0.78,-2.89,14.08,14.14,2.25,-1.37,-4.2,42
-2.56,-14.96,15.63,-2.25,-0.44,-2.15,-3.35,14.94,13.36,-2.88,-2.15,-2.39,42
-2.67,-15.44,15.4,1.22,-0.44,1.03,-3.33,14.15,14.04,-0.59,0.73,-0.93,42
-2.41,-15.02,15.57,1.22,1.56,1.51,-3.13,14.46,13.71,-0.68,0.54,-2.1,42
-2.74,-15.26,15.55,-0.39,-2.34,0.83,-3.41,14.58,14.19,-1.07,-0.83,0.73,42
-2.46,-15.78,15.33,0.1,1.76,1.37,-3.14,14.17,14.14,-1.27,0.34,-2.78,42
-3.01,-15.3,15.56,1.32,-0.44,1.07,-3.92,14.51,14.07,0.34,-0.29,0.24,43
-3.13,-15.21,15.44,0.88,-0.83,0.93,-3.89,14.18,14.09,0.39,-0.39,0.2,43
-3.03,-15.34,15.44,0.98,-1.42,0.73,-3.93,14.37,14.02,0.29,-0.68,0.29,43
-3.13,-15.06,15.5,1.07,-1.03,0.59,-4.06,14.17,14.03,1.51,-1.03,1.46,43
-3.21,-15.08,15.29,1.81,-1.86,0.88,-3.65,14.46,13.73,-0.39,-1.32,-0.49,43
-2.58,-14.73,15.76,0.88,-0.24,0.24,-3.88,14.46,14.34,0.73,-0.49,0.78,43
-3.29,-15.23,15.33,1.46,-0.93,0.88,-3.7,14.43,13.74,-1.03,1.51,-1.51,43
-2.43,-14.9,15.83,0.1,-0.39,2.69,-4.31,13.78,14.12,0.39,0.2,-2.49,43
-3.36,-15.48,15.26,0.05,1.9,1.56,-3.58,15.22,13.9,-0.39,-0.39,-0.88,43
-2.58,-15.15,16.09,0.68,-0.34,-0.29,-4.0,14.38,14.42,0.29,-0.83,0.59,43
-3.54,-15.43,15.32,0.2,-0.49,0.15,-3.75,14.64,13.87,-0.24,-0.73,1.12,43
-2.79,-14.85,15.79,1.12,-1.95,0.54,-4.1,14.27,13.96,0.1,0.0,-0.34,43
-3.2,-15.27,15.49,0.78,-0.49,0.93,-4.46,14.51,13.29,0.88,-0.29,1.32,43
-3.13,-15.3,15.83,1.27,-1.12,0.78,-3.63,12.86,13.85,32.08,5.47,18.6,43
-3.91,-16.53,15.42,25.93,7.52,18.21,-0.98,17.92,12.07,114.26,4.25,2.93,43
-3.49,-16.8,19.19,82.42,14.5,25.44,-4.56,18.29,-0.47,197.12,-20.95,-39.89,43
-5.02,-7.67,19.17,170.75,30.91,33.79,-7.9,13.39,-9.19,161.87,-26.12,-11.47,43
-8.66,3.92,14.45,126.37,17.92,55.08,-4.71,18.05,-12.17,72.36,1.56,3.08,43
-7.91,13.06,14.95,87.94,-7.42,44.97,-6.05,12.78,-13.7,43.26,-2.0,-11.38,43
-5.08,13.53,15.69,45.65,-5.37,38.82,-5.25,13.35,-15.63,22.51,9.23,-7.71,43
-2.09,-15.41,15.48,1.03,-0.29,1.42,-2.17,14.87,13.35,0.05,0.34,-0.93,44
-2.2,-15.23,15.45,-1.07,0.44,0.63,-2.27,14.91,13.22,-1.66,-0.78,-1.27,44
-2.35,-15.25,15.56,0.83,-1.66,0.63,-2.37,15.1,13.3,-0.44,-0.54,0.93,44
-2.01,-15.34,15.74,0.93,-0.93,0.63,-2.28,15.15,13.25,0.49,-0.44,-0.2,44
-2.25,-15.2,15.62,1.17,-0.63,1.27,-2.37,15.07,13.18,0.2,0.2,-0.78,44
-2.14,-15.02,15.9,-0.44,-0.68,0.93,-2.37,15.41,13.16,-1.03,0.0,-0.05,44
-2.25,-14.89,15.48,-1.9,-1.42,0.29,-2.51,15.22,13.16,0.2,0.44,-0.83,44
-2.21,-15.52,15.42,-0.0,0.73,1.07,-2.46,14.73,13.29,-1.17,-0.34,-2.15,44
-2.16,-15.12,15.72,0.49,-0.88,0.68,-2.39,15.3,13.13,-0.88,-0.24,0.39,44
-2.21,-15.56,15.7,1.61,-1.17,0.54,-2.54,15.03,13.47,0.83,-0.34,0.34,44
-2.28,-15.28,15.49,0.83,0.93,0.88,-2.42,14.85,13.15,0.34,-0.88,-1.42,44
-1.99,-15.01,16.58,4.0,1.46,1.81,-2.41,15.27,12.96,6.05,-1.66,2.93,44
-5.27,-16.58,15.19,34.37,25.39,28.32,-1.37,14.46,13.07,36.52,1.56,9.62,44
-5.39,-14.18,18.68,121.04,32.47,37.06,-1.79,18.5,7.43,135.35,-9.18,-26.27,44
-9.24,-3.45,11.38,227.83,35.3,84.81,-3.42,16.57,-2.91,224.85,-19.29,-49.12,44
-9.27,13.21,11.07,118.55,3.03,59.42,-5.78,14.25,-11.94,128.08,-21.19,-21.09,44
-4.06,17.02,15.22,32.96,-13.43,50.98,-6.64,13.19,-16.84,53.95,10.84,0.98,44
-3.88,16.03,14.54,12.01,-1.12,12.7,-7.22,11.62,-17.12,17.63,-20.7,-6.79,44
-4.66,15.76,9.65,-6.74,-0.34,2.29,-9.11,5.84,-13.7,-13.62,-9.91,-3.03,44
-3.13,17.41,14.81,-15.67,0.83,4.98,-7.24,13.88,-15.83,-16.7,27.98,-7.37,44
-3.33,-12.59,17.45,-4.2,-2.54,-0.15,-3.48,16.6,10.24,-5.13,0.98,1.95,45
-3.32,-12.46,17.53,-2.34,-2.78,2.88,-3.49,16.45,10.81,0.34,0.59,1.22,45
-3.01,-13.18,17.2,0.73,-1.32,1.61,-3.74,17.52,10.01,-3.22,0.24,1.03,45
-3.17,-11.95,17.94,-1.61,-2.15,0.49,-3.23,16.59,11.37,-3.17,-1.32,-0.1,45
-3.26,-13.58,16.84,-2.98,-0.59,-1.27,-4.06,14.78,10.27,23.14,-10.89,13.43,45
-2.98,-15.07,17.78,0.73,-3.52,5.32,-2.29,18.16,6.85,116.36,13.18,1.86,45
-3.16,-14.64,19.91,97.31,24.02,39.99,-2.49,23.88,-5.01,215.77,-9.28,-47.07,45
-7.9,4.49,14.19,244.38,49.8,60.16,-3.23,19.91,-9.19,154.1,-65.53,-10.3,45
-9.77,13.83,10.63,151.66,37.79,64.11,-3.27,17.63,-14.35,92.97,-21.78,-0.98,45
-5.82,11.7,15.46,84.47,-19.63,56.15,-6.32,10.28,-13.67,20.75,-4.83,2.0,45
-4.91,15.96,10.96,16.02,-15.72,26.9,-7.75,10.48,-16.56,23.1,7.52,-10.64,45
-1.52,16.85,13.49,21.39,-17.82,35.89,-8.11,7.93,-16.79,-5.96,1.71,-3.22,45
-1.21,16.13,12.02,-4.83,-0.83,4.79,-6.37,10.83,-16.06,-15.77,4.2,1.66,45
-0.12,14.66,14.33,-14.75,4.54,-8.3,-7.54,9.7,-17.14,-53.96,24.22,1.07,45
-1.56,15.7,13.25,-45.8,8.79,-27.59,-4.68,14.0,-12.4,-96.63,30.13,25.63,45
-3.97,9.59,15.5,-96.63,26.81,-62.06,-4.56,16.87,-8.15,-138.67,13.72,3.17,45
-7.04,6.09,16.6,-123.83,11.43,-55.96,-3.38,21.89,-2.85,-194.34,20.85,16.41,45
-5.27,1.29,18.91,-175.0,-19.82,-44.34,-4.34,7.38,6.56,-206.54,10.69,19.38,45
-3.14,-19.19,10.85,-264.75,-33.89,-50.98,2.98,9.37,24.42,58.15,-39.84,-30.57,45
3.67,-34.75,13.49,-32.91,1.37,-65.67,-1.13,12.66,16.57,11.03,-12.16,2.1,45
-4.03,-14.19,16.24,-0.15,-0.15,0.73,-2.87,16.83,12.07,17.58,-2.69,-15.97,46
-3.91,-13.84,16.48,1.51,-0.73,0.73,-3.59,16.89,11.04,-5.08,-5.66,-5.71,46
-3.91,-14.2,16.37,2.0,-0.73,0.83,-3.92,16.45,11.12,-2.39,-4.0,-2.59,46
-3.88,-14.04,16.29,0.05,-0.83,0.78,-4.24,15.45,11.3,3.27,-0.98,-1.61,46
-3.86,-13.96,16.46,-0.0,-0.49,0.39,-4.0,16.96,10.56,-3.42,0.68,0.63,46
-3.75,-13.79,16.54,1.42,-0.98,1.61,-4.02,16.24,11.41,-1.71,0.0,-2.34,46
-3.88,-14.22,16.22,0.98,-0.83,1.27,-4.0,16.42,11.22,0.78,-1.37,1.17,46
-3.89,-14.1,16.49,0.34,-0.63,0.39,-4.17,15.76,11.23,-3.03,0.44,-1.51,46
-3.83,-13.98,16.5,1.12,-0.39,1.32,-4.05,16.59,11.27,-2.2,0.15,-0.34,46
-3.85,-14.17,16.31,0.34,-0.54,0.68,-4.1,16.33,11.35,1.71,-0.2,0.34,46
-3.82,-13.95,16.47,0.98,-0.63,0.68,-4.1,16.17,11.27,0.54,-0.05,0.05,46
-3.84,-14.0,16.42,0.34,-0.49,1.03,-4.16,16.25,11.41,0.63,-0.98,-0.34,46
-3.75,-13.92,16.6,-0.15,-1.17,0.59,-4.01,16.53,11.16,-0.78,0.15,-0.63,46
-3.88,-14.01,16.41,1.17,-0.39,1.32,-4.02,16.28,11.38,0.05,0.15,-0.1,46
-4.11,-14.9,16.48,6.93,-1.9,7.13,-4.12,16.22,11.28,-1.03,-0.54,-0.15,46
-3.87,-13.78,17.11,17.82,2.25,8.45,-4.08,16.36,11.26,1.12,-0.39,0.05,46
-4.48,-13.42,18.01,13.53,0.44,5.52,-4.17,16.49,11.18,-0.63,-0.05,-0.1,46
-5.79,-12.47,17.16,33.54,4.98,37.35,-4.04,16.44,11.42,0.15,-0.39,0.34,46
-6.52,-8.18,19.18,50.54,10.84,26.95,-4.0,16.48,11.39,-3.47,-0.1,1.07,46
-6.14,-7.66,20.84,39.4,10.99,23.19,-4.14,16.17,11.58,0.39,0.24,0.83,46
-4.05,-13.56,16.83,-1.95,1.76,-0.34,-3.29,17.46,10.15,-3.17,-0.78,-1.71,47
-4.3,-13.64,16.69,-0.39,1.17,0.59,-3.41,17.24,10.49,-1.22,-0.98,-0.68,47
-4.3,-13.59,16.69,-3.56,0.73,-0.15,-3.39,17.45,10.26,-7.57,0.1,-2.98,47
-4.37,-14.08,16.33,-0.29,-2.25,0.83,-3.47,16.88,10.57,-1.27,0.44,0.63,47
-4.46,-13.56,16.38,-1.07,-0.05,1.81,-3.61,16.76,10.64,-1.56,-1.46,-0.88,47
-4.08,-13.86,16.44,-0.54,-1.27,0.0,-3.44,16.86,10.57,-3.08,-0.59,-1.07,47
-4.38,-14.03,16.15,-3.17,-1.27,-0.93,-3.77,16.58,10.86,-3.76,-0.93,-2.25,47
-4.22,-14.46,16.3,0.39,-0.68,-0.05,-3.63,16.7,11.1,-1.42,-0.29,-0.15,47
-4.16,-13.8,16.34,4.39,-0.63,-0.68,-3.14,17.07,11.11,3.56,-2.39,2.64,47
-4.24,-14.03,16.23,-3.27,-0.34,0.1,-3.44,16.78,11.04,-3.66,-1.17,-1.66,47
-3.92,-13.87,16.34,-9.28,-3.86,0.2,-3.11,17.3,11.29,-8.2,0.98,2.73,47
-3.79,-14.7,16.67,-2.39,-3.52,4.1,-4.01,16.42,10.73,-1.61,3.22,3.61,47
-4.13,-20.06,15.91,62.35,12.89,24.22,-3.2,14.19,11.56,56.93,0.68,-4.39,47
-5.32,-10.38,18.79,138.23,38.28,27.15,-4.07,19.58,4.2,120.8,-16.41,-14.79,47
-8.72,-4.38,17.46,89.84,20.36,43.12,-6.85,16.33,0.13,87.65,13.23,-13.62,47
-8.58,5.82,17.21,100.0,8.89,45.36,-5.94,18.96,-6.35,102.15,11.91,-8.35,47
-7.42,7.81,16.65,101.86,4.1,63.72,-3.82,16.47,-9.0,114.79,3.81,-13.38,47
-5.63,17.09,14.99,65.33,-16.85,42.14,-2.81,17.02,-12.01,89.01,-31.98,8.45,47
-3.7,16.53,14.0,26.12,-11.96,25.44,-6.81,12.89,-16.22,29.69,-32.23,-10.94,47
-3.35,14.28,14.53,6.79,-5.57,11.18,-7.28,11.86,-16.51,6.98,-3.71,-5.66,47
-3.77,-14.78,15.73,2.78,-0.29,0.88,-4.26,15.72,12.1,1.07,-0.05,0.34,48
-3.75,-14.77,15.87,2.15,-0.73,1.07,-3.62,16.46,12.95,18.21,0.24,4.98,48
-4.18,-13.46,16.6,15.33,-4.59,5.08,-3.95,17.44,10.81,-4.49,-1.56,-2.0,48
-3.56,-13.56,16.89,-9.91,-0.68,-1.81,-4.44,14.71,12.26,-4.2,-1.9,-1.76,48
-4.18,-15.39,15.27,1.32,-2.1,0.1,-3.88,16.91,11.71,3.71,1.95,2.25,48
-3.45,-13.38,17.16,3.95,-1.95,3.13,-4.18,15.92,11.97,-2.93,-1.71,-1.42,48
-3.72,-13.71,16.2,-2.25,-0.59,-2.1,-4.3,16.27,11.98,-9.28,-3.61,-4.1,48
-3.62,-15.14,16.49,-9.33,1.42,-5.08,-2.77,13.73,12.08,47.27,-9.96,9.47,48
-3.94,-18.61,15.75,53.81,17.87,22.31,-5.77,17.33,3.37,117.77,20.85,-18.36,48
-9.2,-11.63,16.74,124.66,41.26,56.98,-4.71,18.32,-1.95,122.8,8.84,-8.25,48
-10.13,-0.75,17.15,103.52,26.46,51.61,-5.54,15.25,-10.76,135.35,-0.49,6.59,48
-9.44,6.05,14.37,112.45,19.58,65.23,-3.39,14.06,-14.84,75.88,15.77,22.02,48
-6.04,13.12,15.84,42.19,-14.11,58.35,-3.2,11.05,-15.4,48.1,-13.09,0.88,48
-6.57,13.21,13.36,40.62,-30.18,29.1,-4.56,10.0,-16.88,16.31,-10.94,-1.61,48
-4.96,14.04,13.31,14.06,-12.4,14.36,-4.23,8.48,-14.81,12.94,-11.57,4.79,48
-4.18,14.94,12.64,13.04,-11.67,11.82,-5.46,7.73,-15.7,1.66,-19.97,-2.69,48
-4.21,16.02,11.84,1.42,-6.3,8.4,-4.89,10.01,-17.57,-7.37,0.24,-0.49,48
-2.62,16.52,13.92,-9.33,-0.54,-2.1,-5.23,7.88,-16.26,-48.19,14.5,-10.06,48
-4.69,16.08,11.79,-38.92,16.16,-27.73,-4.44,14.22,-15.48,-122.71,-1.12,17.24,48
-6.44,7.35,17.4,-121.88,-27.15,-94.97,-3.82,15.71,-7.67,-177.98,-5.76,-3.22,48
-3.83,-13.42,16.84,-0.68,-1.42,-0.39,-3.62,16.51,10.24,-0.83,0.2,-1.27,49
-3.55,-13.4,17.03,0.63,-1.12,-0.44,-3.38,16.84,10.71,-2.73,0.54,-1.46,49
-3.61,-13.43,16.78,-0.44,-1.37,0.29,-3.36,17.03,10.76,-3.13,0.44,-2.34,49
-3.09,-13.95,17.19,-8.3,-10.06,-3.76,-3.54,16.88,10.79,0.54,-0.39,0.39,49
-3.23,-13.7,16.69,2.34,0.29,0.83,-3.74,16.39,10.88,-1.22,0.15,-0.54,49
-3.22,-13.89,16.64,0.68,-0.29,1.03,-3.67,17.14,10.68,-0.93,0.1,-0.98,49
-3.14,-13.32,17.02,0.83,-0.24,0.68,-3.63,16.8,10.93,0.24,0.24,0.24,49
-3.17,-13.83,17.11,1.03,0.05,1.71,-3.48,16.7,11.12,-0.73,1.07,1.22,49
-3.1,-14.37,16.89,1.46,1.51,5.08,-3.81,16.45,10.77,6.25,4.05,-0.34,49
-3.73,-13.15,16.57,9.52,0.78,3.52,-3.65,16.91,10.13,7.81,1.76,-1.17,49
-3.65,-13.45,17.32,8.89,2.29,5.32,-4.03,17.09,9.67,5.08,1.71,0.2,49
-4.22,-12.18,17.24,4.64,-0.2,2.59,-3.8,17.24,9.81,3.32,1.66,-0.05,49
-4.03,-12.7,17.62,5.13,0.24,3.27,-3.66,17.39,9.65,13.28,2.39,0.98,49
-4.09,-13.42,18.05,15.77,1.37,7.42,-3.25,17.11,8.99,44.73,15.04,0.29,49
-4.74,-13.15,18.75,61.52,16.75,36.91,-4.4,23.19,1.52,115.58,-8.01,-12.79,49
-7.03,-2.17,19.8,110.06,14.21,24.02,-4.6,17.23,-2.19,127.34,9.77,2.2,49
-8.19,1.03,17.11,118.9,10.99,58.2,-4.01,15.12,-8.46,109.91,11.43,5.13,49
-6.95,5.72,16.44,90.72,-12.79,58.79,-2.61,17.15,-14.33,76.9,-13.72,14.45,49
-2.56,14.13,18.98,51.22,-25.29,36.43,-2.21,14.02,-14.93,56.15,-18.6,-0.1,49
-3.33,13.49,16.56,49.02,-17.43,24.02,-5.0,9.05,-16.36,35.3,-0.39,10.79,49
-0.61,-16.32,14.42,-0.34,-0.78,-0.54,-3.73,14.17,14.35,-0.24,-2.25,0.59,50
-0.79,-15.97,14.67,-2.59,2.34,3.61,-4.19,13.7,13.74,-1.51,0.15,-2.59,50
-1.04,-16.57,14.23,-1.81,-2.64,0.88,-4.08,13.46,14.15,-2.69,1.42,0.98,50
-1.0,-16.19,14.34,-1.37,0.05,0.68,-4.17,13.96,14.39,-2.05,0.39,-2.69,50
-1.1,-16.51,14.43,0.39,-0.2,0.83,-4.19,14.04,14.36,0.15,-1.07,0.0,50
-0.82,-16.29,14.58,0.1,-2.88,0.93,-4.14,14.29,14.18,-0.88,0.2,-0.05,50
-1.05,-16.36,14.24,-0.34,-1.37,1.12,-4.22,13.94,14.32,-0.98,-0.15,-0.83,50
-1.04,-16.4,14.21,0.73,-0.1,1.56,-4.12,14.12,14.33,0.05,0.24,0.54,50
-1.18,-17.71,13.72,1.37,-0.54,6.4,-1.07,12.45,16.4,36.38,-15.53,39.26,50
4.74,-17.38,21.64,48.97,-26.27,82.08,-4.23,15.91,9.51,77.69,11.04,-6.2,50
-6.23,-9.79,16.53,153.17,9.08,44.38,-2.71,16.58,3.65,139.21,14.89,-7.81,50
-4.11,-2.49,19.72,63.23,-26.22,5.57,2.19,24.11,-1.74,71.92,-15.43,33.5,50
-3.08,-0.3,19.92,123.63,-12.6,10.79,0.2,19.62,-7.56,129.25,-33.59,-8.2,50
-1.71,6.46,19.29,100.68,-16.06,18.8,-2.01,15.85,-12.02,96.97,-22.66,-13.96,50
-2.37,10.79,16.87,70.65,6.84,0.49,-0.62,16.26,-13.85,62.5,-21.24,-0.05,50
-2.16,11.29,17.02,34.86,0.73,7.42,-2.68,12.11,-14.9,32.57,-17.09,-6.93,50
0.04,12.15,14.95,13.18,-42.68,30.57,-3.9,12.78,-16.89,34.72,6.45,21.14,50
0.18,16.03,13.86,6.64,-18.9,25.93,-4.72,9.72,-17.92,9.33,-1.71,6.2,50
0.65,14.49,14.48,-9.33,-0.98,-0.98,-2.89,11.3,-16.19,-16.21,6.88,2.44,50
1.92,13.23,17.7,-53.81,14.45,-20.12,-0.73,14.83,-15.31,-66.55,33.69,-11.67,50
