ACC-X-Ring1,ACC-Y-Ring1,ACC-Z-Ring1,GYRO-X-Ring1,GYRO-Y-Ring1,GYRO-Z-Ring1,ACC-X-Ring2,ACC-Y-Ring2,ACC-Z-Ring2,GYRO-X-Ring2,GYRO-Y-Ring2,GYRO-Z-Ring2,TEST
0.05,-8.0,20.12,0.24,-0.73,-0.34,2.34,18.29,6.07,1.03,-2.0,-0.39,1
0.01,-7.66,20.09,1.66,1.42,0.39,2.44,18.47,5.82,1.22,-1.27,-0.15,1
0.09,-8.01,19.91,1.71,-0.34,0.54,2.5,18.38,6.08,0.83,-0.49,0.78,1
0.11,-7.84,20.26,0.2,-0.29,1.9,2.45,18.47,5.93,-0.78,1.66,-0.2,1
0.06,-7.88,20.14,-2.05,-0.78,2.15,2.28,18.58,6.04,-3.17,2.25,0.54,1
0.16,-8.07,20.2,-3.47,-1.81,1.71,2.38,18.28,6.16,-3.52,2.44,-0.39,1
-0.06,-8.1,20.61,-5.27,7.86,2.88,2.17,18.65,6.24,-1.17,1.95,-0.1,1
-1.52,-8.2,20.36,1.07,28.56,11.52,1.95,19.63,5.64,5.57,2.69,-5.66,1
-3.03,-8.0,19.27,4.64,11.67,7.08,1.58,18.42,5.58,4.64,1.32,-6.25,1
-2.55,-8.65,20.72,6.64,0.29,2.83,1.31,19.04,5.49,4.64,2.59,-3.56,1
-3.64,-7.75,19.67,8.54,4.35,2.59,1.09,19.05,5.07,5.47,2.49,-2.25,1
-3.85,-7.25,19.95,9.91,5.57,0.88,1.26,19.18,5.2,7.18,-1.12,-3.56,1
-3.66,-6.74,20.51,11.91,-5.37,-2.34,1.3,19.16,5.02,5.27,10.84,-13.48,1
-3.62,-7.12,20.68,4.69,-1.03,0.24,-0.18,18.99,4.18,1.46,18.07,-5.18,1
-3.5,-6.76,20.31,2.1,-2.0,-1.66,-0.1,19.11,4.66,-1.12,-0.59,-1.12,1
-3.46,-6.25,20.54,-2.0,-3.56,-1.07,-0.08,19.19,4.39,-4.2,-2.54,2.83,1
-3.41,-6.12,20.01,-2.78,-6.01,-0.54,-0.2,18.48,4.16,-6.05,-0.68,2.83,1
-3.1,-6.84,19.68,0.2,1.61,2.1,-0.05,17.84,4.41,-1.42,1.42,-2.49,1
-3.28,-6.73,20.66,-2.1,1.17,1.22,-0.0,19.11,4.73,-1.86,1.76,-2.59,1
-3.0,-6.76,20.89,2.0,-3.22,2.34,-0.07,19.54,4.69,-0.39,3.42,2.69,1
11.84,-1.86,14.63,-1.07,-46.83,-4.79,-4.72,18.34,5.66,3.66,-7.23,-3.91,2
14.86,-1.49,13.4,8.2,-35.3,-3.17,-4.66,18.14,5.62,-0.93,-7.03,1.51,2
16.21,-1.4,12.43,0.1,-13.62,-0.63,-4.73,18.42,5.23,0.59,-3.22,-0.34,2
15.4,-1.59,11.61,-1.66,-2.59,1.66,-4.38,18.78,5.97,5.57,8.89,-1.61,2
19.18,-2.17,16.2,4.69,89.84,5.47,-6.54,16.22,2.64,-16.46,18.26,-6.4,2
9.77,-2.36,16.86,-18.21,178.42,24.76,-5.03,16.92,5.74,-4.39,2.44,12.7,2
3.03,-4.47,20.38,-60.89,143.16,-24.27,-4.76,15.48,5.67,-4.3,-1.12,17.58,2
-4.97,-6.99,17.89,-54.98,83.94,-22.02,-2.03,20.72,6.23,2.44,-13.53,6.49,2
-6.03,-8.28,18.3,4.2,-4.79,0.0,-2.53,17.6,4.41,-4.25,-33.01,22.56,2
-4.87,-9.1,18.43,2.59,-15.53,0.88,0.81,20.89,6.62,6.93,-16.89,43.31,2
-4.93,-7.91,20.84,0.98,-15.92,5.52,1.44,20.3,5.47,-1.12,-5.76,0.73,2
-4.38,-8.71,19.3,-6.05,-0.59,-3.08,1.6,20.59,5.48,2.88,-4.2,1.07,2
-4.31,-8.49,19.63,1.07,-2.93,1.03,1.4,18.68,5.35,-3.22,-0.29,2.34,2
-3.97,-8.96,19.65,-4.69,-0.49,0.1,1.73,19.38,5.47,-1.17,0.0,3.52,2
-3.62,-8.51,20.19,1.42,-4.44,0.68,1.51,18.4,5.37,-0.39,0.39,1.07,2
-3.65,-8.87,19.44,2.69,-3.47,0.44,1.67,18.6,5.44,-2.88,0.49,0.98,2
-3.34,-8.96,19.65,1.61,-8.06,0.05,1.71,18.76,5.56,-2.0,0.34,2.49,2
-1.92,-8.06,22.15,1.32,-9.81,0.05,1.81,18.65,5.74,-0.93,0.05,1.42,2
-2.74,-8.49,19.69,3.56,-6.64,0.34,1.83,18.63,5.55,-1.47,0.05,0.83,2
-2.39,-8.15,19.82,2.64,-4.3,1.61,1.81,18.47,5.51,-1.27,0.63,1.22,2
-0.92,-6.94,7.88,80.91,-151.71,11.77,-2.4,18.26,5.37,-5.03,-3.96,-6.84,3
14.53,-1.24,18.37,57.81,-201.95,8.5,-2.05,19.98,7.36,-0.34,-12.79,-0.44,3
14.98,-1.88,13.57,20.21,-14.31,2.15,-2.39,18.13,6.62,-3.32,-9.28,2.98,3
14.84,-1.37,12.73,-7.08,-7.47,4.44,-2.02,18.01,7.24,-1.03,-2.59,0.39,3
15.59,-1.36,12.4,1.27,-4.54,2.93,-1.97,18.45,6.6,2.1,-0.34,0.0,3
15.77,-2.13,12.15,-0.39,-2.59,0.83,-2.5,18.29,5.51,-0.15,0.2,0.05,3
15.54,-2.06,12.38,-19.82,3.86,3.96,-2.28,19.06,5.8,1.81,2.93,-0.05,3
14.7,-2.53,12.05,-3.81,12.89,0.05,-2.15,18.87,6.34,-1.17,-1.71,0.63,3
14.88,-2.39,13.39,4.1,-2.25,0.93,-1.95,18.89,6.6,-0.05,0.59,-0.05,3
15.11,-2.54,13.72,-2.98,2.0,0.0,-1.96,18.1,6.32,-4.54,0.88,3.32,3
14.48,-1.54,16.94,-17.43,137.01,-5.66,-2.03,15.85,6.5,-4.88,0.73,-0.83,3
12.2,-0.59,24.13,-38.38,167.92,1.66,-1.3,19.79,6.66,0.05,-4.79,7.57,3
-0.53,-6.83,17.52,-68.12,108.94,-10.11,-0.96,19.44,6.08,0.2,-4.64,3.86,3
-2.31,-7.95,19.36,-7.08,15.28,0.68,-1.02,19.72,6.48,1.9,-3.47,3.52,3
-2.98,-8.69,19.01,3.91,-2.78,0.39,-1.02,19.1,6.21,-0.1,-2.69,1.03,3
-2.72,-8.45,19.47,-6.69,4.83,-5.76,-0.89,18.59,6.3,-1.07,-0.34,0.34,3
-2.52,-8.79,19.59,1.95,-0.39,1.37,-0.56,19.0,6.81,1.61,15.58,0.24,3
-2.45,-8.77,19.57,1.76,-2.29,1.27,-1.1,19.56,6.83,-0.1,-0.78,1.12,3
-2.54,-8.69,19.41,1.46,0.2,-0.83,-0.56,18.94,6.36,0.34,-2.34,5.27,3
-2.52,-8.62,19.5,5.27,-1.86,2.05,-0.4,18.64,6.32,-0.93,-0.2,2.34,3
14.7,0.66,15.53,-3.76,-49.71,1.81,-4.85,18.81,6.36,-2.44,-4.93,3.42,4
14.43,0.04,13.11,-5.47,-22.31,1.56,-4.62,19.04,6.58,-0.93,-2.98,2.93,4
15.92,-0.0,13.15,-2.83,-10.06,0.88,-4.82,18.56,5.99,-0.15,-0.98,1.22,4
15.49,-0.27,12.31,-0.34,-3.61,0.78,-4.61,18.85,6.81,0.49,0.1,0.44,4
15.85,-0.31,12.59,-0.05,1.12,0.59,-4.5,18.11,6.82,-1.42,-1.66,2.05,4
15.92,-0.52,13.51,5.27,11.38,0.83,-4.71,18.69,5.86,-2.98,-1.42,-3.66,4
13.5,2.79,12.13,8.5,32.71,4.39,-5.29,18.48,6.12,0.73,-1.61,-4.35,4
13.81,0.15,16.6,3.22,2.98,1.17,-4.88,18.38,7.15,-1.07,0.2,-0.49,4
15.0,-0.84,16.39,-2.15,9.33,2.39,-6.35,17.62,5.06,-7.23,2.25,14.89,4
9.61,0.69,16.28,-44.14,198.05,11.82,-4.77,18.42,6.44,-4.83,-8.89,5.91,4
0.72,-2.44,19.23,-17.38,91.94,7.37,-4.93,18.42,6.19,4.74,-0.44,-7.37,4
-4.92,-5.51,19.36,-15.82,55.96,-1.17,-5.0,18.03,6.41,-1.07,0.0,2.1,4
-6.81,-5.76,18.89,-2.3,4.44,-4.83,-4.92,19.36,6.57,-0.78,-0.1,3.56,4
-6.61,-5.68,21.22,-13.09,32.67,3.66,-5.08,17.52,5.83,-2.64,-1.95,-0.1,4
-6.34,-6.71,21.05,-7.13,10.25,-6.74,-4.68,18.59,6.64,0.78,-2.2,0.73,4
-6.87,-5.96,21.58,0.93,-5.71,-3.81,-5.24,18.35,5.88,0.29,-0.44,1.66,4
-7.7,-6.36,19.89,7.81,-6.54,1.86,-4.9,18.65,6.28,1.81,1.22,-0.24,4
-7.58,-6.58,20.07,-2.34,-0.05,-4.98,-4.97,17.66,5.93,-1.12,-1.37,1.32,4
-7.57,-6.43,19.6,0.24,-1.66,-1.71,-4.68,18.38,6.39,0.05,-1.46,1.56,4
-7.37,-6.62,19.86,1.95,-5.47,-2.73,-4.65,18.66,6.23,-0.73,-0.63,0.0,4
12.07,1.37,17.28,4.98,-31.1,2.39,-6.87,19.05,3.74,-1.42,-0.73,0.34,5
13.32,2.03,16.42,2.0,-9.33,-0.15,-6.49,18.81,4.48,-1.03,-3.27,4.39,5
12.04,1.31,15.32,-2.73,-7.47,0.93,-6.6,18.3,3.84,-1.86,-1.17,2.54,5
13.46,1.7,15.67,-0.49,1.56,1.07,-6.72,18.26,3.86,-0.54,1.61,-2.44,5
12.66,1.6,15.58,1.42,2.59,0.78,-6.52,18.81,4.11,-1.76,-0.63,-0.68,5
13.45,1.27,15.74,0.78,1.12,1.56,-6.53,18.43,3.92,-1.56,-0.29,1.27,5
11.43,1.42,15.55,-3.76,3.52,1.56,-6.14,19.1,4.67,-0.54,0.2,-2.39,5
11.77,1.48,16.03,-4.83,14.36,0.83,-6.52,19.15,3.99,-1.61,-1.81,4.1,5
11.42,1.18,16.95,-9.18,22.17,-1.76,-6.58,18.25,4.0,-0.88,-0.63,2.49,5
9.62,0.67,18.91,-19.43,52.83,-4.83,-6.41,18.26,4.19,-0.68,-0.34,-0.73,5
4.9,0.36,19.5,-16.5,75.88,2.83,-6.06,18.88,4.65,-0.68,-0.98,1.03,5
0.01,-2.66,17.43,-71.63,141.06,-14.7,-6.43,18.85,3.96,-0.73,-0.63,1.51,5
-3.81,-4.1,21.02,-38.67,74.76,-7.28,-6.42,18.32,4.01,-0.39,0.0,1.17,5
-8.77,-7.88,16.17,-21.24,47.36,-5.08,-6.42,18.58,4.14,-0.54,0.2,-0.24,5
-7.12,-6.45,21.13,-1.71,3.37,0.44,-6.34,18.43,4.11,-0.44,-0.39,-0.05,5
-7.23,-5.73,20.32,1.9,-6.3,-1.61,-6.31,18.8,4.15,-0.34,-0.29,0.15,5
-7.62,-6.5,19.25,2.88,-5.57,0.05,-6.34,18.65,4.26,-1.17,-0.34,0.78,5
-7.25,-6.53,18.93,11.82,-17.87,-0.05,-6.09,18.77,4.06,-0.0,-0.68,0.98,5
-6.7,-6.61,20.15,-9.62,-0.44,-2.25,-6.28,18.63,4.19,-0.88,-0.39,1.61,5
-6.96,-5.58,19.6,7.32,-5.18,0.59,-6.13,18.75,4.31,-0.93,-0.1,0.98,5
7.26,1.61,18.11,7.62,-46.68,5.13,-7.53,19.3,3.51,-4.1,-1.42,6.59,6
10.58,1.97,16.1,11.23,-45.7,6.74,-6.64,18.27,5.16,-7.57,-5.66,5.32,6
13.5,1.95,16.34,-2.93,-39.6,3.61,-7.53,17.31,3.83,-8.59,-3.71,5.57,6
14.16,1.33,14.55,-2.69,-32.37,1.32,-6.76,18.0,4.13,-7.03,-5.91,12.26,6
15.12,1.27,13.57,-0.54,-20.9,-0.93,-5.85,19.61,4.9,-2.05,-3.81,8.45,6
14.73,1.08,12.59,-0.54,-9.28,0.88,-4.17,19.28,5.27,2.29,0.44,4.83,6
15.39,1.42,12.66,0.54,-6.59,0.68,-5.78,18.46,4.29,-0.54,1.56,4.79,6
15.91,1.35,12.26,2.44,-7.28,0.83,-5.86,17.72,4.12,-2.59,-0.49,5.57,6
15.42,0.99,11.5,0.78,-14.26,1.76,-4.79,19.82,4.78,-0.73,0.05,8.01,6
14.98,1.25,11.07,2.64,-8.15,3.22,-4.7,19.25,4.64,-0.93,-1.07,10.21,6
15.37,1.34,10.58,2.69,-14.6,3.76,-3.41,20.24,5.59,-1.9,-4.3,16.31,6
18.04,1.95,10.7,-3.08,-1.71,2.29,-3.5,18.98,5.24,2.78,0.88,-5.42,6
18.43,1.2,13.48,-37.21,108.25,1.46,-5.34,16.84,3.4,8.98,9.18,-29.98,6
9.29,-0.37,18.57,-13.87,144.78,3.66,-5.15,19.49,3.8,-0.44,9.08,2.25,6
2.05,-1.65,16.12,-78.76,215.33,-14.7,-5.43,18.9,3.48,-0.15,1.61,0.05,6
-6.12,-5.85,18.35,-30.86,57.96,-4.79,-5.0,20.73,4.37,5.91,-1.86,2.78,6
-8.24,-6.26,19.18,-9.47,27.29,3.91,-5.5,18.83,3.53,0.68,-1.27,-1.22,6
-10.32,-6.6,15.23,6.4,-13.82,-1.42,-5.39,19.41,4.05,-2.88,-5.42,21.09,6
-8.77,-6.21,20.01,4.39,-1.9,0.78,-5.05,18.11,3.81,-1.86,-1.86,2.49,6
-8.61,-6.49,20.57,0.68,5.62,0.1,-4.93,18.4,3.62,-0.15,1.66,-1.95,6
13.58,-0.05,16.12,6.69,-60.99,-1.76,-7.34,19.14,1.76,-9.52,-2.64,17.19,7
15.18,2.33,13.43,8.35,-42.97,2.25,-6.57,20.03,3.19,-2.15,-1.56,-0.15,7
16.92,1.46,11.98,4.64,-11.82,2.29,-5.83,21.35,3.88,0.15,-6.69,3.61,7
17.04,1.91,10.99,0.24,-3.47,0.44,-6.42,19.37,2.78,-1.07,0.24,2.29,7
16.77,1.69,10.89,1.66,-1.17,1.76,-6.51,19.18,2.7,0.83,-0.24,1.42,7
16.31,1.84,10.78,-0.93,-2.1,1.03,-6.37,19.45,2.73,-0.39,-0.24,1.61,7
16.24,1.69,10.83,0.1,-1.81,0.54,-6.37,18.73,2.71,-1.42,-4.74,2.44,7
16.23,1.5,10.79,0.78,-2.05,1.07,-6.43,18.61,2.32,-0.88,0.59,-0.05,7
16.02,1.71,10.79,-1.17,-2.93,2.1,-6.5,19.1,2.42,-0.44,0.44,1.32,7
16.0,2.02,10.66,2.83,-1.03,0.93,-6.2,19.17,3.15,0.59,0.68,0.98,7
16.46,1.45,10.81,0.1,-1.51,0.78,-6.37,18.65,2.53,0.63,0.54,0.98,7
15.93,1.68,11.04,-9.33,5.62,2.69,-6.55,18.94,2.41,2.69,0.39,-6.88,7
19.29,-0.98,16.0,-49.71,102.15,1.32,-7.8,14.02,1.03,-7.96,6.98,0.68,7
5.18,2.76,21.19,0.63,242.58,21.58,-6.51,20.14,2.9,-0.39,4.39,-2.78,7
-4.1,-4.22,18.11,-42.48,102.54,-4.69,-6.72,18.41,2.15,-1.95,-1.22,2.54,7
-9.16,-5.51,16.55,-36.13,62.11,-8.79,-5.63,20.81,3.31,0.54,-5.22,14.7,7
-8.32,-6.42,20.21,12.94,-13.82,-0.98,-6.11,19.08,2.92,-0.34,-2.59,2.15,7
-8.6,-5.74,19.22,1.86,1.46,-1.76,-6.06,17.95,2.73,0.63,2.49,-3.76,7
-9.24,-6.56,17.76,-2.54,2.98,-1.32,-6.08,18.52,2.59,-1.42,1.32,-2.78,7
-8.81,-6.57,18.85,-0.88,0.54,2.25,-5.56,20.16,3.59,-0.29,0.93,-2.83,7
6.48,-0.16,12.2,-3.91,-67.04,1.51,-5.66,23.29,6.7,-0.63,-9.28,13.53,8
18.95,3.66,11.11,10.01,-39.11,-0.05,-7.53,18.59,5.22,-0.24,-9.47,5.47,8
20.97,1.99,10.11,1.9,-10.74,-1.32,-6.09,18.55,4.68,0.1,-1.51,-1.12,8
17.46,1.43,9.19,1.51,0.29,1.17,-6.53,18.02,4.32,2.1,-1.51,1.27,8
16.72,1.36,9.01,-1.47,-0.2,1.86,-6.06,18.7,4.42,3.22,2.39,-0.49,8
17.18,1.53,9.2,-1.12,-1.56,1.9,-5.82,18.83,4.54,1.17,-0.68,3.96,8
17.25,1.42,9.36,-3.17,0.2,2.78,-6.23,18.31,3.4,2.34,5.62,1.61,8
17.25,1.32,9.33,0.2,1.17,1.17,-5.65,20.05,4.38,12.3,3.22,-6.59,8
17.07,1.13,9.69,1.03,7.42,2.34,-6.57,18.14,3.23,1.17,1.51,0.98,8
18.68,1.42,14.35,-34.67,112.35,4.39,-6.21,19.39,3.75,2.93,5.47,-8.4,8
11.32,0.66,18.94,8.89,145.65,19.04,-6.53,18.79,3.85,-1.86,-0.05,12.5,8
3.18,2.03,16.95,-84.42,279.83,-17.33,-6.75,16.38,2.2,-4.69,-8.2,12.94,8
-6.33,-6.01,19.54,-27.05,60.89,-3.86,-5.44,18.49,4.01,-2.93,-1.71,0.63,8
-5.1,-5.23,20.53,37.5,-86.47,-15.87,-4.93,18.53,4.45,-2.0,-2.05,-3.37,8
-3.8,-3.6,20.96,8.69,-24.17,-2.98,-5.03,19.63,3.65,0.44,4.1,-1.07,8
-4.03,-4.55,19.88,-2.93,-2.29,-1.07,-4.97,19.09,3.86,-2.59,-0.98,3.37,8
-4.24,-4.01,20.05,-3.56,8.2,3.32,-5.07,18.91,4.04,-2.54,-1.56,3.03,8
-2.62,-3.68,22.9,-0.05,2.59,1.42,-5.17,18.9,3.56,-0.63,-0.54,-0.98,8
-3.13,-4.17,21.54,3.76,-9.08,-1.9,-5.14,19.38,3.81,-0.49,0.24,-1.81,8
-3.62,-4.07,20.5,0.49,-1.37,0.15,-5.21,18.9,3.81,-0.49,0.15,-1.86,8
21.83,2.06,11.0,18.65,-55.62,-9.13,-7.17,26.91,6.07,-5.62,-5.32,48.78,9
17.96,0.02,9.47,-0.73,-13.23,-5.18,-7.48,19.53,4.84,-2.05,-12.65,13.38,9
16.77,0.6,8.71,-0.39,-10.64,1.46,-6.81,18.29,4.26,-2.0,-7.37,6.64,9
18.09,1.06,8.44,1.17,-5.42,-0.2,-6.03,19.54,4.62,2.69,-2.78,4.79,9
17.02,0.11,8.13,0.88,3.66,4.0,-6.45,17.63,4.54,0.24,2.15,-4.69,9
17.55,0.79,8.73,-4.59,4.1,0.15,-6.44,17.57,3.93,5.18,-1.71,1.46,9
17.6,0.25,10.83,-15.48,77.59,2.2,-6.44,18.2,3.03,7.62,-2.25,-6.49,9
14.65,-0.3,13.83,-0.88,56.45,5.96,-6.04,17.96,4.47,2.98,-8.54,-0.68,9
9.29,-0.48,17.01,-13.33,95.56,5.66,-6.47,18.19,3.4,-0.63,0.24,-0.68,9
5.38,-1.34,19.27,-35.25,138.82,1.56,-6.24,18.31,3.11,-2.83,2.69,5.03,9
-0.82,-3.99,21.31,-32.03,74.46,-2.98,-6.14,18.29,3.44,-1.32,2.1,7.37,9
-4.65,-5.31,19.52,-7.86,16.99,0.15,-5.8,18.55,3.49,-1.71,1.42,1.42,9
-2.43,-4.87,22.47,18.85,-39.01,-4.88,-5.6,18.9,3.81,0.44,-3.71,6.45,9
-3.25,-5.28,20.21,-3.22,-1.95,-0.44,-5.5,18.43,3.64,-1.95,-1.9,-0.44,9
-2.36,-5.46,21.06,1.81,-6.1,-0.2,-5.51,18.33,3.72,-0.88,0.49,1.22,9
-2.35,-5.25,20.86,1.51,-2.78,0.63,-5.26,18.58,3.97,-0.98,0.34,0.15,9
-2.05,-5.08,21.67,2.93,-2.73,0.0,-4.99,19.4,4.42,-0.2,-1.12,3.47,9
-2.48,-5.52,20.88,1.22,-2.39,-0.68,-5.1,18.95,3.99,-0.63,-1.03,3.32,9
-2.55,-5.07,21.25,-0.88,-1.81,0.44,-5.18,19.2,3.79,-0.93,0.78,0.44,9
-2.19,-5.61,21.14,-0.0,-2.49,-0.2,-5.12,18.87,4.24,-1.03,0.0,1.66,9
15.81,-1.43,10.42,-3.03,-35.16,3.52,-5.74,16.97,5.41,-12.16,3.32,-8.06,10
17.86,-2.49,8.69,0.24,-19.14,-0.88,-4.22,18.5,7.44,-7.23,-16.75,13.67,10
17.99,-1.91,8.02,0.98,-5.91,-0.05,-3.97,18.63,7.13,-1.95,-1.42,4.83,10
18.06,-2.62,7.59,0.34,-6.35,0.73,-3.67,18.3,7.82,-2.25,-1.42,3.22,10
17.72,-2.09,7.45,0.49,-3.91,1.27,-3.47,18.38,7.69,-1.9,-2.0,2.1,10
17.74,-2.31,7.58,-0.78,-0.63,0.54,-3.52,18.38,7.73,0.49,-2.15,0.29,10
17.95,-2.22,7.65,-1.07,0.34,2.78,-3.69,18.49,7.33,0.15,-0.83,-0.98,10
18.18,-2.5,7.67,-0.68,3.66,5.57,-3.96,18.46,6.91,-2.54,-0.05,-2.25,10
17.49,-2.26,8.32,7.71,4.98,2.83,-3.68,18.4,7.71,-2.25,-3.91,0.2,10
17.4,-2.45,8.52,1.95,9.86,3.22,-3.74,17.76,7.51,-1.12,0.39,-2.25,10
17.25,-2.42,9.83,-9.08,38.53,4.3,-3.98,18.39,7.17,2.98,1.22,-1.51,10
17.9,-3.13,13.17,-4.93,48.63,9.33,-3.22,19.29,8.75,6.25,1.51,-14.36,10
13.58,-3.57,16.1,-9.38,89.65,4.0,-4.6,17.34,7.15,-0.59,-2.78,3.27,10
7.75,-4.69,19.02,-25.29,127.59,2.34,-4.65,17.45,7.49,-1.76,0.98,-2.93,10
2.59,-5.73,19.03,-26.22,66.99,-3.12,-5.46,17.46,6.27,-0.83,4.39,-3.91,10
0.09,-7.14,19.41,-7.18,23.19,0.59,-5.04,18.26,6.74,0.88,1.9,-1.32,10
-0.74,-7.8,19.41,-3.08,8.45,0.44,-5.13,17.83,6.67,-0.88,0.63,-0.29,10
-0.7,-7.87,20.22,-0.1,3.52,4.05,-4.06,19.2,6.85,-0.05,4.0,0.29,10
-0.87,-7.41,20.15,2.44,-2.39,0.49,-4.84,18.44,6.85,-0.54,-0.44,1.66,10
-0.61,-8.03,20.15,3.22,-3.86,0.78,-5.31,17.57,6.76,-0.59,1.66,1.46,10
-3.6,-7.82,18.68,8.69,-3.56,1.56,-5.19,17.62,6.26,3.47,9.47,2.64,11
-1.94,-7.14,19.18,36.52,-65.04,-0.73,-5.2,18.57,5.97,0.39,6.25,8.64,11
12.35,-1.12,10.57,87.74,-361.13,0.39,-3.61,19.43,7.79,1.17,10.45,-7.57,11
27.29,-2.25,18.82,-27.69,-174.71,-44.97,-6.02,21.17,4.25,4.64,15.97,7.86,11
16.62,-2.24,7.02,-1.32,-24.07,-2.73,-6.02,17.12,6.03,-8.79,-6.2,15.19,11
17.99,-1.34,6.15,0.78,-8.64,4.1,-5.31,18.04,5.58,-3.17,-2.0,3.91,11
18.48,-1.64,6.1,2.34,1.37,4.74,-4.73,18.24,6.78,0.24,1.03,-0.29,11
19.32,-1.38,7.91,-28.27,40.19,5.81,-4.81,18.61,6.28,5.62,1.56,-8.25,11
17.51,-3.11,10.3,-8.35,89.01,15.33,-5.36,18.05,6.43,3.12,0.2,-5.76,11
14.62,-3.0,15.53,4.98,76.51,9.57,-5.63,17.7,6.07,0.49,-1.76,0.34,11
13.03,-3.51,22.03,-27.15,152.78,16.6,-4.64,19.55,6.81,-0.88,2.78,-3.86,11
-1.69,-7.8,16.29,-52.25,177.49,14.06,-5.57,19.03,6.06,3.61,7.91,1.17,11
-6.0,-7.84,17.68,-20.7,39.99,-5.81,-6.09,18.3,5.56,-0.73,-2.0,8.01,11
-4.71,-8.54,20.17,2.05,-5.57,-2.2,-5.48,18.7,6.3,-2.0,-2.73,6.4,11
-4.83,-8.73,19.26,-0.73,-1.51,-0.83,-5.51,17.95,6.21,-2.1,-1.42,1.51,11
-4.7,-8.92,19.67,-3.61,0.63,-0.44,-5.57,18.42,6.09,-2.39,-0.44,1.22,11
-4.7,-8.59,19.49,0.93,-2.69,-0.78,-5.09,18.22,6.46,-1.47,-3.42,0.59,11
-4.49,-8.85,19.51,0.15,-3.76,-0.88,-5.35,17.99,6.33,-1.76,-0.54,-0.59,11
-4.21,-9.07,19.61,3.08,-7.18,-3.61,-5.09,18.27,6.76,0.44,-4.69,4.1,11
-3.9,-8.5,19.77,1.27,-3.61,-0.54,-4.96,18.25,6.31,-0.68,0.0,-0.29,11
15.58,-1.38,11.52,-5.37,-80.18,-1.27,-3.83,18.63,7.37,-5.52,-2.64,-1.51,12
17.8,-2.23,9.2,-4.1,-23.97,3.91,-4.36,18.2,6.63,-0.39,-5.13,2.83,12
17.55,-1.98,8.39,1.12,-8.4,2.44,-3.56,18.85,6.9,-0.05,0.78,2.0,12
18.2,-1.97,8.35,3.42,-4.88,1.46,-3.53,18.41,7.32,1.07,1.46,-1.17,12
17.94,-2.98,7.81,-2.64,0.44,3.03,-3.55,18.76,7.19,1.32,1.37,-0.24,12
17.9,-2.64,8.14,-1.86,3.32,2.44,-3.8,18.39,6.86,1.27,0.88,-1.03,12
17.38,-2.61,8.32,-1.22,7.28,1.86,-3.5,19.86,7.23,8.25,0.05,-12.06,12
21.76,-1.96,13.14,-18.16,53.13,6.54,-4.02,18.2,8.32,3.32,23.83,-36.82,12
8.45,-5.84,15.24,-47.36,231.49,40.63,-6.85,17.49,5.84,-0.05,6.98,17.04,12
-3.67,-6.6,15.45,-18.95,157.28,3.86,-6.4,17.59,5.55,-2.49,3.96,-4.83,12
-6.45,-9.43,17.07,-0.05,-4.3,-5.27,-5.69,18.57,6.28,-4.74,-4.25,8.94,12
-3.62,-9.36,20.95,-4.54,-31.45,-19.09,-5.14,18.3,7.06,-0.34,-6.15,4.2,12
-2.97,-9.56,19.83,1.66,-30.47,-13.82,-5.25,18.95,6.89,0.68,0.54,0.1,12
-2.08,-9.83,20.2,4.74,2.1,4.69,-5.22,18.12,6.77,-1.76,-1.22,2.05,12
-2.66,-8.84,19.32,1.71,-3.22,1.22,-5.45,17.94,6.68,-2.39,-4.2,3.81,12
-2.05,-9.81,18.95,9.77,-24.71,-3.03,-4.86,18.58,6.77,-1.17,0.78,0.15,12
-1.32,-7.88,19.91,2.54,0.29,4.44,-4.81,18.13,6.92,-1.12,-2.54,3.42,12
-0.72,-9.41,19.89,5.57,-3.86,0.98,-4.88,17.67,6.84,-3.52,-1.76,3.37,12
-1.12,-8.94,19.49,6.45,-7.81,2.88,-4.01,19.01,7.66,-0.29,-2.2,2.59,12
-0.3,-8.35,20.39,2.15,-3.76,1.37,-4.17,18.11,7.24,-0.68,-0.83,1.07,12
15.12,-2.72,12.16,171.14,-398.19,53.71,-2.75,18.87,6.62,-0.83,0.1,2.73,13
23.49,-1.11,12.19,-6.84,-109.62,-26.03,-3.37,18.01,7.17,-1.71,-1.37,-0.44,13
18.51,-2.9,6.26,-3.76,-33.74,-10.21,-3.11,18.33,6.56,-2.78,1.42,0.39,13
17.57,-1.82,5.12,-4.3,-5.22,1.76,-2.81,17.99,7.15,-1.86,-0.63,2.0,13
18.15,-2.12,5.26,-0.83,1.32,1.22,-2.81,18.49,6.67,0.05,-3.86,1.07,13
18.49,-1.94,5.76,-3.96,6.93,4.35,-2.9,18.27,7.53,-1.27,1.12,1.86,13
18.37,-2.74,6.46,6.3,48.14,14.21,-2.51,18.73,7.01,-1.51,-1.27,1.22,13
15.89,-2.72,9.61,-2.15,64.31,13.09,-2.57,18.25,7.09,-0.63,0.29,1.56,13
17.61,-3.35,15.08,-7.03,90.04,13.48,-2.48,18.32,7.31,-0.88,0.34,0.15,13
11.16,-3.84,20.79,-29.2,219.68,20.07,-2.4,18.3,7.23,-1.51,-0.1,1.03,13
-4.96,-7.71,15.76,-20.31,117.77,3.61,-2.39,18.42,7.09,-1.37,-0.15,0.34,13
-6.53,-7.37,18.31,-18.02,38.28,-10.84,-2.36,18.21,7.28,-0.83,0.73,2.39,13
-6.43,-9.17,19.03,3.17,-4.83,-2.15,-2.2,18.55,7.18,-0.68,-0.88,0.1,13
-5.56,-8.63,19.02,20.12,-29.79,5.57,-2.14,18.44,7.12,-0.93,-1.03,2.83,13
-5.37,-8.43,19.35,-0.93,-0.78,-0.54,-2.02,18.39,7.35,-0.68,0.15,0.54,13
-4.97,-8.77,19.49,-3.08,-0.39,-0.93,-2.15,18.26,7.11,-1.9,0.34,0.1,13
-4.97,-8.64,19.27,1.37,-4.64,-0.2,-2.09,18.17,7.21,-1.66,1.17,0.59,13
-4.32,-8.02,20.34,2.2,-5.37,0.39,-1.97,18.48,7.51,-1.17,0.59,1.37,13
-4.17,-8.01,19.75,3.56,-8.84,0.05,-1.97,18.26,7.38,-0.49,-1.22,0.93,13
-3.87,-8.05,20.0,-0.83,-1.66,0.0,-1.24,18.6,7.09,1.27,-0.83,1.81,13
8.57,-2.43,18.13,15.92,-46.97,10.11,-2.46,18.87,6.36,-1.61,-1.56,2.15,14
11.65,-1.86,16.93,13.43,-62.65,9.96,-2.63,17.48,5.87,-6.1,-4.25,0.0,14
14.4,-1.13,14.79,2.34,-68.31,5.52,-2.08,18.49,6.75,-9.42,-3.03,0.29,14
16.32,-1.75,12.18,-13.67,-83.84,3.13,-2.22,18.2,6.81,-14.8,8.06,5.86,14
17.37,-2.18,8.9,-7.23,-52.1,-2.1,-2.08,18.44,7.44,-13.18,7.52,15.23,14
18.59,-1.8,6.51,-6.59,-35.84,-0.29,-0.93,19.41,8.15,-5.91,8.3,15.72,14
19.32,-1.78,5.33,-2.2,-14.4,0.88,-0.73,19.04,8.66,-2.2,0.39,5.71,14
18.68,-2.0,5.22,-2.64,4.1,4.1,-1.22,18.29,7.92,0.54,-0.88,-4.3,14
18.99,-2.22,5.86,-3.37,17.92,7.42,-1.28,18.82,7.74,4.74,-4.3,-7.32,14
17.9,-3.19,6.32,-1.37,11.72,4.44,-1.62,17.61,7.91,0.63,2.29,-4.49,14
18.26,-2.63,7.36,-3.81,14.55,4.2,-1.46,18.18,7.81,2.64,-4.3,-8.15,14
17.1,-3.24,8.01,-0.05,10.99,2.78,-1.92,18.4,7.19,1.12,-1.51,0.88,14
16.95,-3.78,8.65,-0.59,15.72,3.56,-1.96,17.65,7.67,0.29,0.44,-1.32,14
16.78,-3.45,9.87,-3.42,30.42,4.88,-1.44,18.43,8.2,0.29,-2.34,-2.73,14
15.54,-3.67,10.93,-2.15,34.08,5.08,-2.27,18.55,6.84,3.76,-1.37,-3.91,14
15.08,-4.08,13.27,-5.32,38.18,4.79,-2.2,18.71,7.11,2.44,-1.42,-5.66,14
12.9,-4.62,15.16,-5.37,47.31,4.15,-2.33,18.4,7.31,1.51,-2.98,-3.66,14
10.38,-4.46,17.95,1.22,68.41,5.76,-2.48,18.84,6.92,0.93,0.93,2.1,14
3.65,-5.43,16.82,-43.75,202.15,10.06,-2.8,17.7,6.78,-0.68,12.26,-3.47,14
-3.93,-6.5,18.7,-5.71,57.47,3.47,-2.4,19.3,6.35,2.05,-0.2,-0.44,14
15.78,-2.66,10.79,-14.36,-72.12,-0.24,-3.65,17.22,7.71,-12.5,-5.32,12.45,15
17.97,-2.79,7.63,-1.9,-24.32,6.59,-2.86,18.36,8.21,-2.25,-2.83,2.2,15
19.74,-2.99,5.88,0.29,-23.14,-2.0,-2.48,18.07,8.23,1.37,-3.32,1.17,15
17.97,-3.05,5.43,0.59,-3.12,2.49,-2.6,17.91,8.59,-0.78,-5.66,0.54,15
18.27,-2.63,5.44,-1.66,1.95,1.46,-2.03,17.93,9.4,-1.03,-4.49,1.9,15
18.23,-2.97,5.84,2.05,2.88,3.27,-2.36,17.61,8.69,-0.73,-0.68,-0.98,15
18.59,-2.61,5.92,7.08,-3.03,1.66,-2.26,18.2,8.91,1.46,-1.07,-3.22,15
18.18,-2.6,5.98,0.54,5.27,2.69,-2.47,18.33,8.81,0.68,-0.88,-1.12,15
17.75,-3.54,7.12,2.78,53.13,5.76,-2.75,18.05,8.38,-0.2,-3.86,0.49,15
16.17,-2.69,9.4,5.62,33.74,8.59,-2.84,17.7,8.25,2.15,-2.49,-5.91,15
17.26,-3.61,11.86,-1.17,55.18,7.57,-2.86,18.56,8.38,6.15,-3.86,-11.62,15
14.93,-4.4,13.99,-8.79,53.81,3.71,-2.95,18.28,8.62,2.2,-3.22,3.81,15
10.27,-4.11,18.2,-23.24,125.39,6.69,-2.68,17.63,8.87,3.08,8.84,1.66,15
4.43,-5.93,19.73,-33.79,115.77,-4.69,-3.15,17.93,7.3,5.42,3.86,19.24,15
-4.12,-10.13,14.41,-26.61,89.84,15.53,-2.42,18.41,7.16,-2.59,-2.39,2.78,15
-5.28,-7.44,19.09,4.64,12.45,13.48,-2.35,18.18,7.33,-0.29,0.49,2.39,15
-4.01,-8.84,19.64,-3.56,3.71,2.34,-2.26,18.38,7.33,-1.95,1.27,5.76,15
-4.12,-8.15,20.15,5.47,-3.08,2.59,-1.2,18.14,8.27,-0.2,-5.13,0.83,15
-4.08,-7.5,20.7,4.88,-1.81,2.39,-1.73,18.35,7.47,0.05,0.44,-0.05,15
-3.91,-8.26,20.36,2.54,-1.61,1.61,-1.88,18.39,7.37,-0.34,-1.46,0.54,15
-4.68,-8.57,20.15,1.17,-3.32,-2.88,-1.45,18.01,6.64,-0.05,1.27,0.88,16
-5.17,-8.03,19.12,4.1,-3.66,1.95,-1.43,18.16,6.37,-2.0,0.1,-0.15,16
-4.75,-9.08,19.45,-1.86,0.93,0.63,-1.34,18.59,6.36,-0.34,1.32,1.56,16
-4.98,-7.34,19.87,1.76,-2.64,0.39,-1.05,19.4,8.34,0.34,-0.73,-0.44,16
-4.77,-8.9,19.2,-1.56,1.9,3.22,-1.16,19.14,6.36,-1.03,0.44,1.51,16
-4.57,-8.11,20.18,3.12,-2.2,-0.34,-1.39,18.46,6.82,-0.68,1.51,0.68,16
-4.93,-8.19,19.31,2.2,-4.64,1.86,-1.38,18.68,6.84,-0.49,0.34,-1.71,16
-4.78,-8.5,19.4,-0.44,0.54,0.98,-1.83,18.89,6.4,2.1,-1.03,-2.98,16
-4.28,-8.75,20.73,7.62,1.03,-3.22,-1.99,19.59,6.46,22.56,10.74,-24.41,16
-5.0,-6.97,20.45,24.56,9.42,-11.43,-4.04,18.65,4.16,4.69,33.64,-20.85,16
-5.26,-6.33,19.65,10.74,-5.27,-4.88,-3.95,18.73,4.8,-0.68,0.59,1.46,16
-4.85,-6.64,20.03,-0.93,2.83,-0.83,-3.93,19.27,4.85,0.83,-0.63,2.39,16
-4.97,-6.57,20.44,-8.74,18.6,-0.2,-3.75,18.89,4.55,1.07,11.82,0.59,16
-6.01,-5.92,19.74,7.13,1.56,2.2,-4.97,19.12,4.13,-0.83,5.42,-3.76,16
-4.9,-3.81,13.47,68.55,-164.65,-14.21,-3.66,13.92,6.17,-38.53,-0.2,1.12,16
21.03,1.41,23.5,15.77,-345.56,1.71,-3.56,21.75,5.18,-28.37,35.01,-3.42,16
18.88,-0.53,9.32,-4.79,-52.25,10.16,-4.17,18.52,6.95,-16.65,-4.83,20.9,16
20.64,-0.78,5.55,-2.25,-22.9,0.78,-3.29,17.97,7.21,-1.17,0.29,-0.15,16
18.63,-1.07,5.63,1.22,3.22,2.93,-2.6,18.99,7.7,5.52,-9.37,-7.86,16
18.57,-1.47,6.89,-6.35,35.3,10.21,-4.15,18.44,5.99,7.67,-5.66,-12.89,16
16.38,-1.96,7.5,-18.65,-49.32,3.76,-4.71,14.76,5.98,-15.72,9.91,-3.08,17
17.72,-1.62,6.09,-1.07,-5.52,2.49,-3.83,16.97,6.38,-4.64,-8.4,1.03,17
17.98,-2.12,5.67,-1.42,1.03,0.93,-1.97,18.13,8.99,3.86,-6.69,0.15,17
18.32,-1.68,6.21,-7.13,5.27,1.81,-2.88,18.31,7.42,4.2,-7.18,-2.69,17
20.26,-4.04,10.99,-34.72,161.33,35.74,-2.87,18.07,7.01,6.25,2.73,-17.87,17
12.56,-3.59,17.36,11.23,132.42,28.52,-3.44,18.16,7.05,4.54,5.96,0.98,17
3.98,-4.94,18.25,-25.15,89.21,-3.91,-3.54,17.81,6.54,-3.27,-5.22,12.65,17
1.31,-5.88,20.23,-18.51,62.65,-2.83,-2.54,19.33,6.77,0.29,-1.76,0.93,17
-0.88,-7.22,20.14,-6.88,24.8,-0.68,-2.59,18.51,6.65,-1.47,-0.49,3.71,17
-1.96,-7.57,20.49,-6.01,18.02,-2.44,-3.52,18.69,6.76,0.24,-3.47,3.91,17
-2.57,-7.23,20.59,-5.76,18.99,-1.12,-1.65,18.44,7.11,-1.12,-5.96,3.52,17
-3.56,-8.42,20.38,-4.49,22.46,1.27,-1.89,18.81,7.03,0.73,0.15,-0.44,17
-5.27,-8.3,19.51,-0.05,20.31,3.91,-2.14,18.57,6.46,0.78,3.76,-2.98,17
-6.03,-8.14,18.95,0.1,8.11,1.42,-2.12,18.55,6.57,-0.29,4.44,0.29,17
-5.95,-8.16,19.15,1.86,-2.0,0.44,-2.21,18.18,6.4,-1.32,0.29,1.51,17
-5.62,-8.08,19.41,4.78,-6.45,0.2,-2.11,18.45,6.48,-0.24,-0.44,1.42,17
-5.71,-7.75,19.38,2.98,-3.03,0.68,-2.02,18.52,6.51,-0.68,-0.39,1.51,17
-5.54,-7.79,19.65,0.49,-1.07,0.29,-2.01,18.42,6.61,-1.12,0.0,0.24,17
-5.39,-7.6,19.97,2.05,-3.56,0.1,-1.8,18.88,6.7,-0.59,0.29,1.51,17
-5.31,-7.63,19.57,5.32,-7.28,1.42,-1.84,18.64,6.45,-1.03,-0.1,2.78,17
10.95,-4.92,9.72,4.15,-59.33,-6.49,-7.01,14.4,2.36,-3.27,-6.54,8.74,18
18.42,-1.68,10.07,2.78,-55.66,-4.83,-4.54,17.19,7.71,-12.26,-7.71,3.56,18
16.63,-1.51,7.79,0.29,-24.37,-2.2,-3.67,20.62,9.14,-0.34,-12.01,12.4,18
17.57,-1.49,7.1,-0.0,-3.42,2.34,-4.18,18.63,6.81,1.56,-3.71,0.44,18
17.99,-1.66,7.27,-3.37,19.14,3.37,-4.72,18.23,5.87,4.83,0.0,-5.32,18
18.29,-2.13,9.16,-7.03,41.7,5.76,-4.72,19.54,6.36,5.13,-0.05,-7.76,18
17.31,-2.19,14.25,-15.92,143.7,24.37,-4.65,16.77,7.36,-0.15,-1.66,-13.77,18
8.2,-3.35,18.96,-43.99,235.89,0.54,-4.57,19.03,6.53,-2.69,-3.81,35.25,18
-5.27,-7.72,17.04,-36.38,96.09,-6.64,-2.92,19.78,6.3,-3.32,-3.42,33.84,18
-6.55,-8.3,20.45,5.03,-5.81,-3.08,-2.7,18.54,6.53,-2.93,0.44,0.34,18
-6.27,-8.57,19.2,2.64,-5.03,0.98,-2.55,18.6,6.01,0.34,-10.6,6.15,18
-6.3,-7.84,19.52,6.79,-4.1,-2.93,-0.88,18.83,8.25,3.56,-23.14,9.13,18
-5.75,-8.37,19.95,4.64,-8.84,-0.39,-1.65,18.28,5.5,-3.91,-15.82,2.34,18
-5.85,-8.01,19.35,2.39,1.03,-4.15,0.01,18.82,7.86,1.9,-25.05,4.44,18
-5.13,-7.82,20.37,5.57,-7.62,0.88,-0.35,18.7,6.58,0.68,-1.76,-1.81,18
-5.65,-7.5,19.52,4.2,-6.05,0.59,-0.2,18.58,6.94,-0.2,-6.4,1.07,18
-5.47,-7.35,19.92,2.69,-2.73,1.61,-0.51,18.36,6.49,-0.73,-1.66,0.29,18
-5.31,-7.32,19.56,10.5,-13.57,3.37,-0.04,18.87,6.45,0.44,-2.64,0.15,18
-4.44,-6.35,21.38,1.03,4.44,-0.1,-0.34,18.72,6.35,2.0,-2.0,-6.74,18
-4.73,-6.62,20.72,9.13,-6.01,1.9,-0.81,19.29,6.04,2.78,-5.52,-18.16,18
-3.97,-5.73,8.44,89.26,-211.87,-0.88,-6.72,15.8,6.59,-18.6,0.24,2.73,19
17.86,2.36,24.98,11.91,-281.64,2.29,-4.01,17.13,9.3,-13.53,-13.33,30.91,19
15.76,-2.78,9.04,-14.7,-67.92,9.57,-3.46,17.96,8.45,-5.27,-5.32,10.06,19
18.89,-2.42,8.22,11.91,-52.1,-4.54,-3.95,17.87,8.1,7.42,-2.49,-9.42,19
19.36,-1.83,4.91,-1.86,-11.96,0.59,-4.85,16.34,7.78,1.61,5.42,-8.84,19
18.94,-1.72,5.97,-10.74,25.73,4.3,-4.45,18.02,8.02,1.86,-1.12,-5.27,19
17.53,-3.35,6.57,-3.37,10.21,10.84,-4.55,17.09,8.18,-0.93,-0.29,0.88,19
17.88,-2.94,7.5,0.73,16.16,5.08,-3.88,17.65,8.46,2.64,-10.11,0.59,19
16.98,-3.12,8.51,0.68,28.56,4.2,-3.82,18.22,8.67,0.59,-8.2,0.54,19
16.92,-3.4,10.9,-3.71,33.64,7.08,-4.07,17.76,8.28,3.91,4.15,-8.35,19
15.65,-4.36,11.82,1.03,60.89,10.16,-3.95,17.36,8.3,0.24,3.91,5.66,19
11.24,-4.89,14.8,5.13,128.96,19.43,-3.21,18.15,7.7,3.03,-12.79,44.82,19
1.97,-6.56,14.75,-43.46,174.85,6.05,-0.83,19.54,8.81,-1.81,-12.94,16.75,19
-4.15,-6.86,16.36,-12.74,91.5,3.27,-0.68,18.78,7.97,2.0,-4.35,-0.98,19
-3.34,-7.67,20.58,-7.23,5.37,-11.62,-0.68,18.11,7.87,2.78,-7.86,3.56,19
-3.69,-7.97,20.32,-3.37,9.33,-0.88,-0.61,18.13,7.36,-0.39,-1.61,1.22,19
-3.63,-8.25,20.42,1.37,0.98,0.24,-0.49,18.37,7.59,-0.63,0.1,-0.93,19
-4.04,-7.87,19.84,0.39,-1.76,0.78,-0.39,18.41,7.54,-1.71,-0.05,1.27,19
-4.03,-8.35,19.49,-0.98,-0.1,1.71,-0.57,18.07,7.28,-2.05,0.88,0.1,19
-3.95,-8.01,19.97,-0.98,-1.71,0.59,-0.27,18.53,7.7,-1.27,-0.24,1.76,19
23.97,-1.1,17.69,-24.07,-212.5,-8.54,-3.2,13.65,8.5,-30.96,-4.0,-12.79,20
16.78,-3.43,5.39,-3.61,-32.37,0.34,-1.95,17.51,10.67,3.71,8.06,10.84,20
18.37,-2.79,4.28,-2.49,-10.84,2.54,-1.71,17.48,10.84,4.3,6.49,4.39,20
19.18,-3.15,4.01,-1.12,1.61,0.24,-1.72,17.23,10.35,-1.51,-8.11,-1.95,20
19.04,-3.19,4.03,0.88,1.27,3.03,-1.71,18.21,10.04,10.89,0.39,-4.15,20
20.47,-2.48,7.04,-11.67,57.47,2.78,-2.78,18.04,9.06,14.36,-1.17,-15.53,20
18.28,-4.04,11.03,0.68,140.14,27.64,-4.25,13.49,7.53,-0.88,15.77,-6.45,20
12.05,-4.42,16.48,-9.47,132.47,2.54,-2.5,18.32,8.76,8.3,-4.25,15.97,20
4.13,-7.0,17.71,-38.67,176.12,-7.81,-2.73,16.65,8.34,1.03,-3.03,0.88,20
-0.84,-7.77,19.67,-8.59,45.07,-3.52,-2.39,18.02,8.08,1.46,-4.83,1.81,20
-2.61,-8.27,18.63,-4.0,10.94,-5.42,-2.02,18.36,8.2,2.98,-6.25,2.49,20
-1.7,-7.73,20.0,3.86,-6.15,1.03,-1.73,17.39,8.54,-2.2,-1.51,4.98,20
-0.83,-8.49,20.67,3.42,-8.11,0.88,-1.52,17.52,7.73,2.59,-3.76,-2.49,20
-1.75,-8.06,18.61,2.29,-4.39,1.37,-1.33,19.14,8.1,2.78,-4.2,2.69,20
-0.85,-7.54,21.19,-0.05,1.17,-0.88,-1.18,17.77,7.93,-0.2,-0.78,3.37,20
-0.81,-7.38,20.52,0.68,-2.44,-0.24,-1.26,17.96,8.05,-1.03,-1.32,1.07,20
-1.5,-8.19,19.99,-0.24,-4.0,1.07,-1.24,18.51,8.4,1.76,-1.42,1.95,20
-0.5,-8.05,20.65,-0.0,3.03,-0.1,-0.61,17.72,7.13,-0.0,0.29,0.54,20
-1.59,-6.99,19.52,1.17,-2.05,0.78,-0.7,18.58,8.94,-1.61,-3.32,1.81,20
-0.4,-8.78,20.31,-3.13,-2.0,-2.34,-0.67,18.11,7.17,-3.03,1.27,0.59,20
17.9,-2.31,7.66,-1.86,-58.4,0.98,-1.67,17.67,9.23,-0.93,-0.54,0.83,21
18.32,-2.92,4.04,-0.98,-19.97,-4.39,-1.46,18.17,8.94,0.05,-0.24,0.44,21
19.58,-1.83,3.35,1.51,-6.49,-1.17,-1.42,18.11,8.93,0.15,0.24,0.49,21
19.3,-2.21,3.39,-0.0,-2.1,1.12,-1.51,17.4,9.14,-0.83,-0.1,0.29,21
19.11,-2.51,3.28,-4.64,5.62,4.2,-1.41,17.32,8.81,-0.24,-1.42,1.71,21
19.52,-3.13,5.14,0.24,42.38,8.79,-1.33,17.76,8.83,0.54,-1.56,1.71,21
16.98,-3.02,7.93,-1.17,68.99,13.92,-0.96,17.76,9.11,1.32,-4.05,2.05,21
14.39,-4.94,13.12,-18.99,137.65,16.7,-0.78,18.31,9.05,0.68,-1.51,1.27,21
4.78,-6.66,14.59,-58.4,220.75,1.27,-0.88,17.96,8.76,0.05,-0.73,2.2,21
-1.53,-7.02,21.12,-27.64,95.61,6.35,-0.87,17.71,8.8,0.2,-1.61,0.39,21
-6.48,-9.48,17.53,-17.53,40.97,-4.39,-0.98,17.89,8.49,-0.05,-0.15,0.15,21
-7.01,-10.06,17.25,2.34,-3.12,-3.32,-0.53,18.09,8.97,1.03,-2.25,2.0,21
-6.66,-9.68,18.71,-2.64,3.37,-0.98,-0.72,17.96,8.65,0.15,-1.37,1.22,21
-6.99,-9.5,17.99,2.69,-4.74,-1.37,-0.54,17.78,8.64,0.59,-2.05,0.73,21
-6.59,-10.13,18.36,0.1,-4.2,0.0,-0.59,17.79,8.4,-0.29,-0.49,-0.44,21
-6.74,-10.02,18.54,-0.73,0.93,-1.51,-0.61,17.87,8.41,-0.39,0.39,-0.2,21
-6.35,-10.2,19.08,3.17,-5.76,-1.61,-0.57,17.99,8.49,-0.73,0.2,0.05,21
-6.6,-9.8,18.18,-0.15,0.73,0.39,-0.59,17.67,8.4,-0.78,0.15,0.05,21
-6.27,-9.74,18.73,2.73,-4.93,0.59,-0.54,18.17,8.27,-0.0,-0.2,0.44,21
-6.33,-9.8,18.32,1.42,-2.05,-0.29,-0.53,17.99,8.39,-0.49,0.15,0.68,21
24.58,-2.27,19.26,-47.27,-157.86,-1.56,-7.26,8.33,-0.21,-22.07,75.15,-26.22,22
20.22,-3.12,7.05,-38.13,-45.56,9.03,-2.88,16.66,8.39,-18.31,30.57,-12.5,22
18.81,-4.14,3.6,-18.02,-8.69,-0.05,-2.12,17.76,9.65,-4.79,-0.29,2.54,22
17.94,-4.19,3.96,-4.35,5.32,0.93,-2.74,16.68,9.04,-1.22,-0.78,0.34,22
18.33,-3.62,4.26,-2.39,0.63,1.9,-1.98,17.79,10.05,-0.24,-2.83,-3.12,22
18.86,-3.81,5.62,-2.49,13.57,2.44,-2.5,17.29,9.19,2.83,-2.64,-3.81,22
21.39,-5.38,10.44,-0.39,164.4,27.2,-2.2,18.14,9.75,10.3,-5.66,-7.32,22
12.97,-4.48,19.75,-23.29,211.87,24.27,-2.59,17.36,9.18,7.62,-0.1,-17.48,22
-1.74,-9.18,15.8,-31.88,146.09,0.98,-3.96,16.08,7.7,-3.42,5.52,10.35,22
-4.08,-8.45,21.93,-7.72,41.65,-3.27,-1.69,20.42,9.67,1.12,-6.1,5.71,22
-5.54,-9.74,18.91,4.49,-2.15,-3.42,-2.71,18.27,8.58,-1.66,-3.42,4.64,22
-5.85,-9.98,17.82,-0.78,2.2,-1.22,-2.79,17.47,8.66,-2.39,-3.03,2.2,22
-5.35,-9.39,19.05,2.73,-4.39,-0.49,-2.62,17.52,8.57,-1.76,-1.46,2.39,22
-5.26,-9.56,19.26,0.68,-2.34,-0.54,-2.35,18.04,8.78,-0.98,-0.49,1.81,22
-5.17,-9.02,19.42,3.22,-4.88,-0.59,-2.33,17.74,8.67,-0.68,-2.78,2.15,22
-4.83,-9.25,19.18,3.56,-7.37,0.15,-2.23,17.33,8.63,-1.12,-0.68,1.66,22
-4.82,-9.24,19.06,2.1,-3.52,-0.73,-1.74,17.57,9.19,-0.93,-3.27,2.44,22
-4.6,-9.25,19.52,0.83,-1.12,0.29,-1.86,17.98,8.9,-0.0,-0.73,0.54,22
-4.36,-9.04,19.95,2.78,-3.08,0.1,-1.74,18.06,9.01,0.24,-2.25,2.64,22
-4.51,-9.08,19.29,1.03,-1.27,0.54,-1.9,17.74,8.68,-0.54,-0.63,0.73,22
18.2,-2.72,7.19,1.71,-41.16,5.22,-2.27,17.6,8.73,-10.89,5.81,12.11,23
18.21,-3.11,5.36,-0.05,-14.21,3.61,-1.64,16.91,9.48,-5.27,0.59,6.01,23
18.81,-2.9,5.05,-1.12,-4.2,1.86,-1.13,17.44,10.11,-1.12,-0.49,1.66,23
18.48,-3.07,4.76,-2.0,1.71,2.64,-1.54,17.62,9.49,1.86,1.42,-0.2,23
18.04,-3.29,4.78,-5.86,8.89,4.59,-1.35,17.48,9.71,-0.24,1.66,-2.88,23
18.28,-3.59,5.33,-2.64,3.71,3.08,-1.39,17.53,9.96,-0.15,1.03,-2.29,23
18.41,-3.6,5.79,-2.69,9.18,3.71,-1.94,17.42,9.56,0.39,1.22,-2.2,23
18.97,-4.07,7.46,-3.22,19.58,4.59,-1.71,17.7,9.95,3.81,6.74,-5.03,23
16.98,-4.65,11.71,-8.15,163.82,19.48,-2.17,17.79,9.97,-0.2,12.06,-8.79,23
3.54,-5.12,11.69,-48.1,226.17,14.11,-2.65,18.59,8.96,4.2,3.03,12.26,23
-0.9,-7.08,19.01,-15.87,83.74,2.39,-2.08,19.41,9.55,0.54,-4.98,17.29,23
-2.66,-8.29,18.92,-10.45,18.07,-1.71,-2.12,16.44,8.82,-3.52,0.29,4.79,23
-2.59,-8.84,19.33,4.59,-2.83,0.15,-0.65,18.07,10.2,-1.32,-6.59,3.42,23
-2.4,-8.41,20.07,-0.54,3.81,-1.76,-0.25,18.46,9.86,0.98,-5.91,3.91,23
-2.49,-8.45,19.65,4.69,-5.71,-1.86,-1.09,17.27,9.03,0.83,-4.79,1.17,23
-1.9,-8.07,20.05,2.59,-2.93,0.98,-0.62,17.54,9.09,-0.68,-0.49,0.29,23
-2.78,-7.98,18.6,0.49,-3.71,-0.29,-0.39,16.6,9.29,-0.98,-1.61,0.05,23
-2.02,-8.0,19.37,0.15,0.05,1.9,-0.71,17.08,8.9,0.2,0.88,-0.59,23
-1.91,-8.12,19.82,1.32,-1.27,1.37,-0.66,17.63,9.29,-0.98,-0.1,-0.2,23
-1.38,-7.73,20.38,7.18,-7.18,2.34,-0.28,17.79,9.3,2.34,-2.15,1.9,23
18.88,-3.72,5.87,-14.65,-45.95,7.76,-3.0,16.06,9.02,-9.67,9.86,-5.18,24
17.95,-3.56,3.78,-1.17,-11.62,4.44,-2.49,16.74,10.31,-5.22,6.05,-1.46,24
19.0,-3.03,3.85,2.39,-6.54,0.34,-2.46,17.47,10.33,-2.69,2.88,4.69,24
18.89,-3.11,3.74,-0.39,-2.34,1.17,-2.37,17.25,9.88,0.1,1.51,0.88,24
18.8,-3.04,3.73,1.51,3.22,1.17,-2.51,17.17,9.69,0.05,-0.15,2.49,24
18.56,-3.13,4.38,7.91,4.05,2.64,-2.38,17.15,9.91,-2.54,-0.05,2.64,24
18.74,-3.09,4.44,3.61,0.49,0.49,-1.99,17.24,10.62,-2.34,-1.76,2.93,24
18.91,-2.81,4.24,-1.22,0.73,0.63,-1.72,17.35,10.03,0.1,-1.17,1.03,24
18.41,-3.36,4.88,-0.78,-0.2,0.73,-2.54,17.23,10.07,0.1,-0.05,0.2,24
19.27,-3.01,6.39,-4.44,22.71,2.93,-1.71,17.47,10.24,1.22,1.42,-2.54,24
19.96,-3.63,9.97,-3.17,90.14,15.19,-2.07,17.51,10.25,3.22,-0.1,-8.3,24
15.74,-5.08,14.93,-3.66,109.47,12.06,-3.39,15.72,8.95,2.1,2.49,-11.91,24
8.2,-4.31,17.48,-38.67,210.06,0.05,-3.81,14.72,9.16,1.32,-1.12,-4.93,24
1.23,-6.17,22.21,-24.9,80.52,-2.93,-2.33,18.49,9.95,5.76,-3.08,0.2,24
-3.91,-7.66,18.32,-1.03,16.41,2.59,-2.36,17.38,9.42,-1.66,2.78,-1.76,24
-4.57,-8.58,18.05,-1.22,6.45,-1.51,-2.43,18.06,9.49,-0.39,-0.29,-5.37,24
-4.51,-8.41,19.64,-0.78,5.71,-0.1,-3.1,17.86,9.27,0.24,0.63,-0.44,24
-4.25,-7.95,19.62,-1.37,1.07,0.59,-2.98,17.47,9.26,-1.81,0.83,-0.88,24
-3.98,-8.52,20.37,-0.15,0.15,-0.54,-3.07,17.41,9.65,-2.39,-1.03,2.83,24
-4.12,-8.14,19.9,2.69,-2.98,0.73,-2.82,17.16,9.49,-1.03,0.1,0.98,24
7.0,-3.5,12.44,41.55,-145.41,20.61,-5.82,12.19,6.06,-20.51,-4.0,22.61,25
16.89,-1.29,12.18,-2.83,-144.09,-5.81,-3.34,17.45,7.17,-10.6,6.74,12.55,25
15.11,-1.96,7.39,5.03,-28.17,6.01,-0.69,19.46,10.54,-6.74,5.03,10.69,25
17.45,-2.17,6.39,5.32,-9.57,4.25,-1.03,18.95,9.54,0.49,3.71,9.13,25
20.17,-2.08,5.76,0.24,-7.57,2.64,-1.83,16.54,8.97,-4.0,1.37,2.39,25
18.71,-2.43,5.59,2.29,-5.47,-0.59,-1.49,17.23,8.57,-2.54,1.03,1.46,25
18.17,-1.77,5.43,1.9,-2.54,-0.15,-0.07,18.21,10.65,-1.12,-7.67,-1.81,25
18.79,-1.59,6.1,-5.37,9.13,2.05,-1.59,18.66,9.92,22.36,17.19,-29.35,25
19.55,-2.97,8.49,-0.88,90.67,16.02,-2.14,20.13,9.96,11.96,9.67,-26.37,25
9.77,-5.93,12.85,3.91,209.81,42.97,-5.42,12.95,5.6,-17.09,13.72,71.44,25
-13.53,-5.25,-5.13,-103.52,291.6,-34.77,-3.01,15.61,6.72,-3.76,13.77,-21.14,25
-10.04,-6.37,16.2,10.4,4.74,-3.86,-2.53,17.88,8.28,-4.69,-6.69,2.39,25
-8.84,-8.69,19.0,-1.81,1.71,-11.28,-2.61,18.71,8.22,0.2,-10.45,-3.37,25
-9.02,-7.17,17.76,6.1,-6.64,-7.18,-2.41,18.39,7.89,-1.56,-16.02,8.3,25
-8.12,-8.01,19.53,5.03,-7.86,-4.93,-2.85,18.09,7.97,-0.54,-2.93,-0.15,25
-8.17,-7.51,18.88,5.27,-6.64,-3.08,-1.87,18.59,8.27,-1.03,-3.08,0.1,25
-7.93,-7.23,18.97,0.2,-1.27,-1.86,-2.36,18.19,8.1,-3.13,-0.24,1.86,25
-7.38,-7.48,19.86,5.08,-8.94,-0.73,-2.18,17.8,8.12,-1.61,-1.61,-0.83,25
-7.71,-7.35,18.75,-2.98,0.83,-0.34,-2.16,17.81,8.04,-2.3,-3.56,4.2,25
-7.06,-7.66,19.73,3.81,-8.35,-1.42,-1.71,18.13,8.33,-0.59,-0.44,0.0,25
23.55,-4.25,6.56,-5.08,-42.19,-0.73,-0.84,22.03,11.91,-4.64,0.59,12.11,26
18.7,-4.59,5.43,3.61,-6.98,-0.34,-2.06,18.57,10.67,-0.88,-1.61,7.57,26
18.41,-3.57,5.58,2.15,-1.66,3.47,-2.22,18.01,10.08,-1.76,-1.95,0.93,26
18.17,-4.51,5.2,-1.86,-0.59,4.64,-2.95,17.78,8.88,-1.95,0.44,-1.81,26
18.22,-5.03,6.28,2.2,9.52,5.22,-2.81,16.65,10.38,-1.61,-1.46,-7.62,26
21.13,-5.64,9.64,-22.27,120.51,19.29,-2.64,19.04,9.85,2.64,8.94,-17.48,26
10.13,-4.56,13.34,-6.3,172.22,32.47,-5.34,14.75,8.79,0.2,18.55,-38.92,26
5.26,-7.02,19.94,-35.99,128.76,-5.08,-5.95,16.67,9.5,-5.71,-2.93,22.75,26
1.02,-7.86,19.1,-2.78,16.55,-12.65,-5.23,16.93,9.08,-2.0,-4.1,5.76,26
0.88,-9.03,19.5,-5.76,7.28,-4.74,-4.52,17.29,10.0,-3.03,-4.3,3.66,26
1.01,-8.64,19.85,-2.1,2.54,-0.73,-4.61,17.09,9.69,-1.22,-2.69,2.98,26
0.76,-8.48,19.55,0.68,-2.05,0.63,-4.36,16.99,9.61,-1.61,-1.56,2.0,26
1.79,-8.8,20.66,2.88,-8.35,-0.83,-3.9,17.97,10.3,-0.78,-3.17,6.64,26
0.81,-8.87,18.5,4.78,-9.23,0.54,-4.58,17.06,9.64,1.07,-1.32,1.95,26
2.24,-8.06,20.06,-3.86,4.54,-0.63,-3.59,17.45,10.04,-2.1,-1.66,2.64,26
1.28,-8.33,19.18,2.88,-2.59,0.59,-3.81,16.68,9.5,-0.2,-0.29,1.61,26
2.05,-8.41,20.0,-0.68,-0.83,1.81,-3.67,17.31,10.09,-1.37,0.78,-0.34,26
1.92,-8.21,19.61,-0.34,-6.05,0.78,-3.65,16.89,9.85,-3.22,0.2,2.0,26
2.51,-8.42,20.09,1.07,-4.44,1.22,-3.42,17.35,10.31,-0.78,-0.49,2.34,26
1.96,-8.61,19.34,0.34,0.34,-0.98,-3.57,16.69,10.17,-0.2,-1.42,0.88,26
2.73,-8.36,20.26,-0.78,-3.03,-1.42,-2.57,17.18,9.94,2.39,-2.29,0.49,27
3.2,-7.57,19.63,4.69,-2.29,-1.95,-2.54,17.91,9.04,-0.24,1.32,3.91,27
3.51,-6.5,20.25,4.2,-4.54,1.76,-3.54,17.43,9.77,-1.17,-2.25,1.17,27
2.68,-7.87,19.75,1.12,-7.37,-0.54,-2.52,16.35,9.99,0.39,2.98,0.15,27
4.1,-7.97,19.18,6.69,-5.76,3.32,-2.56,17.41,9.97,-0.54,0.68,1.27,27
4.12,-7.13,19.84,2.78,-2.88,1.42,-2.56,17.34,9.45,2.83,-3.96,0.73,27
4.29,-6.27,19.93,3.66,-0.78,-3.47,-3.32,18.96,8.95,-0.34,-1.46,1.51,27
2.73,-6.29,20.97,0.68,-1.17,-0.59,-1.46,16.22,10.23,-1.51,2.73,-2.93,27
5.19,-7.54,18.89,-6.01,4.69,1.42,-2.42,18.06,8.59,4.54,0.29,0.73,27
3.64,-6.04,20.33,6.01,2.15,0.63,-2.09,18.4,10.93,-2.39,-0.15,0.34,27
4.21,-8.13,19.98,-3.56,1.56,0.34,-2.86,17.1,8.57,-0.68,1.27,2.44,27
3.25,-6.15,20.22,1.46,2.59,1.95,-2.17,17.64,9.76,-0.93,-3.12,1.71,27
3.01,-7.56,19.88,-20.17,32.57,-5.96,-2.59,16.79,9.35,-1.37,-0.24,1.32,27
1.44,-7.82,18.88,11.33,1.32,0.68,-2.71,17.73,9.33,-0.78,0.83,-0.34,27
1.8,-7.34,20.55,6.88,-11.18,2.15,-2.58,17.26,9.3,-0.78,1.71,1.86,27
2.51,-7.38,19.64,4.98,-11.96,1.76,-1.85,17.62,9.47,-1.95,0.88,-0.83,27
3.57,-6.74,20.41,-6.01,6.1,1.17,-3.12,17.18,9.58,0.83,-0.73,1.07,27
2.07,-8.38,19.78,-2.88,8.5,-1.71,-2.17,17.25,8.81,-0.15,0.54,0.88,27
2.2,-6.9,19.71,-0.68,4.3,1.86,-2.55,17.36,9.8,-1.47,1.51,-1.03,27
2.06,-8.21,20.14,0.24,-1.42,1.71,-2.33,17.56,9.21,-1.9,-0.2,3.91,27
20.1,-3.81,3.58,-4.3,-27.64,-4.74,-1.52,17.38,11.16,-5.96,-2.34,12.45,28
19.4,-2.71,2.92,-2.3,-2.25,1.51,-1.48,16.91,10.03,-0.44,-1.17,-0.54,28
18.91,-2.82,2.85,1.9,-0.1,0.24,-1.52,16.95,10.43,0.73,2.44,1.66,28
19.22,-3.0,3.12,1.12,2.0,2.25,-1.39,17.29,10.52,0.54,0.24,-1.76,28
19.22,-3.46,3.56,-4.88,19.04,5.32,-1.63,17.56,10.55,3.61,4.3,-7.57,28
18.9,-3.72,5.75,-1.17,50.05,6.59,-1.94,17.49,10.27,4.54,0.54,-8.06,28
20.8,-3.23,12.16,-12.16,144.19,29.98,-2.28,18.01,10.43,-0.0,6.59,-15.87,28
14.75,-4.55,23.34,-21.24,348.93,29.54,-6.14,11.83,7.37,3.91,19.24,8.69,28
-2.28,-9.05,20.33,-25.1,65.38,8.59,-3.86,15.73,9.63,-2.93,13.53,0.0,28
-5.95,-7.95,18.69,-5.66,23.24,-4.35,-4.04,17.02,8.43,-0.49,0.78,-0.83,28
-5.87,-10.2,18.72,-3.76,8.69,-4.54,-3.23,18.2,10.37,-1.95,-4.25,1.07,28
-3.93,-9.8,21.86,4.88,-11.23,-8.3,-2.08,20.48,10.52,-3.56,-14.89,19.68,28
-5.64,-9.42,19.91,2.2,-2.69,-0.2,-3.35,18.1,9.54,0.83,-4.44,1.71,28
-5.65,-8.85,20.0,2.88,-4.83,-0.83,-3.32,17.72,9.46,-0.88,-1.66,2.39,28
-5.87,-8.69,18.86,3.52,-4.64,-0.54,-3.27,17.37,9.44,-0.59,-3.37,2.59,28
-5.73,-8.7,19.08,1.42,-1.17,0.54,-3.25,17.17,9.36,-0.15,0.49,-1.46,28
-5.47,-8.58,19.63,2.83,-4.05,-1.17,-3.11,17.39,9.3,-0.93,-2.05,2.34,28
-5.42,-8.65,18.92,0.29,-0.05,1.27,-2.97,16.98,9.58,-0.39,0.68,-0.05,28
-5.06,-8.6,19.67,0.1,-0.93,0.44,-2.98,17.38,9.53,-0.63,0.39,-1.12,28
-5.2,-8.53,19.75,1.71,-3.03,0.63,-2.85,17.71,9.73,-1.32,-0.29,0.63,28
21.24,-3.45,13.1,-25.1,-139.45,-6.64,-2.7,19.88,11.62,-1.37,-2.73,17.38,29
18.69,-3.61,6.5,-7.18,-42.24,-2.78,-3.11,16.68,9.05,-5.62,-2.25,9.57,29
17.92,-2.73,4.53,-1.76,-20.31,-2.0,-2.99,17.04,8.94,-5.57,-0.29,8.79,29
19.55,-2.81,3.62,1.46,-5.96,-2.49,-2.34,16.95,10.1,-1.81,-0.73,8.15,29
19.16,-2.87,4.18,-4.79,7.28,5.42,-2.1,17.41,9.98,-0.1,1.95,-4.3,29
18.42,-3.44,4.58,-8.06,14.5,10.3,-2.54,16.88,9.89,0.24,2.15,-10.11,29
20.98,-3.89,8.0,3.03,78.71,5.22,-2.92,17.42,10.07,3.66,0.78,-6.69,29
15.72,-5.3,14.04,-5.37,108.74,17.29,-3.81,16.4,9.29,1.12,9.23,-18.12,29
4.69,-5.05,13.1,-30.86,257.67,16.02,-5.05,14.58,9.04,-3.52,17.09,-8.25,29
-1.11,-8.53,19.41,-24.71,89.01,2.93,-4.26,19.48,10.74,-13.09,15.58,10.6,29
-5.61,-7.78,17.62,-7.37,31.01,5.13,-5.74,15.54,8.5,0.73,13.62,-9.28,29
-6.07,-8.95,17.42,4.44,-6.49,-4.59,-5.24,16.61,9.43,-2.88,-2.39,1.42,29
-5.49,-9.04,17.88,-2.1,-1.22,1.66,-4.99,16.96,9.87,-2.54,1.17,-3.71,29
-4.87,-8.77,19.63,1.12,-3.03,-0.15,-4.97,17.34,10.25,-2.25,-2.78,1.56,29
-4.67,-8.96,19.91,-0.15,-0.59,-1.22,-4.5,17.17,10.36,-1.76,-1.46,1.12,29
-4.88,-8.52,19.15,1.86,-3.86,-1.17,-4.65,17.13,10.12,-1.37,-2.15,1.51,29
-4.81,-8.54,19.08,-3.13,6.49,0.68,-4.74,16.99,10.02,-0.63,-0.15,-1.17,29
-4.04,-8.54,20.82,2.1,-3.17,-0.34,-4.84,16.53,10.08,-1.66,-0.54,1.9,29
-4.38,-8.42,19.89,3.17,-3.91,-0.88,-4.73,16.3,9.97,-1.95,-1.12,1.56,29
-4.62,-8.44,19.13,1.61,-2.34,0.73,-4.59,16.28,9.99,-0.83,-0.24,0.24,29
16.38,-0.33,16.4,-6.25,-111.77,4.2,-3.3,17.94,6.37,-0.73,-3.12,5.42,30
15.5,0.03,11.68,-6.79,-61.57,-0.59,-2.52,18.6,7.36,-1.07,-0.63,4.74,30
17.8,-0.91,9.84,-0.98,-26.56,0.59,-1.88,18.7,7.48,-3.61,-8.11,17.24,30
17.35,-1.49,8.21,-1.37,-27.25,-3.08,-1.09,18.13,7.39,-1.12,-2.64,8.25,30
17.18,-0.92,7.67,2.49,-10.21,0.63,-1.5,18.07,7.17,0.63,2.15,-1.46,30
17.77,-0.75,7.56,2.78,2.64,2.25,-1.51,18.83,7.2,0.49,3.08,-3.08,30
18.15,-0.93,8.27,5.27,5.22,1.95,-1.27,18.77,7.69,-0.63,-0.2,-1.95,30
17.69,-0.84,8.63,1.12,6.59,1.56,-1.6,18.36,7.2,-2.05,1.07,0.83,30
17.0,-0.83,8.73,-0.63,2.25,1.9,-1.69,18.34,7.38,-1.42,-0.24,-0.2,30
17.19,-0.77,8.83,-2.3,0.59,2.25,-1.7,18.56,7.62,0.93,0.05,-2.15,30
17.34,-1.06,9.19,-0.98,2.64,0.59,-2.11,18.38,6.7,0.39,1.42,-9.67,30
18.08,-0.86,11.74,1.27,57.91,5.22,-2.63,18.47,7.79,6.45,0.15,-16.16,30
17.77,-1.22,16.96,1.46,95.51,14.31,-2.74,18.87,7.02,-2.0,-1.37,1.22,30
10.05,-1.8,19.42,-47.12,190.09,2.0,-3.56,17.01,6.06,0.49,4.25,-4.15,30
-0.59,-5.47,20.14,-22.51,91.06,-1.42,-2.92,18.64,6.72,2.2,2.54,1.51,30
-4.9,-6.45,18.6,-7.52,24.61,-10.69,-3.05,18.53,6.99,-0.39,-1.51,-1.37,30
-5.31,-6.88,19.47,-7.72,-2.05,-11.47,-2.84,19.48,7.29,0.1,-2.54,1.17,30
-3.91,-4.95,22.35,-19.29,21.83,-2.69,-3.23,18.39,6.73,-0.0,-1.51,-0.63,30
-4.86,-7.4,20.39,-0.05,-0.83,-0.39,-2.82,18.68,7.37,-0.78,-2.15,4.64,30
-6.29,-7.23,18.62,9.47,-3.37,3.96,-2.78,18.8,6.71,1.37,-0.34,3.42,30
3.15,-6.76,20.35,1.12,-1.37,0.24,-3.07,17.99,7.08,-0.68,0.2,0.78,31
2.97,-7.1,19.92,0.39,-3.52,1.12,-3.0,18.18,7.15,-0.63,0.73,-0.93,31
3.01,-7.12,19.85,-0.73,-1.12,1.42,-2.9,18.73,7.21,-0.34,0.39,-2.29,31
3.35,-6.91,20.3,0.73,-2.1,0.83,-2.87,18.81,7.42,-0.24,0.54,0.83,31
3.32,-6.93,20.29,0.15,-0.44,0.73,-2.92,18.59,7.35,-0.83,0.39,1.07,31
3.29,-6.79,20.24,2.1,-0.78,1.51,-2.97,18.42,7.28,-0.73,0.49,1.76,31
3.03,-7.25,19.72,0.63,-1.9,0.59,-3.1,18.19,7.1,-0.88,0.05,1.12,31
2.99,-6.98,19.82,0.34,-0.49,0.49,-3.06,18.06,7.1,-0.93,0.68,-0.2,31
3.13,-6.94,19.85,0.93,-0.98,1.61,-3.01,18.45,7.09,-0.68,0.83,0.44,31
3.28,-7.06,20.13,1.22,-0.44,1.32,-2.89,18.5,7.37,-0.63,0.39,0.34,31
3.46,-7.06,20.34,1.56,1.61,0.93,-2.95,18.54,7.32,-0.49,0.2,0.15,31
3.37,-6.88,20.38,1.9,-1.12,0.54,-2.98,18.57,7.18,-0.63,0.68,-0.15,31
3.23,-6.96,20.17,1.17,-1.42,0.44,-2.97,18.3,7.35,-0.39,0.39,1.46,31
2.65,-7.26,19.43,1.42,-1.32,0.83,-3.08,17.93,7.02,-0.2,0.44,-0.68,31
2.87,-6.84,19.74,0.34,-0.29,1.46,-2.42,18.39,8.34,7.28,7.57,-2.34,31
3.04,-6.77,20.03,0.88,0.24,1.12,-3.14,18.8,7.24,-24.95,52.83,-30.03,31
3.2,-6.65,20.37,-0.05,-0.15,0.83,-6.14,14.14,5.92,-18.21,17.58,15.72,31
3.28,-6.96,20.31,-0.15,-1.07,0.68,-4.19,17.92,9.05,-10.79,-5.42,8.64,31
3.03,-6.83,20.03,0.29,-1.46,0.78,-4.36,17.42,8.42,-5.57,-5.76,8.59,31
3.08,-6.95,20.1,0.73,-1.32,0.93,-3.73,17.63,9.19,-0.24,-2.0,1.95,31
15.28,-5.07,11.52,10.4,-106.15,-26.27,-8.04,13.47,5.63,-28.27,11.52,2.34,32
17.28,-2.86,8.51,11.23,-37.55,6.79,-6.1,18.11,8.44,-8.4,-21.73,36.96,32
19.29,-4.4,4.65,23.0,-43.16,-10.89,-3.76,18.55,9.41,-0.88,-3.86,9.23,32
20.16,-2.41,5.18,8.35,-13.28,-0.05,-3.97,16.85,9.94,0.73,-4.3,3.56,32
18.61,-2.6,5.0,1.22,-3.22,1.07,-3.66,17.61,8.95,4.15,-5.52,0.59,32
18.45,-2.08,5.11,-0.73,2.44,0.83,-3.21,18.1,9.53,4.2,-3.96,-3.08,32
18.98,-2.37,5.5,-2.44,9.13,1.71,-4.03,18.13,8.18,6.15,-3.32,-1.51,32
18.36,-2.81,7.03,-1.47,48.34,6.25,-3.37,17.29,9.6,9.91,-9.67,-23.0,32
16.33,-3.68,10.57,-15.28,113.77,32.28,-4.38,18.15,7.74,4.83,-3.47,-3.03,32
9.59,-2.3,11.83,-2.88,143.46,17.68,-3.62,18.86,9.27,5.03,0.05,1.46,32
8.41,-6.41,18.18,-33.2,77.49,10.45,-4.88,17.73,6.51,-0.54,6.35,-2.83,32
4.6,-6.86,19.69,-24.32,70.46,16.65,-4.8,16.88,7.71,-1.56,0.78,-2.93,32
0.77,-10.02,17.78,-24.61,45.56,2.73,-4.76,16.83,6.93,-2.0,-2.15,8.64,32
-0.63,-9.82,17.19,15.43,-10.3,1.37,-4.16,18.29,7.05,0.29,-0.93,-2.69,32
1.05,-8.19,20.42,6.35,-0.29,0.68,-3.89,18.76,7.56,1.32,-1.37,-0.05,32
1.42,-8.78,20.15,1.56,0.34,1.27,-3.78,18.42,7.71,0.44,-3.08,3.96,32
1.32,-8.88,19.91,3.32,-5.37,-0.98,-3.92,18.24,7.11,0.68,-2.25,4.35,32
1.2,-8.22,19.83,2.49,-4.93,-0.63,-3.91,17.86,6.96,-0.1,-0.15,1.27,32
1.27,-8.45,19.58,1.66,-1.81,1.66,-3.87,17.6,7.12,-0.34,0.34,-0.98,32
1.38,-8.78,19.49,-1.07,-0.59,1.07,-3.8,18.02,6.94,-0.54,0.24,-0.68,32
5.99,-6.51,19.01,0.98,-3.22,0.59,-2.27,18.34,7.63,-0.59,-0.34,0.0,33
6.17,-7.0,18.82,-0.63,-1.27,0.54,-2.1,18.49,7.31,0.1,-0.15,2.78,33
6.38,-6.95,18.92,1.9,-5.96,-0.34,-1.95,18.27,7.32,0.2,0.0,1.27,33
6.86,-6.34,19.14,1.86,-1.37,0.44,-1.77,18.32,7.74,0.44,-0.83,2.0,33
6.85,-6.57,18.87,2.54,0.98,1.17,-2.07,18.7,7.37,0.49,0.05,-0.83,33
6.45,-6.48,19.19,0.54,1.56,1.22,-1.73,18.41,7.52,-1.22,2.05,1.22,33
6.87,-6.53,18.93,2.73,-2.1,2.29,-2.17,18.24,7.26,-0.44,-0.49,0.24,33
6.3,-6.78,18.82,-0.78,-1.9,0.78,-2.0,18.28,6.94,-1.42,0.29,-0.2,33
6.55,-6.66,18.85,0.1,-1.27,1.71,-1.89,18.45,7.51,-0.54,1.27,0.34,33
6.77,-6.48,19.05,2.05,-0.93,1.37,-2.12,18.43,7.05,-1.22,0.49,-0.2,33
6.57,-6.48,19.27,-1.76,1.86,1.56,-2.08,18.3,7.14,-0.44,0.63,-0.68,33
6.45,-6.45,18.95,6.79,-1.71,3.96,-2.17,18.05,7.76,-1.07,0.63,-1.27,33
6.45,-6.97,18.98,-2.3,0.93,1.46,-2.05,18.73,7.44,-1.56,0.39,1.17,33
6.64,-6.59,19.27,-1.76,-0.29,-0.24,-2.11,18.46,7.42,-1.56,0.73,1.12,33
6.45,-6.53,19.26,-1.07,-0.39,0.63,-2.14,18.21,7.61,-0.59,0.05,0.34,33
6.22,-6.93,18.8,0.63,-0.59,0.93,-2.11,18.37,7.57,-0.88,0.39,0.15,33
6.61,-6.74,19.27,0.98,-1.81,1.07,-2.16,18.29,7.5,-0.59,0.24,1.27,33
6.36,-6.88,18.94,0.34,-1.51,0.44,-2.14,18.0,7.71,-0.88,0.0,-0.1,33
6.03,-6.87,18.65,0.15,-0.29,1.17,-2.17,18.26,7.37,-0.54,0.83,-1.07,33
6.09,-6.69,18.99,-0.0,0.83,1.42,-2.06,18.5,7.71,-0.63,0.0,0.63,33
0.68,-7.91,20.47,-0.68,0.39,1.56,-1.77,18.01,8.03,-0.44,-0.29,0.2,34
0.63,-7.56,20.5,1.03,-1.03,1.32,-1.77,18.22,7.7,-0.88,0.2,-0.1,34
0.49,-8.17,19.98,-0.34,0.15,1.32,-1.74,18.42,8.05,-0.78,0.54,1.17,34
0.32,-8.22,19.67,-0.05,-1.17,0.39,-1.83,18.01,7.92,-0.93,0.73,-1.03,34
0.46,-7.67,20.16,1.03,-1.12,0.88,-1.74,18.31,7.81,-0.68,0.63,-0.54,34
0.21,-8.13,19.68,1.86,-2.73,0.54,-1.71,18.4,8.04,-0.54,0.05,1.9,34
0.26,-8.11,19.77,0.2,-0.78,0.44,-1.74,17.96,8.06,-1.07,0.15,1.12,34
0.25,-7.8,19.98,-0.93,1.27,1.32,-1.76,18.26,7.8,-0.78,-0.05,0.78,34
0.51,-7.99,20.26,1.56,-1.46,1.07,-1.8,18.03,7.82,-0.83,0.59,0.24,34
0.47,-8.03,20.04,0.98,-1.22,0.83,-1.76,18.08,7.94,-0.68,0.39,-0.29,34
0.49,-7.88,20.15,0.98,-1.61,0.93,-1.69,18.56,7.82,-0.2,0.68,-0.15,34
0.38,-8.05,19.85,1.46,-2.25,0.68,-1.73,18.1,8.07,-0.44,0.54,0.49,34
0.43,-7.89,20.01,-0.49,-0.15,0.63,-1.67,18.25,8.06,-0.68,0.2,-0.39,34
0.46,-7.69,20.28,1.42,-1.56,0.88,-1.71,18.24,7.88,-0.63,0.59,-0.73,34
0.3,-7.96,19.79,0.39,-1.03,0.83,-1.71,18.22,7.92,-0.59,0.39,0.34,34
0.26,-8.06,19.75,0.63,-0.88,0.54,-1.69,18.28,8.02,-1.03,0.24,0.24,34
0.33,-7.88,19.92,0.93,-1.27,0.93,-1.73,18.32,7.84,-0.73,0.49,0.83,34
0.38,-8.02,19.91,0.73,-0.93,1.12,-1.71,18.23,7.95,-0.63,-0.15,0.98,34
0.52,-7.96,20.11,1.32,-0.29,0.54,-1.73,18.01,7.91,-0.98,0.0,0.83,34
0.47,-7.9,20.22,0.73,-0.15,1.03,-1.68,18.25,7.81,-0.68,0.29,0.83,34
19.26,-3.56,5.75,-30.13,-37.6,-1.71,-2.93,17.16,7.89,-5.71,-7.37,11.91,35
17.85,-3.35,4.44,-9.03,4.1,-5.37,-2.08,17.1,8.25,-0.0,-3.76,3.52,35
18.17,-3.35,4.37,2.0,-0.83,-0.05,-1.43,17.74,9.1,0.29,-4.64,3.61,35
18.38,-2.68,4.77,-0.24,-0.59,2.73,-1.5,17.94,8.45,-0.78,-0.24,-1.71,35
18.56,-2.66,4.63,-1.32,-1.37,0.1,-1.48,18.09,8.9,0.15,-2.39,0.68,35
18.57,-2.93,4.63,1.71,1.32,2.1,-1.56,18.05,8.56,-0.34,-0.24,-0.68,35
18.42,-3.08,4.83,1.56,1.71,0.63,-1.53,17.77,8.67,0.05,-0.1,0.63,35
19.02,-2.72,5.26,2.34,3.76,0.68,-1.68,17.59,8.59,-2.25,4.1,2.29,35
17.71,-3.07,5.11,0.34,5.91,1.27,-1.62,17.95,8.67,-0.88,1.12,0.93,35
18.11,-2.87,5.81,-0.29,-1.27,1.03,-1.22,17.73,8.99,-1.9,-0.24,0.15,35
18.2,-2.67,6.01,-0.0,-0.2,1.27,-1.59,17.9,8.25,-0.39,0.1,-0.49,35
18.07,-2.78,5.96,-2.59,8.74,2.83,-1.03,18.09,9.13,0.98,-2.73,-0.44,35
18.03,-2.99,6.49,0.24,8.25,2.78,-1.38,17.96,8.53,-0.39,-0.34,-0.15,35
18.09,-2.99,7.0,-0.1,0.68,0.2,-1.42,18.08,8.35,0.44,-0.49,-0.34,35
18.27,-3.05,7.23,-0.34,3.22,1.12,-1.39,18.32,8.35,0.1,-0.05,0.15,35
18.45,-4.2,8.62,-8.74,125.88,34.33,-1.35,19.02,8.32,0.68,-2.05,-12.94,35
9.79,-2.98,15.36,33.64,107.42,22.36,-3.1,14.45,7.78,2.93,4.98,-0.63,35
10.79,-5.05,20.51,-36.47,198.24,12.7,-1.79,18.14,8.49,1.37,-1.17,7.62,35
0.37,-8.79,19.41,-75.44,227.05,10.3,-1.37,18.06,8.07,6.01,11.47,-3.27,35
-8.62,-9.36,15.1,1.32,7.42,-0.34,-2.92,15.43,6.53,-0.98,0.49,-1.12,35
-3.28,-8.74,19.68,0.73,-1.81,0.88,0.86,18.19,7.79,-0.63,0.59,0.59,36
-3.25,-8.66,19.91,0.34,-1.07,0.83,0.87,18.0,7.87,-0.83,0.1,0.54,36
-3.17,-8.79,19.79,0.83,-1.61,0.68,0.86,18.02,7.88,-1.03,0.39,0.29,36
-3.2,-8.84,19.67,0.68,-2.29,0.59,0.84,18.02,7.84,-0.54,0.68,-0.1,36
-3.18,-8.79,19.68,0.05,-0.78,1.03,0.89,18.19,7.91,-0.68,0.68,0.1,36
-3.12,-8.72,19.92,0.05,-0.49,1.07,0.83,18.12,7.87,-0.44,0.78,0.49,36
-3.08,-8.71,19.81,1.07,-2.0,1.07,0.86,18.05,8.01,-0.68,0.49,-0.29,36
-3.08,-8.83,19.65,0.1,-1.37,0.78,0.88,18.22,7.84,-0.68,0.93,-0.59,36
-3.13,-8.66,19.6,-0.54,-0.44,1.03,0.98,18.13,7.99,-0.63,0.49,0.29,36
-3.07,-8.61,19.74,1.12,-2.44,1.17,0.75,18.14,8.0,-1.17,0.49,1.17,36
-2.86,-8.73,19.84,0.68,-2.49,0.83,0.88,18.13,7.87,-0.54,0.39,1.03,36
-2.73,-8.57,20.03,2.34,-4.35,1.17,0.93,18.18,8.05,-0.98,0.54,0.29,36
-2.54,-8.61,20.08,-0.34,-0.88,1.12,0.89,18.15,7.99,-0.93,0.54,0.98,36
-2.56,-8.57,20.12,1.12,-2.59,0.98,1.01,18.16,8.16,-1.27,0.59,1.12,36
-2.4,-8.58,20.09,0.98,-3.91,0.88,0.95,17.94,8.07,-0.78,0.39,0.54,36
-2.42,-8.61,19.8,1.46,-3.03,0.63,1.0,17.99,8.05,-1.27,0.34,0.93,36
-2.24,-8.47,19.97,1.27,-3.66,0.68,1.04,17.92,8.01,-0.34,0.2,1.32,36
-2.14,-8.33,19.9,2.88,-4.64,1.27,1.08,17.82,8.06,-0.88,0.39,0.54,36
-1.92,-8.41,19.99,2.34,-4.25,1.17,1.07,17.87,8.06,-1.03,0.49,0.98,36
-1.47,-8.2,20.36,5.42,-9.67,1.71,1.2,18.0,8.05,-1.32,0.0,1.22,36
17.42,-2.92,8.52,-14.65,-92.53,-8.5,-3.46,16.83,8.07,-14.75,5.18,13.38,37
17.46,-2.51,6.15,1.71,-36.72,-0.29,-2.46,17.42,8.16,-10.4,-3.37,20.07,37
21.21,-3.06,4.01,-4.49,-21.34,-4.35,-1.53,17.5,9.23,-3.91,3.27,0.44,37
18.52,-2.71,3.63,-3.47,-8.06,0.39,-0.75,18.2,10.02,-2.0,-0.68,3.52,37
18.18,-2.43,3.44,-1.03,-4.35,1.81,-0.69,17.88,9.89,-0.39,-4.15,2.93,37
18.53,-2.65,3.27,0.49,-1.17,2.34,-0.95,17.72,9.4,-0.73,0.1,0.88,37
18.47,-2.78,3.16,-0.88,-0.59,1.66,-0.95,17.18,9.49,-1.32,0.83,0.0,37
18.59,-2.4,3.48,0.2,-0.15,1.71,-0.6,17.38,10.24,-1.37,-1.37,0.63,37
18.73,-2.43,3.7,-0.44,4.49,2.29,-1.21,17.41,9.06,1.46,-1.17,-1.95,37
18.77,-2.84,3.93,-1.76,5.62,2.93,-0.91,17.62,9.5,1.9,-0.54,-2.15,37
18.12,-2.75,3.94,0.15,8.98,2.54,-0.86,17.28,9.63,1.46,-2.59,-1.76,37
18.39,-2.95,4.64,1.86,3.86,1.86,-1.23,17.6,9.05,1.07,-1.32,-0.73,37
18.62,-3.02,5.68,2.54,31.2,6.25,-1.19,18.81,9.24,5.57,-4.54,-4.59,37
17.55,-4.92,9.54,5.22,201.17,45.85,-2.2,16.11,8.76,7.52,18.12,-28.12,37
3.88,-3.01,11.15,-111.28,272.46,8.01,-2.83,16.7,6.9,4.54,-3.17,37.84,37
-0.77,-11.71,18.32,-15.23,91.7,7.03,-1.2,18.61,8.25,1.37,2.05,-1.9,37
-2.64,-10.5,18.27,6.59,-5.08,-1.61,-0.89,18.27,7.76,1.66,-2.15,2.83,37
-2.91,-11.29,17.49,0.49,-4.49,-4.0,-0.88,17.54,7.65,-2.49,-3.12,3.47,37
-1.65,-11.63,19.78,0.93,-0.1,-1.27,-0.2,18.28,8.06,-0.2,-11.13,-1.22,37
-1.53,-11.33,19.46,0.63,-4.0,-2.54,-0.21,18.44,7.86,-0.24,-3.66,-0.05,37
0.78,-7.94,19.87,1.81,-2.69,1.81,0.75,18.16,7.91,-0.34,0.68,0.0,38
1.08,-8.2,19.98,1.12,-0.1,1.95,0.78,18.17,7.96,-0.93,0.34,0.15,38
0.88,-7.99,20.52,2.25,2.25,1.76,0.77,18.47,7.75,0.98,0.05,1.76,38
0.71,-8.2,20.25,-1.07,1.32,0.05,0.68,18.43,7.77,-0.68,-0.93,0.39,38
0.76,-8.11,20.09,0.05,-0.63,0.15,0.76,18.28,7.64,-0.39,-0.1,0.34,38
0.68,-8.1,19.95,0.34,-1.71,0.39,0.72,18.11,7.53,-0.24,0.15,-0.15,38
0.69,-7.86,20.04,1.07,-1.61,1.17,0.72,18.38,7.5,-0.54,0.78,0.63,38
0.77,-8.08,20.05,0.63,-1.22,0.78,0.72,18.17,7.61,-0.54,0.59,0.44,38
0.65,-8.03,20.05,1.07,0.49,1.32,0.71,18.27,7.56,-0.24,-0.05,0.39,38
0.81,-7.99,20.47,-0.0,-0.24,0.98,0.7,18.39,7.49,-0.54,0.34,0.73,38
0.64,-8.02,20.12,0.78,-1.27,0.68,0.62,17.95,7.5,-0.59,0.44,0.83,38
0.84,-8.04,20.26,0.83,-1.32,0.68,0.76,18.3,7.55,-0.73,-0.05,0.68,38
0.77,-8.09,20.14,1.22,-1.66,0.44,0.68,18.46,7.53,-0.49,0.0,0.68,38
0.75,-8.13,20.1,0.54,-0.83,1.17,0.77,18.34,7.76,-0.63,0.34,0.05,38
0.71,-8.12,19.99,-0.15,-0.68,0.29,0.68,18.17,7.46,-0.73,0.49,0.29,38
0.34,-7.94,19.92,0.54,-0.1,1.07,0.72,18.18,7.49,-0.44,0.54,-0.34,38
0.72,-8.15,20.1,-0.0,1.22,1.07,0.67,18.48,7.5,0.15,0.68,-1.51,38
0.87,-7.87,21.09,5.57,2.2,0.15,0.74,19.49,7.58,4.88,-0.39,-4.25,38
3.1,-7.86,9.37,123.49,-209.57,9.13,1.75,22.93,10.85,13.77,-5.37,-43.55,38
18.77,-2.56,13.97,-32.76,-167.72,-12.4,-6.69,14.24,2.84,-18.99,46.19,-1.46,38
-6.03,-9.27,18.57,-0.73,0.54,0.98,-0.4,18.41,7.31,-0.83,0.34,-0.78,39
-5.59,-9.28,19.59,0.83,-3.22,0.59,-0.27,18.7,7.49,-1.42,0.59,1.76,39
-5.69,-9.37,18.9,2.49,-2.98,0.59,-0.46,18.0,7.07,-0.24,0.1,1.03,39
-5.46,-9.14,19.53,1.03,-2.29,1.17,-0.24,18.69,7.24,-0.78,1.17,1.81,39
-5.41,-8.96,19.37,4.44,-4.44,0.93,-0.24,18.24,7.22,0.88,0.59,0.83,39
-5.26,-9.02,19.47,1.71,-2.49,1.12,-0.47,18.08,6.79,0.39,2.44,-0.88,39
-5.44,-8.82,19.21,0.93,-1.17,1.12,-0.36,18.38,7.01,-0.63,0.2,-0.59,39
-5.36,-8.86,19.5,0.1,0.24,1.22,-0.34,18.55,6.91,0.98,-1.27,-2.05,39
-5.44,-8.96,19.34,0.1,0.24,1.95,-0.57,18.35,6.07,1.46,-13.67,-1.9,39
-5.62,-8.59,19.49,0.44,0.54,2.49,-0.21,18.91,6.71,-0.0,-2.0,-1.32,39
-5.76,-8.75,19.12,0.34,0.2,1.56,0.18,18.78,7.37,0.63,0.73,-0.34,39
-5.65,-8.78,19.21,0.49,-1.12,0.54,-0.09,18.56,7.06,-1.03,8.3,1.07,39
-5.65,-8.77,19.14,-0.24,-1.22,0.68,-0.51,18.47,6.37,-2.78,2.93,1.22,39
-5.57,-8.88,19.32,0.49,-1.32,0.54,-0.34,18.57,6.74,-1.07,0.49,0.98,39
-5.54,-8.95,19.22,1.61,-1.71,0.49,-0.34,18.42,6.71,-0.54,0.0,0.54,39
-5.52,-8.95,19.47,0.49,-1.22,0.68,-0.28,18.65,6.73,-0.78,0.44,0.54,39
-5.51,-8.85,19.35,0.2,-2.59,0.54,-0.2,18.56,6.74,-1.51,0.73,1.03,39
-5.41,-8.75,19.39,1.81,-2.2,1.03,-0.16,18.6,6.85,-0.49,0.24,1.07,39
-5.19,-8.85,19.66,1.42,-2.2,0.68,-0.17,18.52,6.83,-0.59,0.39,1.07,39
-5.31,-8.77,19.32,1.51,-3.03,0.73,-0.17,18.45,6.79,-1.03,0.49,0.68,39
16.46,-10.78,8.78,-67.43,-236.47,-22.22,-3.4,18.01,6.46,-14.55,5.57,26.12,40
20.52,-2.66,7.76,-7.86,-61.62,1.46,-2.81,16.73,8.45,-12.55,-12.7,7.91,40
18.64,-2.9,4.47,-6.88,-25.05,-1.17,-1.66,18.69,9.5,-5.22,-13.77,15.67,40
18.28,-2.38,4.2,1.22,-3.47,1.46,-1.4,18.33,8.45,-1.27,-7.47,4.0,40
18.52,-2.53,3.94,-0.2,-0.34,1.46,-1.01,17.89,8.91,-0.2,-4.2,0.39,40
18.23,-2.79,4.03,0.59,1.76,2.29,-0.57,17.8,9.47,1.71,-8.79,0.63,40
18.51,-2.65,4.06,-0.05,-0.39,1.86,-0.74,18.03,9.4,-1.12,-2.0,1.22,40
18.52,-2.91,4.05,2.0,-0.39,2.34,-1.49,18.29,7.78,0.83,3.86,1.32,40
18.56,-2.83,4.16,-2.0,-2.25,0.44,-1.28,17.63,8.52,-0.68,1.03,0.1,40
18.44,-2.58,4.13,0.2,0.15,1.27,-0.66,17.61,9.66,-1.51,-1.95,1.66,40
18.3,-2.51,4.02,0.63,0.39,0.78,-0.8,17.95,8.99,-1.07,-0.2,-0.24,40
18.74,-3.28,4.67,4.2,4.3,4.0,-1.28,18.0,8.42,0.98,0.1,0.15,40
19.54,-2.57,6.79,0.05,55.86,7.62,-0.57,19.78,9.63,5.91,-2.2,-14.75,40
14.39,-4.0,9.83,4.54,157.42,25.93,-2.84,16.77,7.27,-1.56,18.41,-9.57,40
10.59,-4.64,16.85,-35.84,219.87,18.46,-1.73,19.26,9.03,2.0,0.34,31.54,40
-1.73,-7.12,19.99,-29.49,97.61,7.96,-0.74,18.14,8.79,-0.05,7.37,2.15,40
-5.83,-9.38,17.75,-4.93,25.15,-6.01,-1.43,17.83,7.93,-1.42,-6.84,3.42,40
-5.71,-9.56,18.62,4.25,3.22,-6.4,-0.86,18.26,8.73,-1.03,-2.15,0.29,40
-5.57,-9.44,18.57,0.2,1.86,-0.88,-0.9,18.71,8.1,7.67,2.59,-1.71,40
-4.91,-9.48,19.37,6.15,-6.45,-4.1,-1.35,17.65,7.78,0.49,5.91,-0.49,40
17.13,-3.08,7.15,-9.86,-84.37,-3.08,-1.21,17.27,10.06,-0.88,-1.42,-0.73,41
19.1,-1.28,3.95,-2.54,-21.24,-3.71,-1.39,17.49,9.64,-0.54,-0.24,-0.68,41
18.2,-2.0,3.26,1.95,-2.98,1.37,-1.43,17.46,9.9,1.56,-0.39,-2.93,41
19.01,-1.7,3.28,0.78,0.34,1.51,-2.73,18.9,8.42,10.69,2.83,-20.75,41
18.79,-1.81,3.47,0.98,0.98,1.37,-4.21,16.51,7.91,6.15,12.7,-27.73,41
18.82,-2.04,3.41,0.83,-0.29,2.15,-3.78,15.5,7.05,15.14,-2.49,23.14,41
18.65,-2.07,3.42,-0.83,-0.88,1.95,-1.39,20.2,9.14,8.64,2.88,33.79,41
20.42,-2.07,5.66,-5.52,31.98,3.56,-1.64,16.81,7.35,-3.22,4.39,-7.13,41
20.67,-2.62,9.01,-14.4,111.82,28.56,-1.53,18.15,7.74,-4.1,10.45,9.52,41
10.02,-3.71,11.29,-12.99,181.15,27.25,-0.72,19.41,8.16,-5.96,0.44,12.11,41
3.59,-6.29,17.02,-79.69,249.8,-8.15,-0.48,18.46,8.38,-2.15,-3.12,1.12,41
-5.43,-9.76,20.9,-2.83,56.4,0.83,0.3,18.22,9.46,-2.64,-10.89,0.0,41
-6.33,-7.83,17.31,-5.96,0.49,-0.83,-0.02,18.68,7.8,1.9,-5.47,1.03,41
-5.01,-8.71,19.57,11.28,-24.37,4.98,-0.39,18.31,7.77,0.59,0.98,0.54,41
-4.27,-7.81,21.17,5.57,-11.82,0.68,-0.57,17.6,7.96,-1.56,-1.9,0.93,41
-4.41,-7.76,19.89,-0.1,-2.54,0.34,-0.09,18.22,8.14,-1.9,-1.37,1.37,41
-4.36,-8.15,19.52,-0.93,-1.9,1.27,-0.28,18.01,7.7,-1.17,0.73,0.1,41
-4.34,-7.56,19.94,1.66,-1.03,-0.44,-0.26,17.58,7.92,-1.86,0.0,-0.88,41
-4.07,-7.25,20.75,1.76,0.05,1.46,0.16,18.18,7.97,-1.22,-8.45,2.15,41
-4.19,-7.98,19.68,2.93,-3.96,0.88,-0.12,18.05,8.02,-1.37,-1.27,2.44,41
19.88,-3.56,4.62,-23.83,-44.43,2.29,-1.89,16.43,9.58,-3.86,-3.32,3.27,42
18.68,-3.26,3.98,8.2,6.35,0.98,-1.68,17.19,9.75,-2.49,-1.22,1.03,42
18.5,-2.73,3.7,-1.27,-1.86,1.66,-1.36,17.3,10.02,-2.0,-1.71,0.34,42
18.68,-2.92,3.41,-0.59,-2.0,2.0,-1.44,17.47,9.68,-0.59,-0.1,0.49,42
18.56,-2.55,3.58,1.07,-0.59,1.76,-1.5,17.03,10.25,0.1,0.49,-0.54,42
18.59,-3.21,3.44,1.27,-0.1,1.17,-1.32,17.46,9.95,-0.59,0.88,-1.46,42
18.77,-2.69,3.54,0.78,0.34,2.29,-1.57,17.25,9.85,-0.24,1.61,0.68,42
18.62,-3.05,3.73,1.32,-3.17,0.05,-1.68,16.9,10.15,-0.93,-0.59,-0.68,42
18.52,-3.32,3.51,-0.39,-0.78,1.61,-1.46,17.43,9.77,-0.68,0.29,-1.22,42
18.8,-2.91,3.69,-0.68,0.98,2.05,-2.16,19.46,9.41,6.79,-1.03,-11.82,42
22.34,-2.47,5.97,4.54,45.46,9.67,-4.02,15.35,8.54,3.95,2.59,-16.21,42
16.69,-4.6,8.43,-2.15,97.51,19.19,-3.56,16.34,8.66,2.0,4.39,-5.57,42
14.37,-5.09,13.78,8.2,103.42,13.43,-3.3,15.1,8.4,-3.52,-0.1,19.78,42
8.73,-6.46,15.23,-24.37,214.79,20.7,0.16,19.05,11.64,-5.37,-0.54,44.78,42
2.42,-7.38,22.99,-35.4,113.53,-8.4,-1.58,16.91,7.92,1.03,20.02,-19.34,42
-4.67,-7.93,16.66,-23.93,52.15,1.42,-1.95,17.77,8.32,0.15,-19.68,10.5,42
-3.58,-8.55,22.9,-4.59,19.43,-5.18,-0.88,16.87,8.69,-0.34,-3.66,-9.86,42
-4.99,-8.68,19.83,-4.74,10.45,-0.73,-0.72,17.52,9.14,-1.12,-6.15,5.03,42
-5.02,-9.16,19.7,-0.29,2.0,-2.69,-0.77,17.29,8.7,-1.76,-1.12,-1.27,42
-4.82,-8.48,19.75,0.59,-3.32,-0.24,-0.63,17.45,8.48,0.49,-2.0,-1.12,42
18.17,1.62,8.3,-6.69,-127.44,-7.03,4.07,18.01,7.34,-10.79,-16.31,27.83,43
18.95,2.6,3.45,-0.73,-51.03,-9.62,5.09,17.55,7.99,-5.13,-5.62,5.22,43
19.27,1.4,1.11,-10.84,-21.83,-3.03,4.51,17.73,7.18,-0.44,1.37,-0.39,43
19.17,1.76,0.56,-1.12,2.59,3.91,4.58,17.35,7.18,2.1,2.05,-7.76,43
18.63,2.56,1.28,-2.39,6.45,5.47,4.61,17.5,7.66,-0.78,1.86,-2.25,43
18.31,1.86,1.27,-1.42,7.76,5.62,4.54,17.14,7.49,-2.3,1.61,-1.12,43
18.74,1.98,1.85,5.13,4.49,3.22,4.7,19.09,8.19,16.16,-0.2,-40.92,43
22.96,2.01,5.92,4.3,66.21,15.33,1.18,13.26,5.73,16.85,-19.43,-30.91,43
14.31,2.43,10.35,4.59,206.49,37.21,2.04,19.19,8.74,2.54,-2.0,-18.99,43
3.38,-7.36,12.25,-125.44,290.09,-47.02,0.11,18.04,5.39,-5.96,9.18,-15.48,43
-5.07,-4.47,19.03,-7.67,45.9,15.28,0.52,19.95,6.17,-1.32,-8.64,8.89,43
-4.69,-6.47,21.87,-4.25,-4.39,-9.13,0.88,19.7,6.48,-2.78,-0.49,3.61,43
-3.1,-7.97,21.63,7.81,-34.03,-17.53,1.01,18.9,6.77,-0.88,-3.17,-0.39,43
-3.11,-5.5,20.64,-4.39,1.42,-5.66,0.94,18.95,6.17,2.49,-3.86,3.52,43
-3.0,-5.74,20.59,0.39,-3.91,-0.59,0.86,18.71,6.23,-2.05,-2.05,3.91,43
-2.93,-4.48,19.93,16.94,-26.56,0.63,1.18,18.61,6.57,-2.93,-2.29,2.98,43
-2.12,-5.26,20.49,2.34,-0.1,4.54,1.21,18.96,6.55,-1.51,-0.83,1.07,43
-2.07,-5.37,20.99,3.12,-3.12,0.88,1.0,17.84,5.9,-0.2,-0.59,1.37,43
-2.68,-3.9,20.18,8.11,-3.66,7.57,1.29,18.55,6.35,0.59,-0.73,1.03,43
-1.47,-5.07,21.27,3.81,0.0,4.74,1.52,18.85,6.61,-0.34,0.44,-1.51,43
16.15,3.05,12.17,-16.41,-119.92,2.59,-0.23,17.37,6.68,-11.13,-12.84,17.58,44
18.06,0.7,6.85,-10.4,-57.71,-6.01,1.06,19.06,7.6,-2.78,-0.2,4.93,44
19.11,0.6,4.6,-5.66,-24.12,-5.27,1.54,18.26,7.78,-1.22,-2.29,0.54,44
18.17,1.54,3.98,-2.98,-7.91,1.81,1.71,18.31,8.05,-1.71,-1.07,-0.1,44
18.14,0.93,3.59,-0.39,-1.27,3.76,1.65,17.98,7.85,1.32,-0.1,-1.95,44
18.54,1.12,3.63,0.34,-1.22,2.44,1.43,18.32,7.11,0.39,-0.39,0.44,44
18.61,0.49,3.52,-0.78,-0.34,2.29,1.39,18.07,7.44,0.49,0.39,-0.29,44
18.77,0.87,3.81,0.29,-1.27,0.68,1.33,18.34,7.34,-0.34,-0.24,0.2,44
18.59,0.88,3.9,0.54,1.71,2.15,1.18,18.02,7.73,-1.27,-0.98,-0.29,44
19.04,0.69,4.02,-1.27,-1.27,1.71,1.45,18.72,7.55,0.44,0.39,-0.49,44
18.16,0.58,3.95,-0.0,-0.05,1.71,1.36,19.74,6.83,11.67,1.95,-34.23,44
20.13,0.86,5.83,-1.9,13.04,2.39,1.09,18.02,8.65,7.86,-0.34,-14.94,44
14.79,-0.1,8.7,-3.37,140.77,28.47,1.02,25.12,9.14,0.98,-0.29,5.08,44
18.4,-3.22,28.96,-35.3,257.81,28.47,-1.1,18.64,6.92,-1.86,-6.2,10.16,44
-7.77,-8.24,13.41,-16.65,20.65,7.67,-1.21,17.91,5.6,-3.03,-7.42,7.28,44
-5.35,-4.7,20.63,-1.51,15.58,-7.32,-0.47,18.09,7.05,-0.98,-1.61,-0.63,44
-5.24,-3.26,20.22,14.11,-17.97,1.81,-0.17,18.99,7.5,-0.88,11.38,-4.39,44
-4.11,-4.64,20.96,6.01,-0.44,2.98,-0.63,18.31,6.84,-3.61,-1.17,-0.2,44
-3.75,-6.31,20.49,-0.49,-2.54,2.54,-0.54,18.36,6.99,-1.56,0.34,0.54,44
-4.03,-5.79,20.58,1.66,-6.01,-1.37,-0.21,18.01,7.38,-1.17,4.05,1.03,44
17.62,-3.41,4.34,-78.56,-67.68,-4.69,-1.13,17.69,5.89,-5.27,4.15,19.68,45
19.32,-1.12,2.53,-9.72,-32.67,-9.57,-0.46,18.26,6.64,-6.69,-4.83,15.04,45
19.21,-0.14,2.36,-2.1,-9.33,-1.56,0.58,17.8,7.77,-5.03,-1.03,1.07,45
18.31,0.35,2.02,1.51,-0.68,0.1,0.78,17.24,7.85,-1.66,0.78,0.44,45
18.91,0.3,1.75,0.88,0.24,1.42,1.07,18.19,7.88,-0.59,0.63,1.07,45
18.73,0.06,1.61,1.12,0.0,1.86,1.06,17.9,8.03,-0.93,0.34,-0.34,45
18.81,0.12,1.8,0.34,1.32,1.56,1.13,18.05,8.11,-0.44,-0.34,-0.63,45
18.64,0.03,2.04,1.27,1.03,1.51,0.88,17.92,8.04,-0.44,-0.54,0.29,45
18.86,0.46,2.27,1.37,9.96,3.86,0.97,18.25,8.11,2.05,-0.05,-2.73,45
18.65,-0.66,2.9,-6.59,11.87,6.98,0.6,18.17,7.73,2.78,0.34,-5.22,45
22.28,-1.58,9.65,6.1,207.86,55.42,0.56,18.34,8.48,5.22,8.45,-26.86,45
6.36,-0.94,3.81,-94.29,470.02,46.92,-2.98,13.96,4.12,-17.68,9.33,30.32,45
-4.91,-6.54,19.1,-1.51,34.42,-4.88,2.45,22.57,9.86,3.03,-4.3,7.23,45
-4.98,-5.64,19.7,-10.25,30.57,-7.86,1.56,19.44,8.01,0.78,-2.54,-1.61,45
-3.6,-7.31,21.04,11.18,-10.35,0.2,1.13,18.27,7.76,-0.73,-4.54,2.83,45
-3.36,-4.14,20.86,5.47,-18.26,-4.69,0.62,17.67,7.5,-1.81,-0.88,-0.78,45
-2.53,-5.12,21.23,-0.88,-0.63,-0.54,1.16,18.17,8.18,-2.73,-1.17,2.39,45
-2.35,-4.53,22.04,-4.49,5.32,-2.05,1.08,18.31,7.81,-0.98,-0.68,-0.34,45
-3.03,-4.87,20.64,2.44,-3.61,-0.63,0.78,18.07,7.49,-0.05,-0.05,-1.56,45
-2.7,-4.83,20.67,2.05,-2.98,-0.05,0.73,17.8,7.39,-0.54,-0.34,1.22,45
13.68,0.28,17.09,16.6,-25.93,13.13,-0.02,18.72,7.71,3.61,4.15,-13.77,46
12.56,0.95,15.29,3.86,-19.92,5.22,-1.16,18.44,6.89,2.34,3.37,-12.89,46
13.54,0.64,14.46,0.05,-27.2,3.27,-2.12,18.59,6.55,3.08,3.56,-11.38,46
14.56,-0.1,13.22,-0.88,-28.86,3.22,-2.66,18.22,6.31,0.78,3.13,-6.05,46
15.61,0.71,11.79,3.91,-16.75,0.54,-2.25,19.85,7.3,-0.2,0.63,-1.17,46
15.25,-0.48,10.32,-14.84,-51.51,0.59,-2.91,17.09,6.3,-7.42,-1.46,2.54,46
18.85,-0.21,10.58,3.08,-44.43,-2.34,-2.68,18.65,6.9,-5.71,-0.93,6.84,46
18.08,0.07,7.4,2.64,-17.38,4.25,-2.58,18.24,6.22,-3.56,1.71,2.54,46
18.36,-0.1,6.97,-1.37,-8.74,-0.54,-1.99,19.0,7.22,0.29,0.49,3.71,46
17.83,-0.13,6.71,2.29,-2.59,1.71,-2.09,18.09,7.06,0.49,1.42,-0.98,46
18.11,-0.44,6.35,0.78,-1.37,1.51,-2.07,18.4,7.22,0.44,1.03,-0.68,46
18.01,-0.47,6.36,-0.1,0.54,1.42,-1.97,18.38,7.22,-0.54,-0.29,-0.44,46
17.88,-0.21,6.62,0.2,2.49,2.0,-2.27,18.17,6.85,0.68,0.93,-1.86,46
18.13,-0.43,6.73,-1.61,2.44,1.37,-2.09,18.49,7.14,-0.63,-0.1,-0.78,46
18.04,-0.21,6.93,-0.2,1.22,1.03,-2.24,18.56,6.9,0.05,0.68,-0.93,46
18.12,-0.67,7.9,-3.13,11.67,2.25,-2.13,18.34,7.32,2.88,1.12,-1.9,46
18.07,-0.35,9.53,-6.69,36.96,4.54,-2.54,18.51,6.44,1.86,0.93,-2.93,46
15.86,-0.95,11.5,-3.61,53.52,8.4,-2.59,18.55,6.59,-0.44,1.27,-1.17,46
14.85,-1.64,12.66,-0.78,14.21,1.86,-2.57,18.43,6.79,-0.63,0.44,0.39,46
14.44,-1.68,13.61,-3.47,21.0,2.1,-2.46,18.76,6.87,-1.32,-0.1,0.05,46
10.73,-1.48,18.59,20.21,-48.93,6.49,-0.74,17.77,7.65,-0.93,0.83,-0.78,47
12.34,-1.26,16.4,13.13,-56.05,5.13,-0.6,18.63,7.74,-0.34,1.32,-0.49,47
13.95,-0.93,14.35,2.49,-31.35,0.83,-0.4,18.57,7.87,-0.88,-0.78,2.49,47
14.92,-1.64,12.61,-3.22,-41.75,0.2,-0.52,18.18,7.73,-0.93,0.05,-0.59,47
15.75,-1.22,11.3,-5.96,-23.19,2.83,-0.55,18.39,7.66,-0.68,0.15,-0.24,47
16.38,-1.26,9.71,-4.54,-29.1,-1.51,-0.36,18.77,7.96,-0.44,-0.68,1.32,47
17.46,-1.48,9.18,-2.3,-33.06,0.59,-0.58,18.09,7.65,-1.07,-0.1,3.03,47
17.93,-1.68,6.97,-1.95,-25.15,2.88,-0.71,17.66,7.65,0.05,0.68,-0.78,47
18.58,-1.31,6.2,-0.49,-7.13,1.76,-0.41,18.01,7.83,-0.98,0.83,-1.9,47
18.21,-1.98,5.71,-1.17,1.03,1.32,-0.25,19.05,7.81,-0.68,-0.44,1.03,47
18.13,-1.78,5.9,0.44,2.54,0.98,-0.42,18.41,7.9,-0.83,0.24,1.12,47
18.12,-1.68,6.18,-0.24,1.51,1.12,-0.5,17.79,7.64,-0.44,0.88,-0.68,47
18.15,-1.84,6.3,0.54,2.2,0.98,-0.44,18.26,7.82,-0.78,0.68,-0.98,47
18.29,-2.06,7.52,1.61,12.7,1.12,-0.36,18.0,7.69,-0.34,0.83,0.63,47
17.65,-1.89,8.55,2.25,25.15,4.59,-0.63,17.87,7.61,-0.15,0.59,-1.03,47
16.54,-1.82,9.73,-0.15,40.38,5.91,-0.45,18.52,7.53,-0.29,0.59,0.39,47
15.74,-2.29,11.5,2.83,21.19,2.29,-0.44,18.25,7.92,-0.83,0.1,0.88,47
15.52,-2.68,12.75,-4.64,28.32,2.39,-0.53,17.9,7.83,-0.93,1.12,0.34,47
14.99,-2.27,14.58,-2.1,33.45,3.47,-0.47,18.24,7.92,-0.88,-0.39,0.39,47
12.38,-2.9,15.57,1.22,48.0,4.05,-0.39,18.3,7.73,-1.37,0.29,0.68,47
2.19,-4.17,20.32,2.39,0.34,3.71,-0.57,19.02,9.5,-33.3,33.45,-9.18,48
3.05,-5.46,20.98,-20.12,27.05,24.27,-5.97,17.69,6.86,-46.24,57.23,-40.82,48
1.78,-6.06,22.57,-52.98,8.45,52.59,-5.87,16.45,11.42,-41.36,39.16,-9.08,48
-1.15,-12.51,16.38,-74.95,0.05,55.27,-8.1,11.57,12.93,-55.13,53.03,-13.87,48
-0.32,-15.57,17.23,-21.44,-44.97,73.34,-11.41,11.23,11.53,-23.24,60.11,-31.69,48
-1.75,-17.43,15.77,-33.45,-24.17,66.5,-14.49,8.69,10.22,-10.64,21.14,-21.73,48
-4.2,-13.56,15.15,-11.18,-37.5,61.04,-14.42,10.8,11.3,2.54,0.2,0.05,48
-3.96,-15.42,15.59,-9.57,-23.68,20.07,-13.67,10.99,11.6,3.12,-0.59,4.88,48
-3.62,-14.61,15.55,5.71,-20.36,1.17,-14.11,10.79,11.33,3.66,-3.61,-2.88,48
-2.1,-14.75,16.2,5.32,-7.47,-4.83,-13.89,10.73,11.69,2.29,-1.95,1.56,48
-2.79,-15.62,15.31,4.0,-6.3,0.78,-14.97,10.19,10.1,-1.37,3.37,-2.78,48
-1.86,-14.45,16.33,-2.34,-2.15,-0.68,-15.06,10.84,9.51,-0.98,5.03,-0.98,48
-2.46,-15.36,15.91,-1.71,-4.49,-3.91,-15.03,10.35,9.97,0.39,0.2,3.91,48
-1.74,-14.52,16.17,0.15,-3.61,0.24,-13.9,11.81,10.89,0.88,-2.05,1.46,48
-1.55,-14.59,16.54,3.08,-7.71,-0.34,-14.57,10.35,10.62,-1.76,0.34,0.29,48
-1.18,-15.12,16.08,-3.13,-0.73,-0.59,-14.43,11.02,10.6,0.44,-0.24,2.54,48
-1.44,-14.66,15.89,0.29,-4.49,-1.56,-14.4,11.04,10.65,-1.03,0.05,-0.63,48
-1.03,-14.89,15.92,-0.49,-0.88,-0.44,-14.27,11.21,10.68,0.68,-0.15,0.54,48
-0.98,-14.68,16.1,0.83,-1.81,1.51,-14.18,11.22,10.78,1.46,-2.1,2.15,48
-0.9,-15.02,16.0,-1.66,-1.9,-0.34,-14.25,10.89,10.61,2.29,-2.54,3.47,48
3.52,-5.69,20.32,0.39,-2.44,1.03,2.79,17.66,8.22,-0.39,-0.29,0.83,49
3.47,-5.39,20.39,1.03,-1.03,0.73,2.73,17.06,8.08,-0.68,0.24,-0.49,49
3.74,-5.58,20.37,1.07,-1.42,0.1,2.9,17.56,8.12,-0.24,0.2,-0.1,49
3.53,-5.41,20.56,0.15,1.03,0.39,2.94,17.86,8.47,-0.54,-0.44,1.03,49
3.2,-5.46,20.33,0.88,0.73,1.37,2.75,17.65,8.13,-0.29,0.59,0.39,49
3.05,-5.57,20.18,0.59,0.49,1.27,2.92,17.55,8.21,-0.68,0.34,0.0,49
3.21,-5.62,20.51,0.34,-0.88,0.59,2.82,17.55,8.16,-1.03,0.78,0.1,49
3.06,-5.59,20.37,0.83,-0.24,0.88,2.79,17.56,8.09,-0.34,0.54,-0.1,49
3.02,-5.82,20.36,0.24,-0.44,0.29,2.96,17.86,8.0,-0.49,-0.34,1.17,49
2.91,-5.26,20.3,0.54,-0.88,0.63,3.0,17.61,8.34,-0.34,-0.39,1.12,49
2.96,-5.4,20.45,0.34,0.68,1.07,2.96,17.67,8.24,-0.63,0.05,-0.54,49
3.03,-5.8,20.16,0.15,-0.05,0.78,2.95,17.9,8.04,-0.49,0.24,0.0,49
2.98,-5.41,20.5,0.15,-0.24,0.59,2.93,17.68,8.23,-0.0,0.24,0.73,49
2.97,-5.48,20.55,0.54,2.34,1.27,3.0,17.36,8.38,1.86,1.12,-6.98,49
2.47,-5.51,20.08,1.56,4.79,2.2,2.7,18.1,7.84,0.34,-0.78,-0.63,49
2.81,-5.35,20.73,3.47,-2.39,-0.73,2.47,18.13,7.97,3.81,0.05,-6.54,49
3.01,-5.55,20.78,8.01,-2.64,0.2,1.32,19.12,6.58,11.23,1.12,-31.25,49
3.55,-4.52,18.17,26.71,-52.2,-6.3,0.47,22.17,10.71,-0.1,8.2,-64.11,49
5.9,-0.76,8.53,37.16,-273.83,41.36,-1.27,19.05,8.42,-4.74,-6.98,30.71,49
19.46,-2.33,10.73,-1.42,-72.41,-2.59,-2.04,18.33,6.52,-6.84,4.39,2.88,49
17.55,-2.14,8.9,3.27,-44.68,1.32,-1.18,17.62,6.38,-4.93,-1.27,1.71,50
17.16,-2.09,8.36,0.54,-30.76,2.49,-0.87,18.21,6.4,-1.56,1.22,2.69,50
17.34,-1.44,7.17,4.74,-9.37,1.56,-0.41,18.18,7.55,-2.25,1.17,-0.05,50
18.15,-2.14,6.79,2.73,-4.05,2.73,-0.61,18.2,7.25,-1.22,0.44,-0.05,50
18.06,-2.01,6.62,-0.2,-2.83,1.66,-0.48,18.25,7.19,-1.61,-1.61,2.1,50
17.88,-1.61,6.59,-0.29,-3.42,1.03,-0.64,18.29,6.99,-0.49,0.15,-2.29,50
17.94,-1.57,6.45,-0.88,0.93,1.9,-0.75,18.59,7.06,-0.54,0.1,-0.78,50
17.91,-1.93,6.71,1.03,1.46,1.9,-0.7,18.29,7.33,-2.78,0.05,3.17,50
17.89,-2.3,6.51,-1.07,-2.59,1.71,-0.5,18.69,7.34,-0.34,1.42,0.73,50
18.44,-1.98,6.51,1.66,0.59,1.81,-1.71,17.54,7.24,-2.15,4.93,-1.17,50
17.19,-2.71,7.65,2.15,2.25,2.83,-0.48,18.68,7.81,2.59,0.73,3.66,50
18.52,-2.04,7.23,-3.37,2.69,-1.61,-0.46,18.57,7.17,1.66,0.2,3.22,50
17.58,-2.88,8.09,2.44,62.94,3.81,-0.53,18.72,6.83,1.42,4.1,-1.81,50
15.84,-2.06,11.64,-1.81,88.57,-0.34,-0.79,17.23,7.06,-7.08,-0.44,0.59,50
11.84,-2.2,14.82,-12.5,60.01,4.93,-0.52,17.04,7.29,-8.35,6.59,9.86,50
8.2,-4.48,16.14,-35.55,113.96,3.17,-0.28,17.73,7.24,-8.2,8.3,16.94,50
3.4,-4.95,20.46,-44.14,110.64,7.23,1.42,18.67,9.24,1.27,-0.05,-2.64,50
-0.66,-7.33,21.5,-15.38,65.19,0.29,-0.02,16.9,7.08,-1.56,-3.71,2.15,50
-3.23,-7.17,19.27,3.08,-0.1,-3.12,0.44,18.48,8.09,-0.98,-1.46,-2.59,50
-2.68,-7.54,20.49,-2.49,5.18,0.2,0.55,18.25,7.95,-2.1,-3.32,2.29,50
