ACC-X-Ring1,ACC-Y-Ring1,ACC-Z-Ring1,GYRO-X-Ring1,GYRO-Y-Ring1,GYRO-Z-Ring1,ACC-X-Ring2,ACC-Y-Ring2,ACC-Z-Ring2,GYRO-X-Ring2,GYRO-Y-Ring2,GYRO-Z-Ring2,TEST
0.33,-1.14,21.5,21.58,8.15,24.71,-0.18,18.76,4.49,11.33,8.84,-0.78,1
-0.05,-2.11,20.81,10.3,7.52,12.26,-0.55,18.29,4.13,2.59,2.64,-7.81,1
-0.77,-1.53,20.58,-2.34,5.86,5.47,-0.97,18.39,4.41,-6.64,-7.91,7.03,1
-1.35,-0.95,20.48,-3.22,-5.13,-6.45,0.64,20.02,5.83,-3.81,-0.68,2.83,1
1.19,-2.74,23.48,-4.0,-3.71,-2.2,0.27,17.81,5.27,-5.71,2.39,5.57,1
-0.72,-2.49,20.07,-6.01,-1.86,1.61,0.27,18.36,5.21,-3.61,0.49,-3.61,1
-0.58,-2.53,21.02,-3.22,2.25,1.42,0.5,20.04,5.92,-2.73,-1.22,0.73,1
0.01,-3.15,22.25,-3.17,-0.93,-1.95,0.33,18.75,5.65,-1.17,-1.71,2.78,1
-0.45,-3.19,21.04,-0.2,-2.0,-1.17,0.66,18.84,5.86,-0.93,-1.61,1.56,1
-0.19,-3.32,21.26,0.73,-1.12,-1.61,0.57,18.84,5.6,-0.73,0.2,-0.34,1
-0.18,-3.37,21.32,0.34,-0.34,0.24,0.79,19.16,6.12,-1.03,0.59,-1.17,1
-0.12,-3.11,21.74,1.61,-0.34,0.15,0.64,19.16,5.92,-0.98,-0.54,0.24,1
-0.31,-3.26,21.35,-0.05,-1.07,-0.54,0.18,19.15,5.82,-3.22,-0.83,0.0,1
-0.54,-3.09,20.94,-1.37,-1.86,-1.32,5.75,15.45,12.09,-11.23,7.76,8.94,1
0.97,-5.87,20.45,-7.72,-8.74,1.03,3.74,18.92,4.57,-33.79,233.15,27.1,1
8.23,-7.68,17.22,27.83,17.87,275.1,-2.52,22.56,-0.38,-22.07,38.33,29.83,1
-6.77,15.6,15.73,32.57,3.96,75.54,-4.35,15.99,7.02,-7.52,0.93,-1.03,1
-2.7,1.6,18.87,10.55,-6.3,15.77,-2.92,16.85,7.83,7.23,12.21,-4.25,1
-0.82,1.76,20.91,6.45,7.76,2.78,-2.86,16.92,8.77,6.35,3.08,1.03,1
0.05,1.52,21.85,-1.32,-2.78,-5.47,-2.07,22.75,-3.16,121.44,-132.42,-21.58,1
9.33,-6.49,24.55,15.82,5.03,232.67,-5.5,21.74,5.02,-14.45,28.17,14.84,2
-1.56,13.83,20.17,64.6,-37.21,74.85,-7.14,16.53,7.32,10.5,-2.64,-19.87,2
-2.03,0.85,17.33,1.07,-5.22,20.26,-6.47,16.58,6.47,15.58,2.83,-4.35,2
1.72,5.91,21.13,8.2,3.56,-1.51,-1.24,17.9,1.09,101.9,-132.32,18.55,2
-2.32,7.93,18.42,8.98,6.69,-73.54,4.7,27.63,9.39,6.35,-59.72,25.98,2
5.87,-0.43,24.52,-36.33,-8.25,-107.52,0.19,19.41,4.08,-31.49,-25.78,-10.94,2
1.14,-1.78,20.83,-40.43,-10.84,-29.49,0.4,19.24,5.73,-13.77,-26.27,5.52,2
1.13,-1.72,21.48,-23.93,-17.48,-31.69,0.01,18.59,7.01,-8.01,-18.85,0.54,2
1.71,-3.76,20.77,-16.8,-6.69,-22.71,0.44,18.29,6.65,-4.0,-0.98,-2.93,2
2.53,-3.66,21.47,-7.23,0.1,-2.44,0.34,19.14,7.07,-0.05,2.0,5.47,2
1.66,-3.98,21.05,-0.98,-5.22,1.9,-0.15,18.52,6.13,1.9,1.22,-4.49,2
1.82,-3.03,20.85,1.51,0.83,7.76,-0.26,18.88,6.57,-5.32,-2.73,4.05,2
1.26,-3.1,20.73,-4.93,-4.93,-1.03,0.46,18.17,7.15,-2.39,-1.32,1.9,2
2.39,-3.97,20.97,-2.73,-2.93,-0.34,0.42,18.78,6.67,-0.39,1.61,2.98,2
2.24,-3.64,20.91,0.54,-3.27,3.81,-0.13,17.81,7.13,-1.22,2.25,2.88,2
1.93,-4.48,20.54,-3.86,-3.03,2.25,0.59,18.83,6.59,-0.1,2.29,10.16,2
2.0,-3.48,20.53,3.71,-7.57,3.61,0.24,18.32,6.47,-4.15,0.88,-8.3,2
2.91,-3.47,21.72,-8.94,1.37,3.61,0.62,18.09,7.08,-1.56,4.49,3.03,2
2.16,-4.9,20.0,-2.83,-1.86,3.81,0.15,17.68,7.33,-2.05,2.15,4.54,2
1.88,-5.01,20.36,-1.86,-3.42,2.25,0.95,18.73,6.99,-1.12,4.83,0.0,2
-6.3,10.58,7.66,42.68,-7.52,70.75,-4.79,28.8,-4.83,2.0,35.94,62.06,3
-3.07,-5.17,18.48,-1.95,-11.47,-2.39,-4.91,20.2,12.34,-3.27,-34.77,23.24,3
0.66,4.24,20.7,3.47,7.62,3.66,-3.8,20.08,6.45,-0.15,-13.82,-4.64,3
-2.77,3.12,19.64,4.35,6.45,0.24,-5.03,18.28,5.05,1.12,1.27,-3.22,3
-1.91,3.86,20.47,4.44,4.35,-8.79,-5.17,18.22,5.22,9.77,0.49,-1.81,3
-1.8,6.59,21.69,13.77,-1.46,-37.4,-8.03,21.11,-1.78,59.28,-23.58,-25.83,3
-2.89,4.94,18.84,-26.17,14.21,-156.59,-6.87,18.87,-1.13,28.81,-141.85,-3.27,3
3.52,-8.09,21.85,-27.83,-15.53,-107.08,-0.23,19.81,9.21,21.73,-94.24,27.69,3
-2.53,-3.41,19.81,-13.77,-22.75,-20.36,-4.22,17.04,3.52,-11.62,-0.39,5.27,3
-0.22,-3.05,22.49,-12.55,-12.06,-5.71,-1.8,19.75,6.07,-8.3,-4.0,9.96,3
0.12,-2.83,21.5,-2.69,-7.32,-3.81,-1.38,18.72,6.2,-3.13,-5.22,2.39,3
-0.95,-2.64,20.85,1.46,-2.15,-8.35,-1.93,18.86,5.52,2.64,-4.49,2.59,3
-0.3,-2.32,20.9,6.98,-1.56,-0.93,-1.37,19.08,5.35,5.08,-1.81,3.61,3
0.24,-2.42,22.02,3.27,-0.73,2.05,-1.49,19.48,5.37,3.52,1.42,0.44,3
-0.49,-1.9,21.41,-1.95,0.68,0.05,-1.56,19.36,5.3,-2.34,-0.29,-2.69,3
-0.6,-2.2,21.11,-2.49,-0.88,0.78,-1.73,18.88,5.25,-3.13,0.88,-1.12,3
-0.6,-2.26,21.46,0.78,2.44,1.95,-1.88,19.11,5.25,-1.03,0.68,-2.88,3
-0.47,-2.87,21.42,-1.42,-0.44,1.07,-1.92,18.88,5.56,-2.05,1.42,-1.42,3
-0.69,-2.94,21.34,-2.78,-1.27,0.15,-2.04,19.09,5.65,-3.32,0.63,0.54,3
-0.47,-2.59,21.18,1.61,-0.88,1.76,-1.93,18.77,5.51,0.15,1.32,0.78,3
9.03,-9.23,20.71,30.81,14.4,174.61,-4.09,22.61,5.11,-20.41,35.89,10.6,4
-4.06,12.54,17.17,77.2,-21.68,126.81,-0.67,20.34,6.45,7.18,0.24,10.35,4
3.37,5.46,22.8,10.69,4.98,39.5,-5.14,18.98,2.89,2.15,-8.01,-0.1,4
5.04,3.01,21.29,-3.76,-2.05,5.66,-3.46,18.39,5.21,-1.81,1.22,-8.98,4
2.1,2.89,21.43,3.03,-0.98,-1.32,-8.54,18.77,-3.03,32.71,-27.59,-10.89,4
0.51,3.55,20.2,0.88,4.69,-4.1,0.06,18.1,1.32,-10.84,-156.59,27.98,4
-1.91,13.3,18.92,-42.29,-6.35,-109.77,7.66,28.84,15.47,17.87,-70.31,2.39,4
4.41,1.38,19.68,-67.29,-22.61,-159.72,-2.26,17.15,3.46,-4.3,-11.57,4.74,4
2.55,-5.44,21.64,-20.02,15.67,-28.17,-1.16,18.99,5.02,3.08,27.34,18.36,4
-0.06,-2.62,19.65,1.42,-8.15,-10.74,-1.28,17.18,4.45,-22.27,25.54,-6.54,4
1.08,0.28,23.26,14.65,-1.56,14.11,0.35,18.14,5.24,-14.36,1.46,6.01,4
1.67,-3.38,20.84,2.69,-7.28,0.49,0.16,18.92,7.21,2.73,-1.86,-5.27,4
2.49,-1.62,20.72,-6.4,-10.3,-0.2,0.9,19.68,6.92,6.1,-2.93,5.32,4
0.61,-2.81,20.0,-0.0,2.15,-2.15,0.98,19.21,7.08,-0.0,-0.98,-1.12,4
2.26,-1.97,21.52,2.0,5.71,1.66,-0.47,17.27,5.02,-0.93,10.21,-4.98,4
2.48,-3.2,22.18,-0.98,6.35,9.18,0.44,21.03,7.2,6.98,-1.95,-2.39,4
0.73,-2.17,19.69,-1.71,-1.07,4.88,-1.43,18.25,5.84,-5.91,-1.42,4.74,4
0.71,-2.43,21.14,-3.17,9.81,4.15,0.04,18.63,6.53,1.46,-0.1,6.59,4
1.38,-3.97,21.01,-5.13,-8.35,-1.07,-0.27,19.02,6.08,-4.3,0.63,0.73,4
1.5,-3.44,21.7,-0.44,-1.37,2.05,0.13,18.61,6.88,-2.49,1.03,-1.12,4
-0.84,16.89,21.86,117.24,-8.84,180.18,-2.83,19.4,6.02,12.16,-7.47,-14.21,5
-0.25,4.2,25.47,25.88,-17.97,19.92,-0.95,18.85,6.36,13.67,-21.29,11.52,5
1.62,1.15,22.99,17.19,-11.77,7.81,-1.69,17.68,6.38,8.35,-10.5,2.69,5
-1.34,-0.7,19.6,-0.73,1.17,-2.05,-1.46,18.93,4.21,0.15,4.79,-3.03,5
-0.61,1.8,20.41,-1.22,4.54,1.71,-1.84,19.36,4.59,-4.54,1.56,-3.66,5
-0.85,1.63,21.04,-4.15,3.71,-2.05,-1.71,18.62,5.23,-4.64,-5.66,-4.59,5
-0.81,1.36,21.14,-2.93,-2.15,-3.47,-1.46,19.04,4.73,4.2,-5.66,3.27,5
-0.77,1.27,21.16,-1.51,-5.66,-11.96,-3.9,18.56,0.97,20.51,-64.65,3.42,5
-2.48,7.39,19.87,-6.54,-12.74,-88.62,6.73,22.05,5.77,-26.76,-73.54,41.5,5
8.49,-7.12,23.59,-72.56,-31.05,-162.4,3.17,16.59,7.73,-13.72,-8.98,-28.96,5
0.96,-5.43,19.78,-8.25,17.33,-22.41,1.63,19.09,5.75,-3.22,-5.18,-1.95,5
0.05,-3.39,21.19,-4.2,-0.78,-12.3,1.59,18.49,6.13,3.22,2.29,-2.29,5
0.5,-3.84,21.31,4.39,3.66,1.51,1.56,18.42,5.53,9.03,5.86,1.56,5
0.25,-3.49,21.33,6.54,1.17,5.96,0.48,18.53,4.54,2.78,8.84,1.27,5
-0.43,-2.07,21.12,4.88,-1.56,10.4,0.98,19.47,4.63,-0.49,-0.68,1.81,5
-0.5,-1.66,21.27,-0.34,-1.56,1.66,0.84,18.79,5.24,-3.56,-4.59,-1.51,5
0.2,-3.06,21.55,-3.61,-3.71,-5.76,1.23,19.01,5.32,-1.47,0.39,3.13,5
0.32,-2.55,21.62,0.15,-4.49,-0.2,1.06,18.8,5.07,-1.07,1.61,-1.81,5
-0.22,-2.78,20.78,-1.9,0.98,0.78,1.18,18.79,5.45,-2.73,1.32,3.08,5
0.03,-2.6,21.32,-2.15,-3.22,1.86,0.79,18.9,5.2,-1.76,0.39,-0.2,5
12.0,-6.67,13.99,219.73,173.19,182.86,3.71,32.39,-0.58,224.56,152.44,-6.69,6
-3.68,10.41,18.96,29.44,1.12,86.28,-1.56,22.24,-7.26,16.6,33.3,37.99,6
-3.51,11.61,17.92,-4.05,-23.14,26.95,0.03,18.71,-4.07,-13.82,-0.68,13.53,6
-2.97,7.92,18.57,-9.96,-6.59,5.18,0.17,18.59,-2.14,-10.69,1.95,-0.49,6
-1.94,8.14,19.23,-0.2,-7.86,1.76,1.78,19.19,-1.24,-2.2,-4.35,1.9,6
-1.96,7.77,18.72,1.56,-6.93,-0.93,2.49,19.74,-0.67,-0.44,-7.13,7.62,6
-2.87,9.6,19.17,-2.69,-1.32,-13.23,1.01,19.74,-3.4,11.67,6.49,8.4,6
-2.23,8.1,19.0,-30.22,1.07,-68.07,4.09,18.08,-1.98,-7.32,-79.74,28.47,6
-3.02,11.07,18.66,-14.8,-92.33,-113.38,1.91,18.62,-5.39,-63.87,-85.11,16.11,6
4.13,1.48,19.66,-42.87,-108.5,-126.32,7.01,17.01,1.62,-77.83,-91.26,42.09,6
2.69,1.25,20.42,-24.9,-16.5,-31.15,4.24,15.43,2.42,-25.83,-21.39,-10.74,6
4.39,-1.01,21.14,-8.55,-14.4,-10.45,4.52,16.18,3.6,-3.81,-7.32,3.86,6
3.23,2.27,20.78,0.24,-8.94,-3.37,7.01,18.56,4.32,-7.13,-2.54,10.55,6
2.2,2.72,20.16,10.3,6.25,-4.69,6.22,18.86,3.32,5.37,-7.42,5.32,6
2.03,3.19,20.43,2.64,-0.59,-7.47,5.48,17.88,2.04,3.03,-8.06,-0.34,6
1.86,3.57,20.65,-0.83,-1.17,-6.98,5.75,19.22,2.74,-1.17,-10.45,1.03,6
1.76,2.8,20.46,-3.32,-0.29,-6.84,5.13,17.67,2.38,-1.9,-7.67,-3.08,6
1.51,1.93,20.18,-1.42,-5.22,-2.39,4.75,18.35,2.79,-2.05,-1.81,5.08,6
2.03,1.71,21.18,-2.88,-4.98,3.56,6.1,18.61,3.07,-4.93,1.42,10.79,6
1.92,3.54,20.26,2.25,7.13,6.93,5.73,17.78,2.28,1.32,4.88,-3.61,6
2.74,2.71,20.37,-0.39,1.32,0.2,5.93,18.13,1.98,0.1,-0.24,-3.47,7
2.9,2.65,20.96,-1.81,0.29,-2.34,5.99,17.97,2.36,-0.29,-1.71,-2.54,7
2.89,2.56,20.78,0.39,5.18,1.46,5.99,18.11,2.18,1.03,-0.83,-2.69,7
2.4,2.72,20.61,-0.34,4.59,-1.66,5.89,18.38,1.82,1.27,-1.07,-1.37,7
2.29,2.38,20.71,-1.95,6.79,-2.59,5.86,18.25,2.62,-1.12,-3.52,-6.2,7
1.76,1.83,20.52,-3.13,5.03,-0.78,5.49,18.24,2.16,-1.66,-1.32,-3.61,7
1.6,2.26,21.33,-1.81,5.76,5.86,5.2,18.8,1.81,-1.03,0.39,0.0,7
1.64,2.2,21.23,5.32,0.68,10.35,5.58,18.92,2.15,4.64,5.13,2.73,7
1.6,2.06,20.98,2.93,-0.39,4.49,5.39,18.42,2.1,2.34,2.34,2.05,7
10.54,-9.61,25.03,7.28,60.25,80.62,10.37,13.31,7.89,18.26,65.72,-19.58,7
-1.93,6.83,13.46,95.95,56.4,168.7,1.73,16.65,-2.34,90.19,124.32,-52.25,7
-3.7,11.59,19.06,49.95,15.33,59.03,3.79,25.8,-0.6,28.37,23.29,26.61,7
-0.39,11.08,19.26,18.99,-4.2,16.26,4.74,19.38,-1.89,7.57,-3.76,12.45,7
-0.02,8.94,19.08,2.39,-2.98,2.73,5.15,18.85,-0.81,-2.54,-6.74,1.51,7
-0.56,9.52,18.36,0.24,0.24,-2.64,4.69,19.02,-1.37,-1.56,-5.62,-2.44,7
-0.01,8.75,19.0,-4.35,-0.93,-6.98,5.11,19.62,-1.35,4.93,15.23,-3.42,7
-1.01,9.74,18.81,-7.81,-2.34,-11.96,3.41,18.98,-2.77,-3.61,-4.2,-3.47,7
-2.95,11.22,17.14,3.12,-10.3,-36.57,3.64,18.71,-3.24,21.63,-39.4,-11.23,7
-2.45,10.69,19.09,-40.48,-29.39,-92.33,3.97,21.02,-2.99,-29.74,-57.57,13.67,7
-1.26,4.31,16.83,-51.86,-66.36,-96.14,5.38,17.54,-0.06,-74.32,-67.72,11.62,7
-5.11,14.64,9.25,149.85,125.49,174.32,0.57,4.39,-7.62,150.15,160.45,-95.61,8
-5.77,14.31,15.21,37.94,6.25,43.99,0.91,18.46,-8.1,14.84,21.83,9.13,8
-4.79,12.97,16.54,12.7,20.02,10.99,4.15,21.65,-3.87,16.65,4.83,-19.29,8
-3.53,11.38,16.75,-1.12,-4.1,0.44,3.11,18.42,-3.49,-6.74,1.22,-5.91,8
-2.94,10.55,17.45,-2.34,-4.74,0.24,3.24,18.69,-2.91,-5.42,1.12,-1.32,8
-2.84,10.32,17.25,-0.78,-4.83,0.39,3.32,18.05,-3.83,-1.71,-1.61,2.1,8
-3.23,10.89,17.28,-1.76,0.2,-2.2,3.13,18.87,-3.07,-4.39,0.1,-2.39,8
-2.44,10.87,17.96,-1.51,-4.69,-2.05,3.65,18.77,-3.0,-0.2,-3.08,3.47,8
-3.09,11.75,17.0,-1.27,-3.27,-10.89,2.9,18.55,-4.05,8.64,7.86,3.56,8
-4.58,12.26,13.48,32.13,-48.88,-20.12,3.71,18.73,-5.6,36.62,3.32,-9.77,8
-5.55,15.0,13.43,-40.09,-38.09,-88.92,2.11,20.59,-8.46,-30.47,-73.68,-2.98,8
3.42,3.69,17.86,-78.96,-73.93,-93.7,8.45,17.73,1.57,-84.08,-123.97,42.48,8
1.26,3.01,20.85,-5.47,-6.05,-15.23,4.53,19.04,2.6,-5.47,-13.48,2.88,8
0.32,4.33,20.11,-3.47,-10.11,6.54,4.15,18.35,0.19,-5.96,5.86,12.4,8
0.31,5.51,20.79,-1.95,-1.46,1.07,4.75,19.79,-0.42,-0.83,0.44,6.05,8
0.63,5.11,20.6,-2.44,-2.83,-2.05,4.74,18.69,-0.29,-2.69,-1.76,0.39,8
0.34,4.77,20.54,-1.9,-1.95,0.2,4.28,18.88,-0.19,-1.56,0.98,1.66,8
0.64,4.55,20.8,-3.03,-0.44,0.2,4.84,19.14,0.46,-2.64,-1.07,-0.29,8
0.32,4.5,20.57,0.29,-0.39,2.78,4.49,18.85,0.0,0.44,2.29,0.39,8
0.55,4.56,20.65,-1.71,-1.12,0.05,4.74,18.68,0.36,-2.49,-0.34,-0.1,8
16.57,-7.07,16.23,85.11,189.11,199.51,5.66,23.81,-7.85,50.88,15.38,44.97,9
-3.18,9.88,12.46,33.64,60.25,55.66,3.91,17.75,-8.43,12.11,11.77,5.86,9
-2.92,12.64,15.26,9.91,14.45,20.65,5.56,18.89,-6.28,-11.04,-4.54,2.59,9
-1.8,13.47,18.64,-3.22,-1.27,-2.29,4.4,16.12,-6.51,-11.04,-4.25,-14.26,9
-2.81,13.55,15.48,-9.67,0.44,-19.82,3.31,16.37,-6.73,-19.29,-19.68,-9.23,9
-3.06,9.67,16.27,-11.52,-20.61,-34.18,3.59,19.54,-2.87,-15.28,-8.15,-5.66,9
-3.85,9.63,18.92,-10.45,-17.48,-11.72,2.14,17.56,-4.99,-0.93,4.44,-0.2,9
-4.73,9.76,16.81,-1.27,-13.23,-2.49,1.39,19.77,-7.11,11.62,1.27,16.99,9
-7.45,15.02,14.23,-29.2,-43.85,-34.77,4.28,19.33,-5.4,-29.59,-53.86,34.91,9
-0.45,12.1,17.84,-12.11,-112.01,-70.95,7.95,21.83,-2.55,-38.77,-73.63,3.27,9
-0.13,8.98,19.4,-50.05,-47.9,-74.61,5.38,15.53,-1.14,-31.84,-43.16,14.7,9
1.19,5.17,19.9,1.37,-27.1,-38.72,5.48,15.76,-0.22,-14.5,-16.5,2.59,9
1.68,4.23,19.57,0.15,-12.89,-14.11,5.97,17.14,0.53,-3.56,-1.81,5.42,9
1.26,5.35,19.73,2.54,-7.47,-2.05,6.34,18.87,-0.83,-0.73,1.07,2.44,9
0.59,6.96,19.72,-2.0,-0.78,4.35,5.63,18.31,-1.16,-5.18,2.1,1.95,9
1.09,5.9,19.85,-4.44,-1.32,-1.27,6.27,17.98,-0.42,-2.49,2.49,2.64,9
1.12,6.63,20.24,0.1,-1.27,3.66,6.12,17.99,-0.8,-3.66,0.88,-0.78,9
0.9,6.0,19.99,-3.81,-1.9,1.12,6.16,18.49,-0.39,-2.39,-0.73,0.83,9
1.08,5.53,19.87,-3.37,-3.47,0.63,5.79,18.35,0.04,-2.69,-0.68,0.63,9
1.28,5.19,20.59,-1.12,-2.44,-0.49,5.92,18.44,0.08,-1.76,0.54,-0.05,9
0.79,6.79,4.31,211.52,139.89,150.73,6.78,20.33,1.66,-1.27,0.24,5.71,10
-3.95,10.61,12.88,35.69,35.25,41.41,5.26,18.71,-1.64,4.44,0.15,5.62,10
-2.1,15.35,15.4,12.7,-18.51,8.89,5.79,18.66,0.43,-1.95,-5.22,5.96,10
-1.93,12.12,17.66,-10.25,6.35,-8.25,5.67,18.06,0.52,2.39,4.44,1.95,10
-2.38,11.0,16.47,-14.01,7.03,-10.01,4.99,17.12,-0.32,-5.32,1.86,-6.2,10
-2.69,10.25,16.52,-8.64,-2.05,-7.96,5.56,18.86,1.36,-3.17,-1.27,7.67,10
-4.5,10.29,15.59,-9.72,-7.18,-8.59,6.09,19.07,-0.81,-0.63,5.47,-8.64,10
-2.73,9.47,18.87,-6.84,-7.81,-5.22,5.21,18.13,0.82,-10.79,1.03,-0.44,10
-3.89,10.65,17.32,-9.23,-7.03,-7.67,5.39,19.41,1.91,-1.07,1.07,6.1,10
-5.71,14.34,16.28,-9.08,-21.68,-46.58,5.73,18.86,1.35,-0.44,0.88,1.27,10
-3.3,9.63,12.79,-44.38,-108.45,-111.47,5.57,17.68,1.62,-4.88,-1.76,-3.42,10
5.41,-0.43,22.94,-5.66,-53.91,-33.79,5.27,18.29,1.79,-1.37,-0.49,5.22,10
1.73,4.89,20.22,1.17,-18.16,-5.52,5.55,19.14,1.3,-2.3,1.07,-4.05,10
1.15,6.81,20.54,-0.54,-1.22,2.88,5.36,17.83,1.4,-0.05,-0.49,3.13,10
1.73,7.32,21.26,-1.47,-0.59,0.83,6.33,18.97,1.27,2.83,1.42,4.25,10
0.48,5.49,18.22,-8.45,5.03,-0.83,6.06,18.72,1.2,-0.2,-1.46,-3.71,10
1.68,4.93,20.23,-0.1,0.44,-1.27,5.7,18.12,1.63,-0.2,-1.42,-0.93,10
-0.49,4.35,18.22,-9.62,-0.1,5.76,6.59,20.35,2.87,-22.95,9.28,7.52,10
2.04,6.09,22.28,8.15,-5.57,5.37,9.21,8.08,8.11,-16.85,-1.22,26.22,10
0.47,6.22,19.27,1.51,4.44,4.93,9.99,9.82,1.87,150.39,104.1,-76.9,10
0.8,3.89,16.98,35.99,78.42,168.31,2.72,14.96,-2.76,53.71,116.16,-21.87,11
-2.87,17.22,17.18,18.75,3.52,61.82,0.9,19.78,-7.02,-24.12,26.56,-2.78,11
-3.28,14.89,14.85,10.2,-9.47,16.46,2.86,19.31,-3.9,-1.76,-10.84,10.4,11
-1.37,12.53,17.78,-23.19,-0.88,-18.51,-2.1,21.77,-6.61,-19.87,-2.54,-32.28,11
-4.41,15.42,13.61,-42.19,-70.31,-121.53,3.3,18.94,-3.91,-64.36,-131.15,37.79,11
10.5,-8.09,23.18,-81.88,-81.98,-93.51,6.1,19.21,5.73,-8.74,-29.93,16.02,11
1.45,0.26,19.12,-6.3,0.15,-18.12,3.61,17.23,2.55,-10.06,-2.49,6.2,11
1.06,2.56,20.41,0.59,-1.12,-2.15,4.26,18.6,2.08,1.56,1.27,5.22,11
1.09,3.07,21.3,-1.66,0.2,-2.78,4.39,18.85,1.99,0.1,1.03,1.27,11
1.25,2.98,21.4,-2.93,-1.32,3.27,4.52,18.58,2.03,0.34,2.64,3.42,11
1.02,2.96,20.97,0.63,-1.03,1.22,4.77,18.65,1.8,-0.2,1.32,2.49,11
1.38,3.16,21.48,1.37,-1.32,2.1,4.76,18.93,1.78,-0.34,0.68,-0.34,11
1.02,2.84,20.76,-0.29,-2.25,1.37,4.64,18.83,1.83,-0.83,0.0,1.42,11
1.11,2.47,20.8,-0.88,-1.17,-0.39,4.76,18.61,2.12,-0.98,0.54,0.34,11
1.13,2.85,21.05,0.34,0.54,1.46,4.74,18.7,1.77,-0.88,1.03,0.29,11
1.07,2.96,20.92,-0.68,-1.27,1.46,4.75,18.43,1.69,-0.63,0.15,0.88,11
1.32,2.75,21.23,-0.78,-1.51,0.44,4.88,18.89,1.85,-0.63,0.05,0.05,11
1.26,2.66,21.04,-0.78,-0.39,0.93,4.59,18.39,1.94,-1.32,0.68,-1.12,11
0.9,2.66,20.91,-0.34,-1.66,1.22,4.56,18.55,1.91,-0.88,-0.2,-0.15,11
1.04,2.45,20.78,-0.24,-1.71,0.59,4.64,18.71,2.08,-1.07,0.05,0.44,11
8.35,-3.06,20.14,-10.99,-11.43,214.89,5.25,19.44,3.71,9.03,28.76,35.01,12
4.27,4.71,24.4,68.12,-35.16,45.7,6.07,18.02,6.21,18.6,-5.22,10.74,12
5.69,3.04,22.47,41.5,-20.07,18.51,6.04,18.88,3.42,16.5,-13.13,1.32,12
5.06,1.95,20.4,13.13,5.37,1.12,2.44,20.54,-0.55,12.45,-4.2,-27.69,12
3.61,5.3,21.97,-9.08,11.28,-23.88,4.98,16.26,2.1,-69.14,-72.12,-11.72,12
1.73,9.0,20.09,-65.53,5.81,-121.0,9.39,14.88,10.21,-58.25,-61.47,-16.02,12
8.18,-6.11,21.06,-55.86,-19.73,-96.04,7.51,17.5,9.29,1.32,-32.32,-1.71,12
5.36,-5.26,20.52,5.13,5.37,-48.1,6.09,17.34,6.17,5.27,-3.61,2.29,12
4.25,-2.77,20.77,6.49,1.27,-6.79,5.75,17.32,4.87,1.76,1.03,1.71,12
3.24,-0.85,20.57,5.66,-5.03,0.2,5.48,18.21,4.34,2.29,0.78,6.25,12
2.98,0.62,20.7,5.62,-5.22,5.81,6.66,17.83,5.32,-1.81,-1.03,0.24,12
3.95,-0.47,21.06,-0.1,-1.42,-2.1,6.25,17.53,5.37,0.68,-1.51,0.88,12
3.64,-0.23,20.52,6.15,-4.0,2.15,6.01,17.77,4.9,-2.05,-0.15,1.46,12
3.46,-0.19,20.68,-3.17,-1.12,-4.05,6.1,17.75,5.11,-2.34,-0.63,-2.29,12
3.61,-0.96,20.49,0.44,-2.05,7.71,5.89,17.73,4.87,-0.39,-0.2,-0.73,12
3.33,0.06,20.38,-0.88,-1.56,-1.95,5.83,17.97,5.01,-2.88,-0.93,0.88,12
3.79,-0.06,20.81,-1.9,-2.69,-1.22,5.87,17.79,5.28,-1.42,0.49,-0.59,12
3.93,-0.71,20.91,-1.9,-0.73,0.59,6.01,17.91,5.46,-1.03,0.63,-0.24,12
4.01,-0.6,21.14,-0.29,-0.88,1.07,5.88,17.66,5.41,-0.93,0.73,-0.54,12
3.92,-0.88,20.72,-0.73,-0.15,0.88,5.65,17.39,5.14,-1.66,0.24,-0.2,12
2.38,12.32,17.48,224.66,19.97,159.91,8.1,23.73,0.98,12.3,-8.2,26.56,13
2.93,11.57,18.97,49.95,-23.24,52.78,6.65,19.42,0.48,9.96,-11.82,4.0,13
3.76,9.42,17.05,19.63,1.46,10.3,5.62,19.74,0.45,0.05,-7.13,-10.25,13
4.11,8.33,18.98,0.78,13.38,-0.83,5.16,18.82,0.52,-4.69,6.05,-3.47,13
3.39,7.44,18.02,-8.35,-1.22,-4.39,1.41,19.62,-6.01,14.36,17.19,-9.23,13
1.31,11.94,17.54,-32.81,2.98,-34.52,5.49,18.74,-2.19,-46.68,-103.96,4.3,13
-0.23,12.34,17.4,-42.72,-21.19,-118.65,9.39,17.89,8.12,-46.97,-62.45,15.92,13
8.34,-2.97,22.31,-48.58,-47.36,-87.3,5.94,17.51,4.27,-9.96,-10.06,-1.71,13
3.57,0.27,20.85,-7.81,-8.74,-17.33,5.57,18.28,2.33,-2.2,1.37,5.42,13
2.31,2.28,20.18,-0.78,-3.47,-1.56,5.81,18.42,2.56,-3.22,-0.98,1.17,13
2.3,2.73,20.62,-2.64,-1.32,-1.86,5.81,17.9,2.52,-2.59,0.63,1.17,13
2.6,2.15,20.68,-4.35,-0.39,1.27,5.82,18.44,2.29,-0.29,2.05,3.13,13
2.57,2.45,20.94,0.54,-2.1,4.25,5.68,17.83,2.58,-1.86,0.44,-1.22,13
2.42,2.28,20.68,-2.93,1.51,-0.39,5.95,17.86,2.91,-0.73,0.54,-0.93,13
2.59,1.92,20.67,-0.98,1.17,1.27,5.9,18.36,2.71,-1.71,0.0,-0.2,13
2.32,2.24,20.62,-1.07,0.88,-0.24,5.8,18.16,3.2,-1.03,-0.1,-0.39,13
2.54,1.45,20.89,-0.73,-0.63,0.0,5.84,18.51,2.84,-0.59,0.24,0.0,13
2.39,1.9,20.95,0.49,0.05,0.73,5.73,17.95,2.81,-1.22,0.34,-0.1,13
2.35,1.78,20.6,-0.34,-0.34,0.78,5.81,18.24,2.88,-1.03,0.05,0.88,13
2.48,1.67,21.09,-0.68,-1.03,-0.63,5.77,18.18,2.89,-0.24,0.34,-0.05,13
3.51,0.06,20.06,-1.61,0.83,-2.1,6.59,16.56,4.94,0.1,-10.16,-2.34,14
5.38,-1.8,21.02,-6.2,-7.23,-2.49,7.44,16.68,5.7,-10.6,2.39,2.44,14
5.05,-1.52,20.2,-8.25,-8.64,0.2,7.34,16.0,6.63,-14.16,3.42,4.88,14
4.86,-2.62,20.06,-8.3,-5.47,-0.59,7.74,15.78,8.53,-15.38,1.56,4.64,14
5.23,-3.21,18.2,-14.55,-6.15,4.39,6.91,13.48,7.73,-5.96,-6.54,1.9,14
6.39,-3.95,19.48,-6.79,-6.54,7.37,7.85,14.79,8.63,1.22,2.05,-0.88,14
6.26,-4.07,20.38,11.23,14.16,1.27,9.19,15.99,9.1,9.03,4.49,-6.1,14
4.65,-2.51,20.11,-6.64,-7.28,11.43,7.98,15.9,7.12,-6.59,1.81,2.83,14
6.25,-3.26,20.68,-13.23,-5.37,0.98,8.36,14.2,7.53,-7.96,0.29,-4.98,14
6.04,-4.83,19.23,-16.55,-0.93,-3.61,6.73,12.12,8.23,-4.59,0.78,-10.4,14
4.89,-4.33,18.88,8.94,-0.34,2.0,5.65,14.81,8.05,7.42,3.71,-2.39,14
5.16,-5.88,19.73,13.62,5.08,-6.05,6.71,16.41,10.03,16.16,1.66,-4.35,14
7.04,-4.61,22.06,14.94,13.82,2.83,8.05,19.64,8.01,12.06,8.45,-15.82,14
2.42,-1.06,20.49,-5.86,19.82,-5.86,3.84,18.28,3.37,-1.42,-1.07,-19.48,14
2.07,-3.17,21.38,-4.74,-7.13,-12.89,5.0,19.22,7.4,-7.86,-7.28,4.79,14
4.42,-2.71,20.8,3.95,-2.25,-9.08,5.46,15.92,8.39,-5.57,5.66,-4.1,14
3.71,-4.56,18.11,4.35,-18.46,7.86,12.15,9.95,14.88,0.54,16.99,29.2,14
20.8,-11.69,17.02,70.61,65.87,275.34,18.75,21.6,15.31,46.73,229.2,20.31,14
-6.05,6.36,14.83,89.21,16.85,58.98,3.98,25.86,3.67,47.56,32.47,47.17,14
1.69,5.92,19.32,37.79,-10.74,25.34,5.74,22.4,3.89,19.04,1.76,10.99,14
7.19,7.14,20.44,144.87,-53.27,233.45,5.75,18.47,-2.85,40.97,0.15,3.08,15
4.66,4.0,19.91,43.12,-2.44,30.76,6.31,19.25,-3.11,23.05,-5.86,-1.12,15
4.64,4.79,19.71,21.44,-0.39,3.42,6.64,17.6,-1.24,2.88,0.0,-1.12,15
4.24,1.67,19.88,4.2,4.1,-5.27,7.15,18.46,-0.89,-2.64,-9.08,-5.03,15
4.16,2.11,20.58,-1.51,5.08,-7.81,6.33,16.73,-1.7,-9.96,3.71,6.64,15
2.85,3.79,19.04,-16.99,-6.79,-7.03,6.8,20.13,-5.16,25.1,-52.59,4.1,15
2.26,9.95,20.05,5.96,5.37,-101.42,9.68,18.52,0.22,-111.47,-80.13,-23.78,15
5.44,0.18,16.79,-70.36,-42.77,-148.93,12.6,19.07,6.24,-49.07,-35.01,-0.83,15
4.34,-2.91,18.98,-31.74,-11.23,-49.76,6.98,17.79,3.3,-9.67,-4.15,0.78,15
4.01,-0.7,20.85,-3.66,-0.78,-6.1,5.99,17.69,1.9,-7.03,3.52,-1.32,15
3.66,0.38,21.05,-6.4,-2.88,-2.25,6.33,17.52,2.98,-2.49,0.15,1.37,15
3.46,0.66,20.94,-1.81,0.05,-2.39,6.37,17.84,3.67,-9.03,-0.63,2.49,15
3.58,-0.29,20.49,-5.37,-5.37,-0.78,6.42,18.05,3.87,-2.3,-2.05,-0.39,15
4.03,-0.06,21.22,0.05,-0.05,-1.71,6.12,17.68,3.9,-4.0,3.03,-0.68,15
3.47,-0.2,20.36,-2.34,-1.22,2.25,5.94,17.88,3.79,-2.83,0.78,0.63,15
3.76,-0.31,20.68,-1.37,-2.88,0.15,6.36,17.75,4.3,-2.34,1.9,-1.56,15
3.92,-0.74,20.51,-2.05,-0.39,0.59,6.13,18.07,4.04,-0.1,-0.15,0.1,15
3.73,-0.32,20.93,1.32,-0.34,0.29,6.16,17.7,4.43,-2.93,0.78,1.32,15
3.85,-0.7,20.67,-2.1,-2.49,0.78,6.29,17.82,4.44,-1.51,2.64,-0.05,15
3.73,-0.69,20.61,-0.44,-1.12,2.49,6.18,17.43,4.29,-1.86,2.05,0.78,15
0.23,7.76,16.87,20.17,2.98,78.47,5.94,18.09,-0.51,20.26,-15.53,17.63,16
5.18,3.96,18.95,23.88,-12.45,14.6,5.29,18.02,0.82,8.5,-14.11,2.2,16
5.13,3.21,20.52,10.99,-1.9,4.44,5.04,18.48,1.68,-6.45,-2.44,-7.03,16
5.0,2.0,21.1,0.93,4.25,0.2,4.62,19.21,0.69,0.34,3.56,-5.62,16
4.2,2.31,20.64,4.74,1.76,-0.63,3.87,19.2,0.34,0.68,3.42,-3.42,16
3.84,3.37,20.5,0.93,3.08,-1.56,3.79,18.77,0.58,0.98,2.93,0.88,16
4.28,2.03,20.38,-1.03,1.32,-3.66,4.36,19.22,1.72,-4.0,0.24,-6.84,16
3.13,3.1,19.93,-2.54,4.88,-1.22,3.61,19.37,0.72,-0.29,0.59,-2.34,16
2.87,2.71,20.01,-2.83,6.3,-3.17,1.84,19.68,-0.16,4.49,2.29,-5.47,16
2.07,4.62,20.68,2.73,-0.78,-13.67,0.53,19.91,-2.48,-21.09,-49.76,-17.92,16
-0.05,11.2,19.21,-36.23,-1.17,-74.76,4.02,19.43,-0.56,-82.96,-85.69,16.41,16
5.03,0.86,18.23,-101.42,-25.68,-162.55,8.8,18.87,12.01,-24.8,-60.89,4.15,16
6.5,-4.31,22.32,-12.79,-16.02,-56.15,4.39,16.42,6.08,-12.55,-9.57,4.3,16
3.32,-2.71,19.57,-8.01,-11.13,-20.7,4.62,18.44,5.1,-2.15,1.46,-3.52,16
3.26,-1.07,21.02,-2.34,-2.29,-3.22,4.38,18.58,5.58,-3.03,1.32,1.42,16
3.64,-1.16,21.27,-3.27,-0.39,-1.12,4.32,18.0,5.95,-2.69,1.51,1.66,16
3.24,-1.17,20.64,-1.32,-1.56,1.51,4.13,17.33,6.04,-3.13,0.44,-1.46,16
2.91,-1.71,20.15,-2.39,-1.12,0.29,3.95,18.14,5.85,-0.1,0.68,-1.61,16
3.25,-1.67,20.91,-0.98,1.32,-0.05,4.15,17.65,6.11,1.03,-1.22,-1.51,16
3.56,-2.18,21.06,3.52,2.2,-0.78,4.41,18.36,5.97,1.71,-0.34,-0.83,16
9.23,-2.35,20.73,8.69,55.66,259.03,0.23,19.57,0.81,18.16,-6.59,11.62,17
-3.71,5.95,20.88,-0.44,8.98,62.11,0.89,19.12,2.76,-2.54,-8.4,-7.67,17
-1.32,3.85,20.76,8.89,-2.93,11.62,0.41,18.76,3.91,-1.51,1.66,-1.22,17
-1.68,-0.42,20.87,-1.17,3.91,-2.49,0.56,19.32,5.15,-3.91,0.44,-1.86,17
-2.62,0.49,21.62,-2.2,1.46,-3.81,0.15,19.64,4.8,3.95,-1.61,-1.37,17
-2.68,-0.71,21.84,-1.66,2.59,-2.44,-0.13,18.29,3.96,-4.05,1.76,-2.78,17
-2.54,-1.17,20.96,1.27,1.81,-1.81,-0.02,19.28,4.1,-1.17,0.63,-1.9,17
-3.05,0.54,21.11,2.25,0.44,-0.05,-0.62,18.21,3.41,-0.59,3.32,-0.44,17
-2.9,0.23,21.2,1.03,-1.03,-0.98,-0.26,19.19,4.32,-1.37,-2.39,-0.98,17
-3.19,0.35,20.74,2.39,-3.08,-1.56,-1.98,19.92,1.9,5.08,-8.15,-19.09,17
-2.84,0.24,21.11,-1.81,-0.83,-8.79,-2.13,18.05,3.0,-1.51,-52.2,5.96,17
-3.96,3.32,21.06,3.66,-4.54,-41.16,0.83,20.39,1.83,-52.54,-112.4,0.59,17
-3.73,4.25,20.39,5.52,-17.97,-109.23,7.48,23.12,14.16,-11.67,-41.21,14.75,17
3.98,-5.04,19.05,-25.88,-57.47,-166.21,2.25,17.94,7.01,-5.03,-10.94,7.57,17
5.23,-5.03,22.1,-31.84,-24.46,-38.62,2.46,17.75,6.12,-4.54,0.24,3.47,17
2.69,-2.68,20.81,-4.79,-8.69,-6.35,2.58,18.23,6.28,0.39,-0.54,-0.24,17
3.05,-2.31,21.17,-4.35,-1.61,0.05,2.93,17.64,6.65,1.61,-0.54,-0.2,17
2.93,-2.39,20.57,1.12,0.39,-2.44,2.71,18.65,6.26,1.37,0.73,0.73,17
2.91,-2.67,20.46,2.83,-1.27,-0.24,2.94,17.95,6.6,-1.71,0.98,-0.93,17
2.79,-2.01,21.17,1.76,0.44,-0.73,3.09,18.34,6.5,1.46,0.05,1.76,17
11.83,-5.87,17.32,53.08,22.41,283.94,1.78,19.15,0.64,8.84,-11.04,18.16,18
1.67,8.69,20.75,31.74,-4.74,43.55,2.05,19.58,3.16,-6.25,-9.08,3.32,18
1.77,6.7,18.7,16.7,-17.97,9.28,2.19,20.34,2.22,2.2,-2.73,-1.12,18
3.32,2.98,20.69,-2.05,-6.69,4.54,1.41,19.54,2.03,3.03,-6.4,1.07,18
2.75,4.5,20.5,-0.83,-0.49,0.83,2.08,19.41,2.08,0.24,2.1,-0.24,18
2.82,3.27,20.39,1.17,-5.13,2.98,1.89,19.36,2.72,0.59,-5.27,-2.83,18
3.06,4.49,19.94,-1.03,0.78,-2.29,1.55,19.39,2.58,1.76,4.64,2.0,18
2.35,3.89,19.95,-1.86,2.34,-2.39,1.99,19.44,1.96,7.28,8.74,-2.69,18
2.68,3.49,20.71,-3.52,-1.86,-2.29,-1.76,20.04,-3.43,4.49,-64.06,-17.68,18
1.98,5.42,19.8,-0.93,0.0,-11.72,3.39,19.01,-1.42,-28.76,-141.36,13.28,18
-0.27,11.61,19.09,-6.93,-12.94,-83.11,4.05,18.52,5.08,-7.18,-61.23,13.72,18
5.38,2.9,19.42,-64.65,-9.23,-148.97,2.5,16.81,3.77,-12.94,-8.54,-0.83,18
4.23,-1.13,21.87,-8.84,-16.06,-70.65,1.97,19.2,3.45,-4.25,1.03,4.88,18
2.69,-0.9,20.07,-8.2,-11.43,-12.35,3.01,19.5,4.03,-3.03,3.03,6.3,18
1.86,0.93,21.06,-2.39,-6.1,0.68,2.44,18.44,2.98,-5.66,3.17,-0.2,18
2.92,0.05,21.54,-1.32,-1.32,6.59,3.1,18.47,3.86,-2.0,4.49,5.22,18
1.91,0.78,20.61,-2.44,-2.29,3.52,3.81,18.6,4.48,13.77,17.24,18.95,18
2.53,-0.1,20.3,-2.73,-1.95,5.03,3.91,20.05,2.41,-1.03,1.32,4.0,18
2.27,1.87,20.82,14.79,-1.37,23.88,3.57,17.54,3.69,-3.22,-0.63,-2.29,18
2.73,1.59,21.75,-2.34,1.27,-1.27,3.96,17.86,3.67,16.65,-6.64,6.01,18
1.17,8.36,16.49,108.74,-3.81,224.56,-3.35,27.21,-4.33,38.62,115.63,-9.03,19
1.15,4.83,18.15,-7.96,4.88,37.7,0.28,14.33,-4.22,7.23,2.05,-4.59,19
2.77,4.75,19.74,0.2,-2.64,4.79,1.94,17.68,0.43,-1.37,-8.06,-0.59,19
3.28,3.71,21.17,5.96,-5.47,4.0,1.87,20.59,0.61,-2.78,-0.39,-3.03,19
2.96,2.9,20.71,1.42,1.86,-1.81,1.45,19.39,0.85,0.54,4.35,-1.86,19
2.44,3.6,19.85,1.17,-0.93,1.46,1.19,19.65,0.55,-4.25,-3.66,1.95,19
3.23,2.48,20.6,-0.78,-2.44,-0.34,1.7,19.98,1.91,-3.47,-6.3,-2.1,19
2.87,2.93,20.43,-0.78,1.76,-1.95,1.35,19.26,1.35,-1.37,0.39,-1.9,19
2.57,3.23,20.42,-0.63,-0.34,-1.71,0.95,19.42,0.82,0.49,-1.61,0.98,19
2.59,3.5,20.45,3.17,-0.83,-3.03,1.09,19.25,0.77,4.83,-2.1,0.05,19
2.66,4.06,19.84,-6.05,-4.39,-4.88,0.96,19.11,0.3,-6.4,2.44,-4.49,19
3.11,2.82,21.15,-4.79,-3.32,-5.96,0.15,19.81,0.76,-2.1,1.66,-3.91,19
1.6,6.99,20.47,-9.03,-2.1,-46.58,-1.43,19.95,-1.89,-1.42,-49.46,-5.32,19
0.95,9.86,19.85,-46.83,-10.16,-121.0,-0.02,20.61,-1.2,-63.18,-74.41,9.23,19
7.44,-7.17,21.02,-47.17,-15.62,-123.58,6.16,19.25,8.34,-12.79,-77.44,24.95,19
5.02,-5.7,21.31,-15.33,-10.79,-21.29,3.94,17.33,7.6,-6.59,-10.94,6.59,19
2.38,-1.14,21.36,-2.59,-0.93,0.29,2.74,18.94,4.49,-0.24,1.9,2.2,19
2.63,-0.82,21.36,2.78,-2.1,3.52,3.41,18.94,4.73,1.9,-0.2,0.98,19
2.62,-1.13,20.31,-0.54,2.59,3.76,3.07,17.91,4.95,-0.54,0.83,-2.0,19
2.81,-2.07,20.78,1.32,-2.29,1.66,3.4,18.09,5.69,0.83,1.22,3.66,19
8.59,7.83,25.83,46.53,-44.97,159.38,3.4,19.76,1.21,1.71,13.82,-20.61,20
6.68,2.19,21.22,24.76,-6.4,23.58,1.77,17.85,3.81,-0.73,-4.49,-5.86,20
4.54,-1.42,20.14,5.96,-4.93,1.27,3.4,18.57,5.77,1.95,-6.69,4.39,20
5.6,-2.15,20.74,0.49,-9.03,-0.68,3.54,18.22,5.67,-18.41,5.42,4.54,20
4.12,-0.78,19.21,-12.89,-4.88,-6.79,4.52,17.94,5.87,-2.0,-3.42,-0.68,20
5.85,-1.43,19.95,-1.81,2.1,-2.54,4.25,17.83,5.91,2.49,-3.66,-2.2,20
5.75,-2.04,19.69,4.05,0.1,-3.61,4.26,18.53,5.32,-5.52,-4.49,9.38,20
5.72,-1.92,19.7,-3.22,-6.4,-1.61,4.46,18.49,5.5,-2.05,0.63,-2.05,20
6.07,-1.65,20.09,-1.76,3.13,-0.24,4.24,18.26,5.62,-0.39,-2.98,-2.49,20
5.47,-1.08,19.66,1.12,2.98,-2.44,3.9,18.85,5.79,-20.75,2.78,-1.71,20
5.25,-0.5,19.63,-11.13,-3.12,-16.99,3.6,18.52,3.08,-17.63,-30.71,4.79,20
3.41,4.78,18.1,-44.14,22.71,-86.67,8.72,17.34,0.79,20.51,-153.91,-27.69,20
9.18,-3.85,20.77,6.4,34.62,-205.86,10.13,18.41,7.68,-16.55,-55.52,-29.0,20
5.67,-3.72,21.25,-25.29,18.31,-80.37,5.07,16.63,3.45,-8.5,2.05,-6.88,20
1.56,-1.59,19.92,-2.2,2.29,-4.0,3.84,19.78,1.18,5.86,10.3,5.03,20
0.73,2.39,21.38,2.69,-4.39,2.93,4.92,18.25,2.22,-7.47,6.98,3.81,20
1.29,1.09,21.24,-5.18,-4.98,1.56,5.59,17.0,2.53,1.51,5.27,-3.61,20
2.56,-0.77,21.97,2.78,5.52,8.84,4.33,17.57,1.81,-2.54,4.88,-2.39,20
0.11,1.45,20.22,-1.61,3.71,3.61,5.21,18.23,3.01,-3.76,-1.22,3.76,20
0.74,0.99,21.0,-7.37,-0.93,-5.18,5.53,18.12,3.68,-1.51,0.15,-2.98,20
1.14,-0.75,20.36,-2.49,0.24,4.3,3.67,18.3,4.38,-2.64,6.3,-1.42,21
0.56,-1.0,20.12,-2.15,1.46,5.96,3.95,18.19,4.45,-0.73,5.57,0.54,21
0.66,-0.67,20.69,-1.51,1.37,6.54,4.04,18.66,3.95,0.1,4.74,-1.61,21
1.16,-0.9,20.75,-0.29,-0.68,4.1,3.77,18.65,3.91,-2.54,4.54,-0.73,21
1.08,0.03,21.27,0.98,2.49,4.59,3.87,18.69,4.17,2.34,-1.42,0.83,21
0.41,-0.42,20.61,-1.47,-2.39,4.0,3.56,19.18,4.73,1.27,4.0,-5.08,21
0.95,-0.34,21.82,4.15,-0.88,0.2,3.33,18.7,4.75,3.52,5.03,-2.93,21
0.63,-0.98,21.55,0.88,1.66,5.86,3.13,20.71,5.01,7.37,2.88,0.59,21
0.5,-1.61,21.82,6.15,-0.15,6.88,1.57,20.77,3.8,7.47,9.13,-23.05,21
0.26,-0.6,23.57,12.16,2.05,8.79,0.75,17.61,3.02,7.37,-3.22,-9.57,21
-1.56,0.83,21.62,9.72,14.31,12.26,1.48,17.83,2.49,1.03,12.16,-6.4,21
-1.44,0.57,19.85,9.52,6.59,3.27,1.89,17.28,2.18,-0.0,16.7,-1.81,21
-0.35,1.42,20.2,-1.95,2.98,9.57,1.14,19.36,3.18,3.03,14.45,-3.32,21
-0.48,0.63,19.91,-2.15,2.54,19.92,1.3,21.4,3.44,2.88,9.86,-1.86,21
-0.71,0.81,21.15,0.39,0.93,23.73,1.28,18.76,3.77,-13.48,9.77,0.49,21
-0.05,2.2,21.92,-0.98,0.83,20.21,0.33,19.25,4.25,8.35,6.3,-6.74,21
-0.79,0.11,20.23,-10.89,-0.2,14.31,1.52,21.98,0.13,-11.62,14.84,-3.08,21
-0.8,-2.48,19.08,-11.04,-10.64,5.22,1.19,18.27,3.45,-14.8,0.78,8.15,21
1.05,4.26,23.15,-20.61,-5.52,-13.53,3.09,18.8,5.46,-11.91,-8.89,31.25,21
-1.05,0.15,19.82,-8.11,-9.33,0.34,4.34,19.79,5.64,-15.19,6.93,-4.59,21
0.18,13.37,23.57,18.07,15.82,276.95,-5.1,9.57,-5.09,9.57,172.22,-27.39,22
-1.05,3.4,17.7,12.06,-30.03,68.95,1.02,14.3,-1.82,13.82,-7.52,10.45,22
2.47,3.06,20.59,9.52,-13.43,3.08,3.39,19.49,-0.21,6.3,-23.19,3.96,22
2.27,1.34,21.27,9.57,-2.93,-2.15,3.46,19.66,1.29,-1.66,-7.62,-7.81,22
1.46,1.0,21.44,6.4,5.47,-4.98,2.41,19.26,1.45,-7.37,-3.71,-12.79,22
0.46,1.78,19.83,-0.15,2.29,-2.29,2.01,18.39,1.02,-0.39,-4.54,5.91,22
1.36,1.33,20.9,-0.44,-4.2,-0.34,2.58,18.48,1.2,0.24,-6.2,2.83,22
2.25,0.45,21.49,-3.17,-0.2,-2.0,3.04,19.04,1.24,-2.05,-8.06,-3.27,22
1.4,1.15,21.11,-4.15,3.27,-5.42,2.52,18.52,1.13,-3.08,-9.08,-1.37,22
1.27,1.13,21.25,1.86,-0.68,-2.98,2.99,18.85,1.94,-3.91,-4.98,-1.51,22
1.42,0.37,21.26,0.73,-0.34,2.34,2.01,19.58,0.99,-2.44,5.71,-1.51,22
0.82,1.65,20.64,2.15,-0.05,-0.39,2.3,18.68,1.36,0.2,4.25,5.47,22
-1.0,4.8,19.85,-4.35,-7.32,-18.8,-0.2,16.46,-2.13,-25.63,2.78,-4.44,22
3.39,9.32,20.92,9.96,-29.69,-174.66,9.6,19.93,0.46,-21.53,-140.14,20.65,22
3.59,-0.2,24.59,-27.64,9.18,-81.25,7.36,20.59,5.52,-42.53,-32.57,-22.85,22
-0.02,-1.35,20.49,-12.21,12.06,-18.36,3.39,17.93,5.44,-16.41,-5.47,-5.62,22
-1.16,-1.55,20.0,-5.32,-12.3,1.27,2.58,18.12,4.12,-9.47,1.22,7.67,22
0.61,-0.3,21.99,-3.03,-8.54,-0.83,4.12,18.75,4.41,-4.93,5.08,2.0,22
1.65,-1.66,21.35,7.91,-8.69,11.28,4.07,19.19,5.49,7.67,16.7,10.89,22
1.14,-0.46,21.5,7.91,-8.15,-3.42,4.67,19.99,5.5,-1.17,-1.61,8.89,22
4.58,-1.47,19.13,12.84,26.56,192.43,4.66,18.28,3.36,46.87,143.41,-12.94,23
-0.64,8.69,18.67,19.29,6.3,72.85,-0.93,18.11,-3.72,13.87,63.48,-10.25,23
1.7,6.34,19.13,7.76,11.04,42.77,1.28,18.04,-2.24,10.94,12.74,-6.45,23
2.92,4.3,21.48,8.89,-10.84,5.47,1.75,20.09,0.16,3.27,-15.04,3.52,23
2.18,2.0,20.86,1.66,1.17,-6.79,0.85,20.19,1.09,2.25,-7.32,-4.69,23
1.76,3.23,20.34,4.3,-4.69,-9.96,0.97,19.66,0.73,7.08,-8.45,2.69,23
2.52,3.27,21.2,1.32,-1.22,-5.42,1.53,18.85,0.92,1.95,-0.24,0.68,23
2.33,3.26,20.91,2.29,-2.0,-4.69,1.59,20.11,0.56,-2.1,-2.39,-1.03,23
1.96,2.72,20.3,8.89,3.13,-5.86,1.29,19.07,0.12,6.05,-7.37,-5.47,23
2.2,3.41,20.7,2.69,-2.93,-3.22,0.77,18.59,-0.7,-0.05,-0.78,1.27,23
2.3,4.02,20.89,2.1,-0.24,2.29,1.33,20.02,-0.22,-1.32,-1.22,0.29,23
1.85,4.29,20.4,2.54,0.93,7.03,0.78,18.36,-0.53,-4.15,-2.98,-7.57,23
1.84,4.16,20.3,-0.05,-4.0,-1.07,1.03,19.16,0.23,-0.63,-8.4,3.66,23
2.23,3.35,20.09,-5.27,-3.56,-5.81,1.55,19.26,0.11,1.07,-1.56,6.88,23
1.72,5.43,19.76,-6.88,-4.3,-9.13,0.83,18.59,-1.18,-5.08,-4.35,5.52,23
-0.65,10.71,17.02,-60.35,13.87,-99.32,-1.38,17.05,-4.67,-42.38,-16.06,33.45,23
6.44,0.04,24.89,11.43,-27.83,-146.0,9.7,22.59,4.56,-24.71,-125.05,35.25,23
3.84,-4.52,22.24,-49.32,2.59,-18.65,6.99,18.32,6.01,-39.6,8.64,-9.62,23
0.18,-0.87,19.96,-10.25,4.35,-1.42,3.31,17.69,4.17,-13.67,7.28,-13.53,23
0.25,0.52,20.65,0.2,-6.05,4.15,3.3,18.46,3.77,-3.71,4.39,4.79,23
2.23,-1.17,15.32,26.51,17.43,230.32,2.38,17.44,4.97,104.2,84.13,1.42,24
-0.89,6.9,17.01,49.32,-19.14,81.35,1.11,18.89,-1.81,33.74,-4.83,-12.21,24
3.84,7.49,21.58,19.14,3.27,6.64,1.65,18.99,-3.7,18.75,-11.08,-0.44,24
3.18,3.41,20.71,-1.86,-3.42,2.54,2.22,17.79,-1.74,1.37,-4.88,6.54,24
2.55,0.91,20.4,-3.27,2.98,-3.32,1.84,19.82,-1.43,-0.05,-2.39,0.29,24
2.42,2.11,20.24,-1.42,4.59,0.05,2.53,19.51,-1.36,9.67,6.74,4.93,24
2.08,3.08,20.28,-4.44,-0.59,-9.33,1.98,18.87,-2.38,1.03,-8.01,5.47,24
1.25,5.14,19.49,-7.86,-1.76,-49.51,3.15,18.72,-0.54,-28.91,-20.9,14.75,24
4.52,1.08,19.3,-35.11,-19.43,-154.15,4.75,17.96,-1.87,-65.72,-65.19,18.7,24
4.85,-2.85,22.68,-28.76,7.18,-59.37,7.92,20.15,6.89,-27.93,-19.34,4.49,24
2.17,-1.37,21.15,-21.92,1.32,-21.58,5.2,16.54,5.54,-20.02,-3.61,-5.42,24
1.41,-0.95,20.77,-4.74,-6.45,-9.37,4.83,17.76,5.55,-8.74,-4.15,0.39,24
2.17,-1.75,21.06,-4.25,-1.95,-7.32,5.35,17.63,5.64,-6.01,-1.86,-1.32,24
1.87,-0.5,21.33,8.89,0.73,1.22,5.15,18.76,6.11,1.27,-3.91,-1.42,24
1.93,-1.39,21.26,-2.93,2.1,-1.56,4.73,17.67,5.63,-3.37,0.83,-4.49,24
1.77,-1.55,20.88,-0.24,-2.73,-1.95,4.98,17.73,5.82,-0.83,-1.37,2.78,24
2.09,-1.73,21.21,-1.76,-2.69,-2.15,4.82,17.35,5.84,-1.9,-0.44,-1.42,24
2.11,-1.44,21.26,-0.68,-2.1,-1.07,4.93,17.92,5.76,-0.44,-0.29,1.27,24
2.14,-1.06,21.1,0.05,-2.59,1.71,4.74,18.07,5.49,-0.88,1.17,2.2,24
2.19,-1.41,21.1,-0.78,-1.46,2.1,4.81,17.98,5.63,-0.93,0.73,0.15,24
5.3,1.56,22.44,24.95,2.78,111.77,4.66,19.1,-0.98,3.56,-14.79,9.52,25
3.78,3.11,18.59,5.66,7.42,57.81,6.92,17.81,2.2,-4.39,-7.47,-1.56,25
3.65,-0.12,20.32,0.49,-4.83,-3.08,6.32,18.32,1.68,0.24,-1.86,-0.59,25
3.81,-2.86,20.93,0.49,-0.88,4.64,5.35,18.25,0.14,1.81,-12.45,-3.96,25
3.75,-2.14,20.55,3.17,-2.44,4.54,5.69,18.65,0.12,1.22,-5.57,1.76,25
4.04,-1.65,20.62,4.05,-2.73,-7.13,5.4,17.91,0.46,-2.93,-0.29,-0.93,25
4.17,-2.08,21.01,-0.78,3.52,-7.52,5.43,18.42,0.29,0.73,-5.03,2.0,25
3.66,-1.75,20.67,-0.54,-0.24,0.49,6.03,17.95,0.16,-0.0,-4.3,3.27,25
3.87,-1.84,20.97,1.51,-3.47,-2.83,5.74,18.51,0.01,-3.96,-1.61,-0.49,25
4.21,-1.97,21.14,-0.39,-3.37,-0.68,3.1,18.93,-1.77,-5.32,-3.86,0.54,25
3.69,-1.24,20.71,-4.3,1.12,-2.29,6.01,19.14,0.1,-39.4,-13.43,12.45,25
2.66,2.17,21.2,-6.01,18.55,-64.16,8.83,16.34,3.74,-40.14,-52.44,-15.43,25
3.52,4.59,21.85,-18.46,49.17,-155.18,7.03,17.38,5.49,-25.0,-11.52,-17.58,25
3.06,-4.98,21.98,-14.45,24.51,-90.33,4.93,16.77,5.13,-18.6,1.95,-7.03,25
0.62,-4.57,21.09,-1.61,-0.29,-27.88,5.13,16.84,5.21,-3.37,5.71,10.06,25
0.08,-4.41,19.82,3.17,-10.69,-13.77,5.87,17.94,5.72,-3.08,6.2,4.83,25
0.92,-1.91,21.93,5.32,-11.72,5.52,4.74,16.64,4.69,-1.37,7.57,-14.79,25
1.97,-2.94,22.78,0.88,-1.95,8.59,3.77,16.98,4.64,-4.54,4.39,3.96,25
0.33,-1.81,20.24,2.98,10.06,-0.73,4.99,18.32,5.94,-1.22,0.59,3.86,25
-0.18,-1.44,20.84,1.32,-4.88,-0.44,5.17,17.59,5.69,-0.59,-0.05,-0.24,25
6.27,5.15,26.26,6.54,-32.32,212.79,1.8,17.6,-2.11,-9.18,28.66,-4.3,26
1.83,2.79,18.11,13.33,-0.1,81.3,1.75,18.82,-1.48,-2.15,1.56,-1.51,26
2.88,3.38,20.47,1.46,-13.96,38.67,2.57,18.76,1.15,-9.42,-6.3,-2.25,26
3.23,0.04,20.49,-4.35,-7.28,11.67,2.74,18.96,1.53,-3.03,-1.86,-3.52,26
3.13,-1.07,21.39,1.66,-1.76,6.74,2.75,19.38,0.75,-5.42,4.83,0.59,26
3.75,-0.58,21.62,-0.68,0.39,-3.27,2.72,19.03,1.47,-1.17,0.49,-0.88,26
3.26,-0.73,21.11,-1.71,0.83,3.32,3.0,19.31,2.22,-0.34,-2.0,1.32,26
2.54,-1.31,20.6,2.25,-1.56,-1.56,3.59,19.26,1.77,2.1,-15.19,2.78,26
2.11,0.5,20.88,-2.25,3.03,-15.33,3.01,18.88,1.62,-5.22,-11.52,-4.0,26
2.95,-0.62,21.31,-3.27,0.93,-0.88,2.18,18.92,1.4,-1.47,-1.61,-3.76,26
2.72,-1.13,21.17,-0.63,0.2,-0.59,2.43,19.14,1.43,1.71,-4.39,2.98,26
1.93,-0.84,20.57,-0.59,-1.66,-1.71,2.78,19.19,1.29,0.44,-0.88,4.64,26
2.66,-0.75,21.12,-3.32,-1.76,-2.25,1.54,19.86,0.27,-2.2,-2.29,0.93,26
2.72,-0.44,21.27,-1.66,-1.12,-6.74,1.15,20.57,-1.07,-11.38,-31.69,-5.96,26
2.62,2.49,21.94,4.1,7.67,-48.68,1.42,21.61,-1.06,-71.24,-88.04,-22.75,26
0.96,6.97,20.26,10.55,22.07,-129.44,5.12,14.56,6.43,-33.98,-78.81,42.38,26
-0.63,4.4,15.26,-34.08,7.52,-153.42,6.92,17.58,8.3,-28.81,6.2,11.57,26
2.04,-7.87,21.6,-8.3,-17.63,-46.24,5.47,18.26,7.66,-5.81,29.88,7.37,26
2.73,-4.59,22.83,-4.49,-8.45,7.52,4.06,18.84,5.87,4.83,4.93,0.83,26
0.38,-2.74,20.78,3.56,-2.05,4.88,4.75,17.54,5.96,-5.08,1.42,-6.15,26
5.49,1.03,23.96,39.89,-49.51,225.88,6.82,28.57,6.7,90.58,72.51,24.12,27
0.61,2.26,17.3,33.59,13.77,120.51,2.45,14.27,-0.35,16.75,28.03,-33.64,27
3.25,4.9,21.41,5.08,-50.93,58.01,1.63,17.97,-1.74,14.01,15.97,29.49,27
3.45,-0.13,19.85,0.93,-3.08,10.01,5.52,18.55,1.97,0.29,-12.5,1.86,27
3.78,-2.46,20.98,4.3,-2.39,0.39,4.69,18.76,1.96,-3.61,-10.11,-6.84,27
3.91,-1.81,20.71,1.51,2.2,-1.37,4.56,18.43,1.72,-4.3,-3.22,-6.93,27
3.53,-2.25,19.91,0.29,-1.27,-0.73,4.83,18.59,1.58,2.0,-0.78,-0.98,27
4.11,-1.93,20.95,0.2,-4.88,-3.12,4.72,18.78,1.72,6.54,-1.61,8.89,27
3.88,-1.64,20.35,2.59,-4.35,-3.66,4.91,18.31,1.49,1.76,-5.37,0.93,27
4.07,-1.66,20.3,2.25,-1.95,0.29,5.04,18.21,1.37,0.68,-1.46,0.49,27
3.94,-1.14,20.35,-1.9,-1.32,4.2,4.75,18.93,1.18,-1.37,1.37,5.22,27
4.6,-2.03,20.98,1.03,-2.59,-2.34,5.38,19.43,1.28,0.68,-3.66,0.59,27
4.4,-1.99,20.58,-0.2,-1.42,-2.25,5.3,18.56,1.49,-0.93,-1.42,0.78,27
4.19,-1.49,20.56,-1.22,0.05,-2.25,4.99,18.58,1.25,0.78,2.15,3.13,27
4.11,-1.36,20.53,-1.56,-0.05,-8.54,4.76,18.19,1.16,-2.64,-4.93,1.03,27
3.39,1.38,20.92,-5.76,4.83,-25.59,3.66,19.02,-0.13,-3.61,-4.64,3.42,27
4.24,2.83,21.57,4.69,12.16,-98.68,5.64,19.87,1.11,-20.95,-38.72,-3.76,27
3.3,-3.17,19.31,-30.32,40.77,-150.83,4.6,15.83,0.4,-50.24,-55.66,-13.77,27
2.96,-5.01,22.05,-19.58,14.21,-83.64,8.12,18.83,6.33,-16.16,-39.6,3.08,27
1.31,-4.95,21.7,-17.77,-4.35,-18.16,4.94,17.54,5.26,-21.39,16.26,-0.15,27
1.26,4.55,22.36,1.9,-29.39,229.25,6.69,18.75,1.35,1.51,-9.57,-7.62,28
1.43,3.79,19.57,20.21,-35.06,94.24,5.88,18.06,3.39,-2.93,-4.2,-3.61,28
2.28,-1.65,21.9,8.54,-2.39,12.35,5.6,17.86,3.74,2.15,-3.91,-1.56,28
0.89,-5.5,21.03,-1.95,1.12,-5.42,4.78,17.5,1.65,4.74,-6.01,-4.25,28
0.34,-3.89,20.88,4.98,-1.37,-1.71,5.2,18.56,2.15,0.1,-0.39,1.61,28
-0.01,-3.69,19.35,3.81,5.42,-5.18,5.47,18.5,2.37,-0.1,-2.25,1.9,28
0.61,-3.31,21.14,-1.56,0.2,-1.95,5.73,17.89,2.35,-1.56,-2.2,-3.47,28
1.18,-4.17,21.86,-1.17,-0.78,-8.89,5.78,17.92,2.27,-0.98,-5.47,3.56,28
0.68,-4.15,20.53,-0.15,1.56,-2.15,6.18,17.89,2.47,0.05,-3.08,1.61,28
0.89,-4.42,20.55,-0.83,-2.34,-2.98,6.31,17.98,2.54,-5.37,-8.4,-11.18,28
1.08,-3.96,20.83,-2.88,0.78,-7.91,3.41,18.91,1.33,-7.32,0.93,-5.81,28
1.52,-4.19,21.45,3.37,8.2,-16.21,5.06,18.31,4.53,-41.46,4.49,-8.89,28
-0.36,-1.39,20.98,-1.86,2.29,-27.0,0.85,16.26,0.72,-15.92,-47.61,-16.99,28
-0.19,-2.07,19.91,-7.86,0.2,-58.11,9.42,21.15,6.01,-1.71,-110.3,-60.25,28
2.74,-2.44,22.93,39.31,3.47,-138.43,2.18,14.16,5.29,-48.73,-1.37,21.83,28
2.94,-0.17,21.08,25.68,35.35,-120.36,3.01,18.91,7.49,-14.5,-5.37,5.71,28
-0.21,-3.88,19.4,-49.02,-18.99,-38.77,3.69,17.9,6.94,-4.35,0.0,-1.66,28
1.0,-4.52,22.62,-16.55,-8.2,-19.97,3.3,18.81,6.57,1.17,3.13,-1.17,28
0.94,-3.29,21.61,-4.74,-3.42,-4.79,2.86,17.8,6.07,-1.61,0.44,2.05,28
0.25,-2.11,21.19,1.9,-1.56,3.56,3.33,18.02,6.35,-1.03,-1.37,3.27,28
5.28,-7.13,18.69,37.6,20.65,145.95,8.92,13.89,6.05,82.18,79.39,31.35,29
2.18,7.39,21.65,-21.88,-72.61,236.82,1.82,19.21,-1.81,10.99,116.02,11.52,29
3.47,1.54,19.86,-2.49,2.83,75.05,5.38,15.55,0.31,-7.37,23.34,-1.42,29
2.34,-2.34,21.46,-0.49,6.01,11.62,5.15,18.13,3.58,-5.08,-5.57,-7.28,29
0.79,-4.6,20.17,1.61,1.03,-4.05,4.65,17.63,4.54,-2.2,-4.15,-3.96,29
1.68,-4.48,20.26,6.01,-3.47,-11.13,4.82,17.56,3.67,8.25,-17.43,-1.42,29
2.77,-3.31,21.26,5.66,-2.73,-10.21,5.64,18.42,3.61,0.49,-25.05,-4.44,29
2.34,-3.5,20.78,1.66,0.49,-8.98,5.18,17.8,3.07,-2.0,-5.03,-3.96,29
2.18,-3.05,20.96,0.88,-2.44,-2.78,5.41,18.21,3.55,-2.49,-6.54,-0.73,29
2.32,-3.1,20.82,-2.15,-0.59,2.73,5.31,19.29,2.76,0.24,3.22,2.98,29
1.94,-3.65,19.91,-5.86,5.03,-6.64,4.96,18.7,2.48,0.29,-0.98,4.39,29
1.89,-1.56,20.62,-0.05,-3.08,-19.53,4.21,19.08,1.68,-3.76,-5.71,0.93,29
3.72,-0.43,21.36,-2.49,5.13,-60.11,6.21,18.23,2.94,-20.12,-22.27,-10.4,29
0.94,-1.29,18.46,-19.43,30.71,-92.68,3.62,17.81,2.95,-45.9,-10.06,-17.53,29
1.59,-0.61,19.94,27.29,14.65,-132.13,6.97,16.6,3.08,11.77,-70.7,-3.56,29
4.05,-4.34,22.84,-15.28,-12.94,-53.12,9.1,19.14,7.61,-17.63,-27.05,16.6,29
3.07,-4.09,22.24,-28.03,1.12,-14.75,7.67,17.81,6.9,-22.22,6.25,1.9,29
1.23,-4.59,20.76,-8.5,0.34,-0.68,5.8,16.94,7.08,-9.91,7.47,-2.54,29
0.64,-3.35,20.39,0.68,-3.27,4.54,5.32,16.84,6.62,-0.0,5.37,4.79,29
1.71,-2.49,21.41,3.76,-5.27,3.32,6.79,17.6,6.09,3.08,2.05,6.69,29
10.38,-2.4,20.85,67.53,-23.05,282.96,2.82,16.58,1.59,24.66,120.26,-8.54,30
1.32,2.63,20.08,26.12,-2.34,143.95,3.33,13.87,-0.87,18.12,28.52,-0.59,30
0.72,1.13,17.05,7.62,-5.42,39.01,5.27,18.92,0.84,12.16,-4.44,10.84,30
3.03,-1.43,21.2,2.78,-10.45,2.98,6.17,18.41,3.35,2.34,-2.39,-1.37,30
2.78,-3.89,21.02,11.08,-13.23,3.27,5.3,17.55,2.97,-1.17,6.59,-5.13,30
1.46,-2.26,19.96,10.35,-10.79,11.18,5.63,18.14,3.4,-0.83,2.78,3.03,30
2.11,-3.04,20.14,-4.25,-1.17,-1.51,5.99,17.5,3.15,-2.2,2.44,0.93,30
2.85,-4.04,20.48,-0.24,-0.15,1.51,5.89,18.42,3.55,-0.54,-0.63,-0.78,30
2.72,-3.69,20.59,-0.63,0.15,0.15,5.79,18.52,3.41,1.86,2.69,3.03,30
2.66,-3.38,20.86,-0.2,1.03,-1.03,5.65,18.05,3.2,-3.03,3.08,0.54,30
2.58,-3.47,20.88,0.49,-2.15,-1.9,6.07,18.09,3.88,-5.86,-0.29,-3.27,30
2.59,-2.85,21.07,0.1,-2.73,-2.05,5.01,19.28,2.73,-14.11,10.35,-12.7,30
2.36,-0.79,20.7,4.54,3.42,-26.07,3.57,18.19,3.88,-38.18,-8.25,-37.55,30
2.35,2.51,20.39,0.24,9.18,-89.89,0.77,16.58,0.56,-10.6,-101.27,-25.59,30
2.28,3.04,18.35,-6.4,31.69,-191.06,7.76,17.13,5.48,-11.33,-123.14,12.01,30
5.7,-6.91,22.86,-3.52,-7.13,-124.32,7.65,17.52,8.34,-33.06,2.78,-1.9,30
4.09,-5.67,22.29,-29.2,-8.45,-19.24,5.43,16.19,8.35,-9.28,1.32,-2.1,30
1.63,-4.73,20.23,-7.32,-0.39,-1.17,4.96,17.48,6.85,-1.32,2.78,2.93,30
1.76,-3.27,20.92,0.93,-4.44,2.25,5.28,17.84,6.46,-0.68,1.81,6.4,30
2.1,-2.2,21.98,3.08,-5.22,2.64,5.35,17.45,7.01,-2.25,-0.29,-0.88,30
3.9,8.37,23.22,43.46,-37.6,210.55,6.08,17.55,6.59,-9.62,-2.78,7.18,31
-0.06,4.17,16.43,25.88,18.99,43.7,6.36,17.26,5.64,-2.44,3.81,2.83,31
0.99,5.2,18.8,15.97,-7.32,13.09,6.52,17.62,5.68,-1.9,3.17,0.05,31
2.46,2.35,21.39,-2.44,-4.35,0.54,6.33,17.46,6.2,-1.37,-0.15,0.1,31
0.22,5.26,18.77,-24.46,2.49,-67.14,6.14,17.03,5.91,-1.51,2.93,-5.37,31
3.44,1.11,21.9,-59.33,18.9,-130.47,6.06,17.58,5.93,-1.95,0.24,1.32,31
2.09,-3.48,21.46,-27.93,11.18,-54.54,6.22,17.42,6.15,-1.95,-0.05,0.29,31
0.35,-5.18,21.14,-6.88,-11.04,-12.84,6.13,17.34,6.24,-1.56,0.54,0.34,31
0.96,-4.63,21.27,-4.88,-2.69,-7.62,5.88,17.37,5.96,-1.42,-0.34,0.29,31
0.65,-2.85,21.31,-2.15,1.46,1.32,6.11,17.52,6.04,-1.37,0.44,0.93,31
0.69,-3.28,21.08,0.24,-4.49,1.42,6.06,17.21,6.13,-1.17,0.34,0.59,31
1.1,-3.83,21.98,2.25,0.78,1.12,5.95,17.44,5.99,-0.73,1.03,0.63,31
0.43,-3.24,20.77,1.12,-3.12,1.42,6.32,17.6,6.31,-0.15,0.24,1.03,31
1.05,-3.48,21.38,0.73,-4.49,-1.76,6.35,17.36,6.25,-1.03,0.0,0.93,31
0.89,-3.25,21.06,-0.24,-3.03,1.56,6.1,17.32,6.18,-1.12,1.56,-0.15,31
0.96,-3.23,21.1,1.17,-2.54,2.05,6.17,17.28,6.13,-1.42,1.51,0.49,31
1.01,-3.5,20.69,-1.32,0.63,-1.71,6.17,17.18,6.17,-0.73,0.1,1.22,31
1.16,-3.21,21.17,1.03,-1.07,0.29,6.24,17.09,6.27,0.1,-0.59,0.73,31
1.18,-3.43,21.24,1.17,-1.07,0.24,6.29,17.45,6.11,0.24,-0.24,1.03,31
1.04,-3.24,20.87,0.49,-0.68,0.63,6.29,17.32,6.25,-0.78,0.59,0.1,31
3.89,-0.31,21.34,9.57,1.86,173.44,1.53,17.91,-1.95,-1.17,9.47,-4.05,32
-1.1,2.81,17.63,49.22,-8.45,72.95,2.1,18.97,-1.51,-0.29,2.98,6.93,32
2.09,4.71,19.77,10.99,-10.01,18.7,3.04,20.52,0.26,-4.3,-10.3,1.51,32
2.71,4.25,20.91,0.68,-8.79,-10.3,2.62,18.96,1.9,-23.39,-41.7,-10.4,32
2.79,3.03,22.3,-0.0,-2.05,-22.95,1.49,17.17,-0.42,-59.33,17.24,14.55,32
1.81,6.7,20.77,-43.16,44.34,-119.78,5.28,16.25,7.99,-21.39,-20.21,8.45,32
0.35,-2.17,19.95,-35.55,13.67,-116.99,6.13,18.33,9.6,-3.81,-1.12,7.81,32
0.49,-6.74,21.28,-8.69,-12.3,-29.0,4.7,17.51,7.16,1.17,1.61,3.08,32
0.58,-4.9,21.75,-2.64,-11.23,11.91,4.84,17.94,6.09,0.59,0.44,3.71,32
0.36,-4.13,20.8,2.34,-4.83,6.98,4.77,17.53,6.68,-1.12,0.15,0.59,32
0.69,-3.42,21.67,3.91,-3.08,0.59,4.84,17.16,6.93,-0.68,1.22,1.56,32
0.5,-3.77,20.98,0.44,-0.59,-0.88,5.29,17.51,6.92,-0.0,0.44,0.93,32
0.85,-3.7,21.32,3.37,-6.35,3.13,5.13,17.7,6.74,-0.49,1.32,1.95,32
0.94,-3.5,21.05,-0.29,-2.34,3.13,5.09,16.97,6.96,-1.9,0.68,0.0,32
1.17,-3.44,21.34,-0.15,-2.29,1.51,5.15,17.44,7.01,-0.59,1.37,0.83,32
0.86,-3.91,21.05,0.73,-1.66,0.98,5.25,17.57,6.92,-0.49,0.44,0.83,32
0.97,-3.62,21.08,0.98,-1.07,1.37,4.99,17.56,6.85,-0.93,0.1,0.0,32
1.18,-3.6,21.26,0.49,-1.22,0.98,5.02,17.39,6.93,-0.34,0.39,1.32,32
1.07,-3.91,21.07,0.63,-0.63,0.63,5.28,17.38,6.87,-0.0,0.34,0.63,32
1.14,-3.96,21.1,1.22,-2.0,0.59,5.25,17.44,6.76,-0.24,1.17,0.93,32
0.15,1.81,20.98,35.16,-1.03,80.96,3.06,18.84,0.28,4.88,-11.33,-3.12,33
1.15,2.22,20.78,21.68,6.98,34.91,3.4,18.98,1.12,6.45,-4.44,13.18,33
0.63,1.93,20.63,7.37,-2.54,5.81,3.4,18.33,0.29,-5.81,5.81,1.61,33
1.36,-1.26,22.12,-1.71,-7.47,0.63,3.02,18.99,-0.2,-17.09,17.97,10.6,33
1.04,0.06,20.88,-1.47,-4.1,1.51,4.62,19.31,-0.14,-50.68,18.31,22.95,33
0.63,3.26,20.63,-9.47,-8.25,-36.04,7.99,14.54,5.83,-63.67,-43.85,-9.42,33
2.57,2.33,20.86,-42.48,14.31,-112.84,5.53,16.26,8.09,-25.73,-6.01,-15.23,33
3.64,-7.24,19.5,-57.37,8.35,-102.25,5.05,16.2,8.74,-3.08,7.96,4.39,33
2.1,-7.16,21.07,-14.4,2.05,-25.63,6.05,17.1,7.4,1.37,5.47,3.81,33
0.62,-5.81,19.41,2.39,-12.21,7.42,5.79,17.49,6.46,-0.39,1.22,0.49,33
1.69,-3.99,21.28,2.0,-4.64,6.84,5.39,16.77,7.46,-3.17,1.9,-1.51,33
1.44,-3.18,21.28,0.54,-0.29,1.51,5.44,17.0,7.75,-0.39,1.32,1.22,33
1.19,-4.37,20.44,-1.22,0.2,1.42,5.58,17.21,6.99,-0.34,2.05,0.68,33
1.33,-4.29,20.78,0.88,-2.44,2.29,5.77,17.62,7.19,-0.68,-0.2,-0.39,33
1.35,-3.71,21.03,0.68,-1.37,1.95,5.38,16.93,7.28,-0.49,0.2,-0.1,33
1.6,-3.87,21.28,0.34,0.29,-0.29,5.52,17.29,7.25,1.07,1.03,1.12,33
1.49,-4.34,20.89,1.37,-1.17,0.15,5.64,17.15,7.13,0.54,1.17,1.66,33
1.48,-4.25,20.98,1.07,-2.54,0.2,5.9,17.54,7.12,-0.24,0.44,-0.1,33
1.59,-3.94,21.12,2.25,-2.29,2.93,5.46,16.56,7.31,-0.39,0.93,-1.17,33
2.11,-4.16,21.32,-3.03,-7.81,-5.71,5.6,16.98,7.24,-0.39,0.98,1.9,33
10.54,-10.58,21.61,56.54,19.43,118.85,3.43,18.87,6.54,1.12,0.29,2.49,34
2.02,-1.05,19.62,25.49,-5.66,117.33,3.32,18.23,6.77,-0.98,0.0,1.17,34
2.26,2.3,19.66,22.75,-7.62,33.94,2.99,18.13,6.55,-0.1,-0.1,0.83,34
3.26,3.33,20.57,15.58,0.1,-3.17,3.01,18.26,6.47,-1.17,0.63,0.54,34
2.08,4.49,20.59,-6.74,1.95,-65.33,2.97,18.22,6.75,-1.27,0.44,0.2,34
2.97,0.61,19.52,-49.41,22.07,-136.28,3.11,18.11,6.85,-1.12,0.54,0.88,34
3.17,-2.53,22.41,-20.95,-5.81,-79.35,3.29,18.46,6.86,0.24,-0.44,1.07,34
3.41,-3.87,21.67,-16.02,8.11,-62.35,3.03,18.2,6.52,-0.29,0.29,0.2,34
1.48,-4.01,20.74,-13.57,-14.01,-4.39,3.11,17.93,6.83,-1.12,0.15,-0.39,34
1.76,-3.57,20.67,-11.04,-10.3,0.88,3.24,18.35,6.87,-0.73,0.39,0.29,34
2.44,-2.15,21.96,-2.93,-11.52,6.98,3.06,18.13,6.61,-0.63,0.15,0.54,34
2.37,-2.45,20.96,-0.49,-4.0,6.59,3.1,18.05,6.7,-0.68,0.15,0.59,34
2.51,-3.13,20.88,1.9,-3.47,1.66,3.03,18.24,6.81,0.2,0.54,0.98,34
2.73,-2.84,20.94,1.03,-4.88,0.49,3.08,18.22,6.56,-0.2,0.15,0.98,34
2.97,-2.36,21.23,2.78,-3.42,1.86,3.29,18.38,6.62,-0.63,0.24,0.68,34
3.11,-2.16,21.17,0.05,-2.25,1.37,3.12,17.92,6.66,-0.2,0.34,0.73,34
3.12,-2.73,21.13,-0.1,-2.54,1.27,3.26,18.28,6.56,-0.39,0.34,0.39,34
2.75,-2.39,20.7,-0.2,-1.66,2.59,3.21,18.14,6.63,-0.93,0.1,0.59,34
2.94,-2.64,20.94,0.29,-2.88,2.0,3.32,18.32,6.71,-0.54,0.2,0.29,34
3.0,-2.72,20.95,0.15,-1.46,1.42,3.29,18.2,6.68,-0.68,0.1,0.44,34
3.08,-2.28,20.36,3.61,-2.0,0.63,3.44,17.93,6.31,-0.29,-0.83,2.1,35
3.68,-2.49,20.71,0.1,-3.61,-0.73,4.03,18.38,7.13,-0.39,-0.29,0.73,35
4.47,-3.14,21.33,1.07,-0.44,0.49,3.06,17.29,6.63,-0.63,0.98,-1.81,35
3.07,-3.14,19.92,0.34,1.17,0.78,3.47,18.44,6.56,-1.47,0.98,0.59,35
3.66,-2.58,20.98,-0.59,-1.71,1.66,3.3,17.51,6.74,-1.27,-0.34,-0.88,35
3.72,-3.34,20.3,-1.27,-1.46,-1.07,3.54,18.18,7.1,1.61,-0.63,0.05,35
3.92,-3.3,20.87,2.69,0.68,-0.44,3.16,18.13,6.41,3.32,-1.71,1.81,35
3.18,-2.57,20.56,1.86,3.17,-1.42,4.0,18.59,6.42,1.17,-0.54,0.34,35
3.64,-2.73,20.73,-2.69,2.44,-2.83,3.5,18.04,6.02,-2.2,1.51,-1.42,35
3.36,-2.94,20.69,-1.86,-0.54,0.39,4.42,21.05,7.67,8.94,6.15,-6.69,35
4.69,-2.95,23.06,10.35,3.76,23.97,2.67,16.11,7.61,0.68,7.13,-19.92,35
2.62,-4.75,19.08,5.91,12.11,22.95,1.99,18.41,5.5,55.96,42.63,6.59,35
6.62,-9.25,20.41,47.46,-3.37,124.27,3.74,23.17,7.68,30.42,31.88,-35.01,35
1.69,5.53,21.84,45.46,-6.93,144.78,-0.82,17.96,-0.53,-8.55,30.27,-5.62,35
1.44,3.67,19.29,9.28,12.7,54.59,-1.77,17.17,0.58,-9.52,1.51,-1.9,35
0.64,1.55,19.04,1.12,-2.78,9.42,-0.5,20.49,3.0,0.88,-7.62,6.45,35
1.88,-1.28,21.2,-0.73,-8.84,-2.44,-0.56,20.0,2.58,-0.98,0.88,8.54,35
1.93,-0.25,20.87,-4.74,-9.18,-5.96,-1.0,21.18,2.17,-11.13,-1.17,2.1,35
1.66,3.6,20.99,-6.35,-4.69,-34.42,-1.05,20.08,-0.28,-25.34,-13.33,-2.25,35
4.01,1.92,21.16,-18.99,14.79,-141.31,4.17,18.64,6.44,-11.47,-62.16,-16.21,35
4.81,-1.91,20.67,17.04,-16.26,-10.79,5.36,18.97,5.11,13.72,-15.23,19.34,36
5.76,-1.04,19.44,-0.73,-3.08,-2.25,6.24,17.51,4.99,-0.24,-6.1,-0.44,36
5.84,-3.98,19.89,-0.2,-5.42,-7.32,5.78,17.45,7.24,-0.63,-5.52,2.88,36
6.49,-1.89,20.42,2.49,-3.47,1.07,6.41,18.16,5.73,0.63,1.56,1.71,36
6.88,-2.18,20.87,1.32,0.24,1.27,6.52,18.41,5.87,0.39,3.03,-2.44,36
5.82,-1.69,19.87,1.27,-2.39,8.25,5.88,17.6,5.15,-0.98,8.84,3.47,36
6.28,-1.33,20.42,-3.22,-6.84,6.15,5.88,17.91,5.05,-4.54,7.23,4.54,36
6.43,-1.83,19.56,-5.52,-3.81,3.76,6.26,17.2,5.91,-6.98,4.54,3.13,36
5.89,-2.92,19.07,-4.15,-9.47,0.78,5.62,16.51,6.17,-5.37,1.95,9.47,36
6.89,-2.62,19.56,-2.73,-10.3,2.59,6.23,17.19,6.21,-2.93,2.2,9.91,36
7.2,-3.22,19.52,2.05,0.24,-1.27,6.84,16.87,7.0,1.42,-1.46,-0.15,36
7.0,-3.14,20.98,3.56,27.34,2.64,6.1,17.77,6.52,7.47,-3.61,-11.43,36
3.97,-1.94,20.59,-9.28,39.7,-12.26,4.41,17.1,4.42,9.03,-6.25,-11.82,36
3.63,-0.56,21.27,-0.63,18.46,-6.3,5.4,18.87,3.76,6.25,-3.91,-3.17,36
2.57,-1.6,20.62,1.51,4.98,-5.71,5.34,17.61,3.92,1.03,-4.1,-4.49,36
3.66,-2.57,20.8,4.25,-5.03,-5.27,6.48,17.86,4.86,0.78,-2.83,3.32,36
3.27,-1.37,21.28,1.46,0.54,2.2,5.99,18.35,4.04,-0.29,1.76,-3.08,36
2.28,-1.54,20.76,-1.66,1.22,0.39,4.93,17.98,4.19,-2.49,1.27,-3.56,36
2.4,-2.0,20.49,0.34,-2.64,0.1,4.85,17.76,4.39,-1.22,-0.39,0.68,36
2.96,-2.3,20.74,2.1,-3.27,-0.68,5.3,17.97,4.73,0.44,-0.68,2.29,36
1.91,-5.91,16.96,20.17,-26.32,192.92,-0.34,17.47,7.1,43.31,73.97,43.07,37
1.43,-1.52,19.47,31.59,-9.67,59.57,1.6,18.56,4.27,26.76,16.46,-5.22,37
2.4,0.53,20.95,23.88,-8.15,23.88,0.71,19.15,2.41,16.55,0.0,-4.15,37
2.11,0.41,20.48,12.3,-4.15,-1.07,1.52,18.97,3.28,8.06,-6.59,0.83,37
2.99,-1.93,21.76,0.54,-4.64,-6.88,1.93,19.59,4.06,0.88,-3.12,2.29,37
1.95,-1.25,20.8,1.37,1.22,-4.88,1.27,18.41,3.59,9.62,-4.1,6.49,37
1.38,3.5,20.41,10.84,-4.15,-46.87,1.02,18.54,0.46,5.62,-47.75,3.27,37
3.83,4.52,21.31,-29.2,4.49,-106.05,6.98,22.62,5.22,-52.44,-21.92,27.29,37
5.77,2.35,22.79,5.03,15.58,-180.18,1.87,22.17,-0.79,-5.32,-63.82,-38.53,37
2.39,-4.75,18.38,-34.77,-11.04,-39.99,5.05,15.67,9.95,-41.89,-7.52,2.88,37
2.72,-5.93,20.57,-8.06,1.42,15.72,2.8,18.28,10.94,-5.18,12.26,21.14,37
2.15,-3.01,20.66,3.47,-4.64,10.84,3.75,18.21,7.99,0.49,10.64,6.35,37
1.82,-1.12,21.11,5.13,-3.71,7.42,3.24,18.49,6.29,3.03,5.66,5.62,37
2.29,-2.47,20.82,0.73,-2.88,-2.64,3.6,17.8,7.35,-0.44,-3.12,1.46,37
2.73,-3.38,21.26,2.49,-1.95,-0.98,3.71,17.87,8.05,1.76,-2.29,1.42,37
2.59,-2.85,20.93,2.34,-2.05,1.42,3.67,17.85,7.49,1.22,0.83,2.25,37
2.58,-2.6,20.97,2.88,-1.12,2.83,3.66,17.88,7.23,1.81,1.66,1.66,37
2.6,-2.46,21.14,1.07,0.98,1.76,3.7,18.01,6.79,2.29,1.27,4.25,37
1.95,-2.03,20.31,11.96,3.96,-4.05,3.74,17.78,6.71,11.08,-7.71,6.98,37
2.46,-1.55,21.41,1.9,-8.54,4.64,4.67,18.43,5.56,0.63,5.13,20.75,37
4.36,-5.72,20.86,6.2,-3.17,-1.81,5.73,16.45,8.2,0.39,-1.95,-4.69,38
3.44,-4.05,21.13,-1.51,-1.27,3.03,6.1,16.63,8.76,-0.98,-1.27,2.25,38
3.43,-4.75,19.72,-18.12,17.14,-8.11,5.6,15.95,9.03,-1.61,1.27,-3.52,38
3.44,-5.86,20.83,-2.88,-1.07,-5.66,5.43,16.17,9.09,0.59,-2.25,-0.54,38
3.02,-6.22,19.41,1.46,-1.42,0.34,5.87,16.26,9.0,3.52,-4.39,1.42,38
3.18,-5.67,19.87,2.98,-3.32,-2.83,6.46,16.71,8.54,5.18,-3.17,2.59,38
3.5,-4.99,20.03,6.05,-0.59,0.15,6.07,16.54,7.94,4.98,-0.59,-2.64,38
3.68,-4.72,21.05,2.88,1.76,1.51,7.69,16.38,8.66,9.08,-0.59,4.64,38
3.58,-5.4,20.26,6.64,-1.66,3.47,6.38,16.28,8.16,13.53,20.02,-0.93,38
4.47,-5.8,21.46,12.35,3.27,16.26,6.94,16.84,8.56,32.81,18.6,-3.76,38
3.2,-4.76,20.87,19.78,3.71,31.15,9.92,26.77,5.66,172.46,-45.41,37.6,38
6.19,-11.09,19.53,45.56,13.72,79.49,3.56,18.12,-6.0,33.3,9.03,-10.69,38
2.46,5.94,20.55,49.95,-42.29,144.53,4.61,16.4,-5.99,-4.1,7.37,-11.13,38
3.95,5.23,19.26,27.15,2.64,28.71,4.57,17.56,-3.98,-7.08,-1.61,-2.15,38
3.45,4.04,19.28,7.62,3.13,3.22,5.68,18.79,-2.24,-5.18,-2.88,2.59,38
2.93,1.89,19.62,-1.81,-2.88,-2.44,5.59,17.87,-2.67,-2.83,2.39,6.3,38
3.77,1.18,20.76,-3.37,-1.12,0.44,4.76,17.35,-3.94,-15.58,3.22,4.83,38
3.35,2.7,20.2,-10.64,3.76,-12.55,2.35,16.42,-6.34,-97.66,23.19,-3.66,38
3.37,7.71,20.94,-22.56,-3.27,-56.74,9.03,19.52,3.72,-35.6,-104.88,-28.86,38
3.99,0.69,20.75,-18.02,16.21,-163.82,6.28,15.76,5.82,-37.7,-14.65,-6.74,38
8.94,-5.11,18.68,99.66,54.79,260.3,-6.44,13.76,-1.12,-1.81,37.99,0.0,39
-6.85,4.3,15.64,9.37,21.24,79.3,-4.5,18.53,-1.43,8.89,9.77,-0.93,39
-1.76,9.73,19.36,46.44,-41.85,38.72,-2.05,21.52,0.37,11.13,2.83,8.4,39
0.09,7.35,20.9,15.28,-15.48,7.67,-2.71,19.98,0.42,-2.69,-2.39,2.83,39
-0.2,6.59,20.32,-2.93,0.24,-1.86,-2.8,20.11,1.63,-2.69,-7.18,5.42,39
-0.93,4.89,20.08,-8.4,-4.15,-6.49,-3.86,19.22,0.82,-13.82,-3.08,4.88,39
-1.52,6.12,20.42,-7.91,-8.3,-18.8,-2.26,16.2,-1.52,-33.06,-37.45,66.89,39
-1.99,8.72,16.52,-74.41,-3.47,-116.65,4.64,16.6,5.03,-12.7,-73.1,15.04,39
1.47,1.73,21.19,-17.09,-24.61,-116.7,4.38,16.17,6.52,-36.57,-22.75,-4.2,39
0.82,0.22,22.89,-38.23,-8.59,-59.62,2.73,17.17,6.95,-18.51,-3.76,14.11,39
-0.21,-3.65,20.87,-30.96,-10.64,-20.95,3.65,17.49,7.4,-6.35,0.83,9.23,39
0.1,-4.77,20.84,-8.59,-5.47,-1.61,4.01,17.45,6.86,-0.24,3.76,1.46,39
0.27,-4.36,21.35,-1.22,-2.49,3.47,4.09,17.85,5.92,0.88,3.42,2.83,39
0.21,-3.61,21.3,1.71,-2.69,3.96,4.04,18.01,6.3,0.78,1.22,2.15,39
0.26,-3.3,21.25,2.0,-3.17,2.64,3.82,18.42,4.63,6.25,-1.56,-1.51,39
0.55,-3.29,21.57,3.56,-2.59,4.93,3.94,17.48,6.64,-4.35,4.2,-7.91,39
0.63,-3.43,22.07,6.88,6.45,-3.96,2.98,17.12,5.38,-6.05,2.64,1.9,39
-1.27,-2.78,19.66,1.07,-2.0,0.98,4.72,17.89,7.13,-0.78,-2.29,10.84,39
0.51,-3.46,20.97,0.24,-11.87,-1.86,4.67,19.33,4.2,-8.74,6.35,1.27,39
0.62,-1.08,22.35,6.35,-5.81,2.2,5.28,18.78,6.63,-19.43,2.93,2.59,39
3.21,-3.07,19.96,-1.42,-3.12,5.62,6.02,18.12,6.6,-7.62,7.52,4.59,40
2.6,-3.57,19.95,-9.86,2.44,1.46,5.44,15.3,7.82,-8.45,0.98,0.05,40
3.32,-4.95,19.62,-8.2,-9.67,2.73,6.41,16.08,7.89,9.33,-4.83,8.84,40
4.22,-6.07,20.57,4.2,-9.23,-2.98,5.96,15.92,8.86,0.68,-2.25,1.61,40
4.34,-5.01,20.08,5.96,2.69,-1.95,6.11,15.5,8.25,11.77,-8.98,-4.05,40
5.04,-4.43,21.52,15.58,8.4,-5.22,7.57,18.18,7.56,9.13,1.9,-4.83,40
3.4,-2.71,21.05,5.66,16.06,5.18,6.2,16.91,6.58,7.81,5.42,-8.15,40
2.86,-3.53,20.89,6.2,11.57,11.13,5.74,16.63,6.69,9.37,14.7,-5.08,40
1.14,-2.34,20.51,7.23,8.35,20.61,4.67,18.38,5.4,7.37,8.74,-0.2,40
1.29,-0.89,21.17,6.3,6.79,2.0,5.6,18.27,5.24,4.1,-2.98,-4.88,40
1.27,-2.16,21.39,1.86,4.49,-2.39,5.32,17.56,6.01,1.86,-0.93,-2.64,40
1.5,-2.54,22.05,-1.22,4.15,0.34,5.11,18.1,5.73,1.22,5.66,-1.12,40
0.45,-1.4,21.14,3.27,1.32,8.94,4.96,17.8,5.23,1.95,-19.82,-5.03,40
0.61,-1.25,21.95,0.1,-1.46,3.47,4.79,18.04,5.24,-4.54,7.96,-1.86,40
0.3,-1.87,21.09,-2.15,-0.1,2.0,4.47,17.71,5.35,-0.78,8.54,1.03,40
0.33,-2.3,20.97,-2.05,-1.86,0.15,4.54,17.46,5.67,-2.73,2.15,1.03,40
0.53,-2.76,20.95,-1.95,-5.86,1.42,4.87,18.14,5.69,-0.34,-0.73,1.9,40
1.26,-2.66,21.32,-0.68,-2.44,-0.63,4.87,17.86,5.96,-0.93,0.24,0.1,40
0.78,-2.77,20.94,0.88,-1.27,1.17,4.76,17.99,5.5,-0.24,-0.05,0.63,40
0.8,-2.63,21.06,0.63,-2.73,-0.15,4.77,17.77,5.87,-1.22,0.34,0.68,40
10.56,8.43,29.67,81.74,-74.27,323.73,15.77,31.69,17.32,-10.6,104.74,-99.8,41
-2.23,4.18,16.19,56.59,-27.69,52.05,-3.43,15.32,1.38,44.92,4.59,15.67,41
1.86,4.32,20.91,37.99,-35.3,9.72,-1.88,19.8,-0.3,35.11,-10.45,11.82,41
2.7,3.3,21.96,4.25,-10.45,0.1,-0.28,21.55,1.44,7.96,-7.76,2.54,41
1.26,2.86,20.57,-8.06,1.46,-8.69,-1.42,20.22,1.43,-10.16,4.3,-2.29,41
-0.04,5.08,19.67,-15.23,-2.39,-48.83,-1.98,20.29,1.49,-8.59,2.29,4.25,41
1.35,4.51,22.25,-27.44,27.73,-90.72,-1.29,19.17,2.15,-8.79,-25.63,32.08,41
0.18,3.58,23.18,0.93,15.97,-106.79,0.94,21.11,1.72,-0.44,-64.6,-9.81,41
-2.7,2.39,18.77,-16.21,-4.1,-106.54,0.53,18.91,2.17,-18.55,-56.2,10.94,41
1.7,-5.64,24.72,5.76,-45.51,-5.86,3.31,21.01,7.9,-12.35,-6.49,21.73,41
0.21,-4.89,20.97,-4.83,2.49,13.92,3.68,18.26,7.19,-3.91,12.3,-0.54,41
-1.09,-3.66,20.3,4.88,-2.64,11.08,2.95,17.89,5.53,2.83,6.59,9.38,41
-0.74,-3.52,21.06,3.76,-1.12,3.03,3.26,18.35,5.3,1.95,1.46,1.86,41
-0.84,-3.7,20.71,1.86,0.49,1.42,3.14,18.23,5.36,0.73,-0.2,0.39,41
-0.57,-3.72,21.03,3.12,-4.88,2.29,3.1,18.11,5.26,0.63,1.07,2.15,41
-0.63,-2.88,21.34,2.44,-3.12,3.52,3.58,18.76,4.92,0.24,1.81,2.05,41
0.19,-2.98,21.24,0.39,-4.39,0.68,4.04,18.35,5.31,-1.66,-0.24,2.78,41
0.35,-3.54,21.88,-0.34,-1.86,0.2,4.13,18.58,5.59,-0.88,0.88,-0.44,41
-0.58,-3.42,20.32,0.54,-0.34,2.69,3.58,17.74,5.34,-1.76,1.51,-0.49,41
-0.08,-3.64,21.34,0.73,-3.61,1.86,3.73,18.41,5.83,-1.22,0.73,1.46,41
2.17,-0.93,21.88,-1.51,7.81,-0.68,4.26,16.94,6.06,-2.83,-1.95,-1.71,42
0.88,-2.87,19.58,-2.2,2.64,-2.93,5.08,17.65,5.66,1.46,-3.22,-0.1,42
1.55,-2.52,20.7,0.59,1.46,-1.66,5.71,18.06,5.93,3.66,-2.44,1.12,42
2.13,-2.44,21.69,2.69,4.44,-1.66,5.1,17.62,4.73,-0.44,2.98,-5.18,42
1.04,-2.05,20.95,-4.59,8.64,1.32,5.01,17.06,5.62,-0.0,1.03,0.78,42
0.58,-2.71,20.19,0.1,0.93,1.46,5.47,18.9,5.23,2.0,-1.61,1.07,42
1.56,-1.97,22.7,4.44,-1.76,-0.63,5.59,18.62,5.02,2.73,-2.83,-3.81,42
0.87,-1.92,21.72,2.49,9.42,-3.22,3.99,17.27,4.33,-1.95,-2.2,-3.08,42
-0.95,-1.89,19.63,-4.1,5.62,-4.35,5.6,18.35,5.56,-1.27,0.2,1.95,42
0.83,-3.05,21.53,-4.93,-4.05,-5.27,8.84,27.12,4.42,125.88,118.41,-111.08,42
17.57,-21.07,26.77,35.74,71.39,235.16,-7.87,8.07,-1.16,13.38,12.06,5.91,42
-8.41,6.31,11.41,27.2,-2.34,124.12,-2.24,20.19,-2.64,23.93,-12.16,9.47,42
0.05,7.35,17.93,14.7,-17.53,22.75,-3.07,21.12,-3.79,8.94,-31.4,-16.46,42
1.25,10.49,20.55,11.57,-3.52,-27.44,-1.06,20.89,-0.91,-61.38,2.93,33.4,42
0.3,14.61,19.73,-57.28,3.27,-159.47,1.35,13.84,3.69,-29.39,-65.09,31.88,42
-1.05,-4.02,15.6,-58.79,5.37,-153.42,4.98,18.43,10.41,-27.3,-19.34,22.36,42
1.89,-11.08,22.76,-34.96,-23.97,-69.73,4.61,18.54,8.79,-6.49,-1.12,2.69,42
0.68,-7.55,21.82,-5.47,-6.93,-11.04,3.12,17.62,5.89,2.0,5.22,3.22,42
-0.56,-4.45,20.86,1.03,-2.69,2.25,3.31,18.67,5.39,3.81,3.27,2.83,42
-0.93,-2.94,21.37,4.05,-1.61,6.35,3.5,18.66,5.98,2.78,1.46,-3.12,42
-0.99,-3.33,21.59,-0.29,-2.78,0.44,2.21,18.15,6.53,0.05,0.73,1.42,43
-1.26,-3.53,21.38,1.61,-1.32,0.88,1.83,18.39,5.83,3.12,0.63,1.9,43
-1.38,-3.01,21.08,4.3,-2.78,3.08,2.25,19.09,5.54,1.12,-0.1,2.59,43
-0.78,-2.36,21.58,3.12,-3.71,0.63,2.18,18.66,5.59,-1.56,0.29,0.05,43
-0.64,-2.38,21.74,0.93,-2.25,0.93,2.26,18.78,5.87,-1.07,0.1,1.56,43
-0.63,-2.86,21.23,0.05,-2.78,0.63,2.28,18.79,5.49,-1.12,-0.44,0.29,43
-0.56,-2.49,21.33,0.54,-2.64,1.12,2.39,18.61,5.97,-2.25,-0.98,0.15,43
-0.63,-2.48,21.66,-0.29,-1.51,0.39,2.66,19.57,6.25,-4.39,2.2,0.24,43
-0.1,-2.85,21.97,-2.25,-1.61,1.17,1.82,17.6,6.26,-3.56,1.9,-1.56,43
-0.8,-3.29,20.38,-1.76,1.9,0.93,1.49,19.16,6.11,-0.24,-2.15,2.88,43
-1.52,-2.89,20.96,0.34,-3.32,0.39,2.57,18.16,6.94,-0.73,-1.12,3.42,43
-0.4,-3.39,20.68,2.73,-3.03,-1.66,3.33,18.87,6.68,-2.0,5.03,2.64,43
0.52,-3.59,22.05,-0.59,-3.96,3.42,1.66,18.01,6.22,-1.47,3.96,-2.05,43
-0.93,-3.11,21.2,-1.17,-0.15,4.3,2.63,17.6,6.85,4.44,-1.17,5.76,43
-1.08,-3.75,19.68,3.61,-2.64,0.63,2.86,20.28,5.82,1.9,2.34,3.66,43
0.46,-2.52,22.52,3.86,-4.83,2.59,1.42,17.44,5.49,-1.95,0.24,-2.93,43
-1.3,-2.43,20.4,-1.9,4.39,0.63,2.77,19.46,6.72,-1.22,-1.81,7.81,43
-0.08,-3.32,20.82,1.81,-7.52,-0.93,2.89,18.3,6.52,-3.03,0.29,-5.27,43
0.27,-2.72,22.46,-0.78,1.46,-0.68,2.53,18.83,6.45,-2.3,0.98,2.0,43
-0.49,-3.36,20.56,-0.1,-1.37,1.56,2.56,18.48,5.85,-4.15,1.61,-1.32,43
9.48,7.14,25.64,58.06,47.95,403.91,-5.46,12.05,2.71,2.88,44.04,3.91,44
-2.25,11.02,16.62,42.43,-53.66,84.72,-2.68,17.01,-2.69,34.62,-24.95,11.72,44
2.14,7.45,20.29,21.92,-25.49,5.27,-0.67,20.59,0.57,8.69,-18.8,0.93,44
2.16,4.58,22.04,-0.15,-7.71,-7.96,-1.92,20.09,1.62,-4.3,-10.45,-4.35,44
0.09,6.38,20.23,-7.57,8.79,-53.08,-3.21,17.23,0.73,-47.61,2.93,21.09,44
-0.35,5.42,18.65,-51.66,14.99,-162.94,3.03,19.63,2.3,-15.43,-118.55,-0.1,44
1.16,-3.23,22.12,-38.87,8.89,-133.25,4.13,15.54,8.87,-41.94,-26.12,6.84,44
0.26,-6.88,22.36,-17.58,-13.53,-23.63,3.3,16.39,9.45,-17.58,-2.88,12.45,44
-0.27,-5.85,21.13,-9.91,-12.65,3.08,2.95,18.15,7.82,-0.54,4.25,9.57,44
-0.1,-4.75,21.47,-0.59,-5.13,3.47,2.99,18.53,6.81,-0.44,5.96,3.76,44
-0.45,-4.53,21.12,-2.0,-4.0,4.83,2.6,17.35,6.85,-0.98,3.71,1.07,44
-0.4,-4.74,20.77,1.61,-7.42,2.15,3.34,18.22,7.4,-0.05,0.83,5.86,44
0.19,-4.44,21.59,1.03,-5.86,0.63,3.25,17.85,7.22,-0.73,0.54,0.68,44
0.09,-4.69,20.54,0.98,-2.59,0.98,3.46,17.99,7.25,-0.05,0.59,4.39,44
0.36,-4.47,21.29,1.86,-3.17,1.66,3.53,17.81,6.98,0.1,0.78,2.2,44
0.27,-4.2,21.11,1.71,-2.44,1.22,3.53,17.94,6.75,-0.49,0.0,1.66,44
0.46,-4.27,21.12,1.17,-2.29,1.12,3.88,18.22,7.13,-0.78,0.15,2.1,44
0.61,-4.3,21.3,-0.49,-1.37,1.56,3.87,17.99,7.33,-1.42,0.88,0.63,44
0.31,-4.42,21.0,-0.49,-0.44,0.98,3.56,17.86,7.19,-1.37,1.56,0.05,44
0.33,-4.27,20.71,0.78,-0.59,1.42,3.61,17.77,7.11,-0.59,-0.1,1.9,44
5.45,12.67,20.55,94.82,9.72,350.24,-4.3,16.28,-4.4,20.7,-24.41,11.28,45
-0.3,3.61,20.06,17.04,-17.09,52.88,5.3,20.39,-1.16,-55.47,-45.9,86.47,45
-1.39,8.92,19.4,7.32,-16.85,9.62,6.83,19.51,6.86,-35.4,-22.31,-8.15,45
-3.28,16.78,16.39,-27.15,-6.84,-149.37,3.24,17.22,5.82,-10.94,-4.49,-5.08,45
3.33,-5.01,28.08,-9.96,-27.0,-93.65,3.72,18.39,4.49,0.15,3.17,8.35,45
0.18,-5.42,21.73,-23.49,-6.69,-29.49,4.46,19.27,4.07,0.88,2.83,3.91,45
-1.42,-4.04,20.0,-0.83,-4.3,-3.96,4.17,18.86,3.88,-3.81,2.78,-0.83,45
-1.16,-1.89,21.64,1.42,-4.69,2.39,4.25,18.15,4.39,-2.15,-2.73,3.08,45
-1.13,-1.36,21.76,0.68,-1.95,-1.56,4.47,18.49,4.77,-1.27,-1.03,0.78,45
-1.52,-1.95,20.87,-0.15,-0.98,-0.39,4.61,18.57,4.77,-0.83,0.54,1.9,45
-0.96,-2.52,21.48,-4.15,-2.1,-3.47,4.87,18.53,4.84,-0.34,-0.78,1.81,45
-1.08,-2.64,21.09,-1.47,-0.93,-0.39,4.6,18.57,4.56,-0.73,0.0,0.78,45
-0.96,-2.49,21.27,-0.1,-2.49,1.27,4.44,18.27,4.34,-0.88,-0.78,0.78,45
-0.99,-2.3,21.42,-0.98,-2.64,1.27,4.66,18.22,4.75,-0.54,-0.49,2.34,45
-0.9,-2.31,21.33,-0.83,-2.49,0.78,4.47,17.99,4.43,-1.86,1.71,1.03,45
-1.06,-2.62,21.06,-2.3,-1.07,-0.68,4.87,18.18,4.95,-0.15,-0.44,1.17,45
-0.88,-2.53,21.51,-0.2,-2.0,0.78,4.68,18.15,4.45,-0.63,-0.1,1.32,45
-0.72,-2.68,21.29,0.54,-0.88,-0.15,4.74,18.12,4.53,-1.51,-3.12,1.17,45
-0.82,-2.52,21.41,1.22,-2.34,0.88,4.5,18.39,4.27,-3.86,-6.45,0.44,45
-0.8,-2.21,21.25,1.17,-2.93,-0.59,4.71,17.11,4.2,-6.35,-9.13,0.68,45
-7.43,5.09,15.57,42.63,19.09,150.29,-4.72,20.95,-2.16,63.33,63.28,-43.21,46
-2.9,5.54,19.24,22.12,-5.66,40.63,-2.61,17.47,-4.22,-6.3,12.35,-20.41,46
-1.36,6.37,20.02,16.7,-10.01,-0.59,-0.52,18.12,-3.3,21.83,1.66,8.64,46
-1.02,5.71,21.43,1.51,-1.27,-9.86,0.97,20.36,-1.84,1.32,-6.93,-1.46,46
-2.49,6.77,18.9,-20.07,-12.3,-59.91,0.42,19.42,-1.49,-38.04,-8.69,2.2,46
-0.67,6.01,20.57,-60.4,6.45,-130.52,-1.06,19.36,-3.24,-64.36,-50.05,8.2,46
1.15,-6.03,22.74,-3.96,-14.6,-108.06,3.9,17.39,5.18,-24.07,-80.86,34.57,46
1.33,-8.52,20.58,-20.07,-13.77,-38.09,4.62,16.35,8.3,-17.92,-15.72,6.59,46
0.51,-5.6,20.94,-2.49,5.22,10.16,4.04,18.66,7.25,-0.24,7.57,-1.42,46
0.19,-6.19,21.1,-0.68,-1.76,9.28,3.96,18.57,5.44,4.44,7.37,-0.39,46
-0.55,-3.03,21.66,-3.32,2.73,-0.34,3.46,19.04,4.63,0.78,3.42,0.24,46
-0.29,-4.85,21.06,2.44,-0.83,0.78,3.58,18.28,5.33,-0.2,-1.17,-2.2,46
-0.71,-4.62,20.33,1.37,-3.56,-1.95,3.3,17.99,5.76,0.54,-0.98,-0.59,46
-0.48,-3.96,21.21,1.9,-0.1,0.0,3.75,18.85,5.88,1.37,-1.37,2.83,46
-0.61,-4.1,20.92,2.69,2.88,3.96,3.57,18.31,5.3,0.44,0.44,0.83,46
-0.63,-4.21,21.02,0.93,-1.46,0.93,3.65,18.36,5.31,-0.73,0.24,0.78,46
-0.48,-4.15,21.48,-0.15,-0.98,-0.49,3.72,18.54,5.53,-1.12,-0.63,2.59,46
-0.61,-4.03,21.15,0.68,-2.2,2.05,3.73,18.42,5.37,-0.83,1.37,1.37,46
-0.68,-3.95,21.03,0.1,0.73,1.61,3.78,18.48,5.21,-1.07,0.49,0.39,46
-0.72,-4.28,20.92,-0.2,0.24,0.83,3.72,18.01,5.39,-1.47,-0.34,0.83,46
-4.05,8.34,19.42,81.49,-16.02,90.58,-0.07,18.24,-2.15,21.14,-9.08,-3.27,47
-2.16,5.74,17.89,21.92,-7.86,18.36,-0.96,18.88,-2.17,7.03,-13.09,-3.42,47
-1.31,5.74,19.95,14.4,-15.04,8.79,-3.09,21.8,-2.89,-14.94,5.08,-4.3,47
-2.26,8.82,19.63,-5.13,-4.49,-30.96,-1.62,18.34,-2.32,-62.5,2.73,61.43,47
-0.74,7.86,17.4,-103.47,4.59,-172.51,6.34,20.12,5.58,-26.81,-53.03,21.83,47
0.49,-3.66,22.67,-21.73,3.17,-72.02,6.48,19.23,7.43,-12.7,-11.33,20.75,47
0.78,-7.9,23.64,-9.08,-17.63,-25.78,4.62,16.15,5.36,-10.74,7.32,-4.1,47
-1.14,-5.22,19.4,-6.4,-1.95,-1.42,5.63,17.47,5.36,-3.22,2.1,11.33,47
-0.67,-4.26,20.75,0.88,-11.52,2.88,6.1,18.63,5.41,1.61,-3.76,3.96,47
-0.05,-4.44,22.1,2.64,-0.39,-1.86,5.44,16.82,5.35,0.2,3.61,3.66,47
-0.42,-4.79,20.35,2.83,-6.69,6.84,4.82,18.2,4.83,7.76,20.36,14.89,47
-0.94,-2.44,21.4,4.39,-8.15,21.83,6.63,18.3,5.38,-0.1,-1.17,1.17,47
-0.21,-3.43,21.05,0.49,0.83,0.34,6.5,17.48,5.2,-0.24,0.34,-1.22,47
-0.22,-3.88,21.04,-1.71,3.32,1.17,6.24,17.28,5.24,-1.37,-1.9,-0.73,47
-0.39,-4.19,21.07,0.44,2.05,-1.03,6.3,17.61,5.23,-0.73,-3.37,-0.39,47
-0.43,-4.31,21.09,-0.88,3.17,-5.08,6.24,17.33,5.12,-0.24,-2.44,-0.63,47
-0.58,-4.49,21.06,0.1,3.22,-3.27,6.0,17.84,4.86,0.2,-1.51,-0.2,47
-1.2,-4.03,20.93,1.12,1.56,-1.42,5.97,17.62,5.22,-0.44,-0.1,1.51,47
-1.08,-4.49,20.92,0.29,-1.46,0.39,6.37,17.59,5.4,0.34,-1.56,0.83,47
-0.78,-4.6,21.06,2.1,-0.93,0.44,6.21,17.24,4.92,0.05,0.39,-0.44,47
3.04,-3.17,21.3,27.69,-13.57,237.11,8.12,22.67,0.2,36.38,15.23,1.95,48
-0.3,2.86,19.04,42.19,-6.93,78.03,6.01,19.01,-3.74,13.82,-5.76,-15.38,48
1.47,5.64,21.27,22.66,-9.62,26.51,4.98,18.24,-3.36,-1.51,-7.03,-4.54,48
0.22,4.9,19.81,-2.88,14.7,-1.22,1.44,19.18,-4.69,-20.17,-2.93,-6.59,48
-1.52,5.99,19.84,-10.3,-1.81,-21.19,-0.12,16.06,-5.99,-88.67,-33.06,24.66,48
-0.93,10.71,17.99,-43.16,-13.48,-158.25,10.81,19.06,6.59,-48.1,-97.36,-6.74,48
2.79,-4.88,22.78,-24.46,17.77,-130.37,6.66,16.61,9.22,-24.9,-11.87,1.56,48
2.47,-12.18,22.61,-17.77,-7.13,-25.78,4.67,16.4,6.68,-2.2,10.55,1.76,48
-0.72,-6.86,19.98,-3.17,-1.42,9.18,5.09,18.57,5.05,5.71,4.98,7.03,48
-1.13,-3.3,20.98,8.3,-2.34,10.55,5.52,18.37,4.16,1.81,1.22,5.32,48
-0.82,-2.86,21.85,3.17,-5.66,3.47,5.27,17.78,4.54,-2.54,1.27,-0.68,48
-0.71,-3.58,21.19,-1.95,-0.78,0.63,4.94,17.73,5.09,-1.71,0.78,0.39,48
-0.94,-3.91,20.92,-1.81,-1.07,1.42,5.14,17.63,5.26,-1.37,1.56,2.0,48
-0.83,-4.11,20.75,-0.49,-3.12,1.76,5.35,17.95,5.04,-0.63,0.78,1.71,48
-0.49,-3.67,21.34,1.07,-2.98,1.61,5.58,17.93,5.28,-0.1,-0.49,-0.39,48
-0.45,-3.85,21.25,0.83,0.15,0.39,5.63,18.4,5.26,-0.83,0.1,-0.34,48
-0.4,-3.69,21.72,-0.1,0.88,0.49,5.01,17.68,4.86,-2.34,1.32,-2.05,48
-0.99,-3.67,20.83,-1.76,0.68,1.07,5.05,17.64,5.55,-1.81,-0.73,0.98,48
-0.85,-4.22,20.69,-1.37,-1.12,-1.22,5.22,18.01,5.66,1.61,-1.66,1.42,48
-0.52,-4.64,21.29,2.0,0.59,-0.24,5.7,17.94,5.46,2.69,-1.86,2.44,48
0.55,-5.23,21.54,0.88,3.17,-6.1,5.33,17.59,6.96,-2.39,-1.07,-0.29,49
0.28,-4.59,21.11,-0.05,-0.05,-1.37,5.55,17.2,6.7,-3.32,-1.03,1.9,49
0.18,-5.13,20.55,-2.0,-2.29,-3.71,5.42,17.7,6.92,-2.78,-1.12,1.61,49
0.28,-4.92,21.24,-0.34,-2.93,-1.66,5.85,16.63,7.24,0.98,-0.93,2.59,49
0.87,-5.48,20.14,2.73,-3.22,-0.78,6.11,18.13,6.99,2.49,2.05,3.22,49
0.83,-5.58,21.35,4.93,-2.93,1.66,5.38,17.32,6.07,0.24,1.32,-0.44,49
0.08,-4.46,20.81,2.25,0.1,1.61,5.55,17.31,6.54,2.29,-2.29,1.17,49
0.15,-4.78,20.73,3.71,0.34,-0.34,14.0,14.34,14.49,58.59,50.63,-15.48,49
8.78,-18.41,22.62,21.34,10.35,59.38,-4.63,20.5,-0.44,65.58,63.92,-19.19,49
0.61,-1.63,16.28,68.36,3.13,261.82,0.41,19.38,-2.32,14.99,7.62,-9.91,49
1.48,7.53,21.77,37.26,-25.49,61.77,1.58,18.67,-1.99,11.91,-12.84,-15.28,49
2.01,6.76,21.41,23.34,-5.71,9.62,1.54,19.57,-0.7,-0.29,-6.64,3.86,49
1.57,4.21,20.63,-8.89,-5.18,1.27,2.1,19.58,0.67,-9.13,3.76,1.66,49
0.66,3.17,21.29,-7.28,0.63,0.49,1.77,18.47,1.14,2.73,-1.76,8.94,49
0.22,2.11,20.35,-2.83,-11.23,-1.17,2.44,19.5,0.0,0.1,-1.03,5.42,49
1.08,2.03,20.76,-0.63,-6.74,-1.07,2.45,19.5,0.24,-5.27,-4.83,-5.62,49
1.52,2.47,21.22,-0.2,0.78,-1.37,1.92,19.72,0.03,-2.15,0.83,-0.24,49
1.81,2.1,20.68,-2.88,-2.1,0.34,1.78,19.11,-0.15,1.66,-0.98,1.46,49
1.25,2.2,20.58,-2.2,0.78,-5.32,2.75,19.84,0.46,-3.66,-9.86,-3.61,49
1.57,2.98,21.5,-1.56,1.9,-9.37,1.81,18.89,0.21,-7.81,-11.23,-1.56,49
-3.83,10.81,21.32,-7.03,-4.88,260.55,-4.84,15.86,-3.75,30.86,-8.45,-19.82,50
-2.91,4.89,18.33,11.28,16.89,21.48,-0.32,19.08,0.8,12.26,-12.16,-0.73,50
-0.42,5.75,21.34,23.53,-22.8,14.89,-1.21,19.8,-0.0,-0.34,-1.12,2.78,50
0.27,4.58,21.24,5.42,-14.7,13.13,-0.68,19.53,0.37,-1.56,6.54,8.01,50
-0.27,4.53,19.94,0.29,-7.96,6.2,-0.37,19.22,0.99,-10.4,19.48,1.51,50
-0.48,7.29,19.82,-10.3,11.18,-65.33,-0.13,15.94,-3.29,-50.34,-70.31,32.28,50
-0.85,7.2,16.26,-81.88,32.86,-209.03,8.41,23.91,9.72,-27.39,-64.11,24.66,50
1.24,-4.73,26.52,-4.79,-25.63,-92.87,6.95,18.77,7.9,-10.3,-5.22,2.54,50
0.99,-6.56,22.18,-2.59,-5.47,-16.99,4.36,17.31,5.14,-2.15,7.86,3.76,50
-1.22,-4.43,20.0,2.69,-10.89,10.79,5.11,18.15,5.17,0.15,1.76,6.01,50
-0.83,-3.49,20.94,2.44,-6.79,2.98,5.36,17.73,5.61,-2.73,1.9,6.54,50
-0.3,-3.82,20.96,0.15,-9.18,2.25,5.69,18.07,5.63,0.73,1.66,6.74,50
0.5,-3.76,21.65,6.05,-13.62,4.25,5.79,17.79,5.68,-0.2,4.69,1.66,50
0.94,-3.34,21.64,3.37,-4.98,5.66,5.71,17.73,4.99,2.69,2.0,5.62,50
0.45,-3.01,21.1,4.3,-5.57,5.08,5.63,17.55,4.96,1.46,0.88,-0.44,50
0.75,-2.78,21.27,2.73,0.29,2.59,5.99,17.51,5.15,1.12,-2.25,0.44,50
0.71,-3.07,21.24,1.56,1.42,-0.98,6.4,18.15,4.38,-0.15,-5.13,-0.54,50
0.47,-2.06,21.91,1.42,2.39,-3.32,6.42,18.24,4.75,-4.39,-4.25,-2.49,50
0.58,-2.2,21.89,-7.67,13.09,-4.83,6.23,17.6,4.33,-8.25,-2.98,-2.44,50
0.15,-2.71,21.13,-7.13,0.39,-4.3,6.24,18.76,6.08,-12.21,-2.39,-6.74,50
