ACC-X-Ring1,ACC-Y-Ring1,ACC-Z-Ring1,GYRO-X-Ring1,GYRO-Y-Ring1,GYRO-Z-Ring1,ACC-X-Ring2,ACC-Y-Ring2,ACC-Z-Ring2,GYRO-X-Ring2,GYRO-Y-Ring2,GYRO-Z-Ring2,TEST
-11.49,-4.31,18.56,-8.35,39.36,-7.37,0.45,17.44,5.3,-0.2,-1.71,5.32,1
-11.84,-4.27,16.81,8.35,-12.3,1.56,1.56,18.86,6.13,-1.51,-0.1,-6.15,1
-11.86,-3.84,17.98,1.9,-0.1,-1.37,1.67,19.62,6.26,4.1,-2.83,2.93,1
-11.21,-4.22,18.69,7.81,-10.06,1.56,1.27,18.79,5.67,2.39,-2.25,-2.98,1
-9.56,-3.16,20.45,18.99,-39.16,12.35,0.74,18.1,5.47,-0.0,0.78,-6.74,1
-5.88,-1.83,17.31,25.29,-136.08,34.52,1.24,20.34,5.31,8.74,-3.08,2.69,1
2.55,2.81,22.0,13.33,-114.26,33.89,1.28,19.46,5.28,-1.61,-1.81,4.54,1
4.47,0.11,21.0,0.39,-5.81,2.39,1.61,19.78,5.43,-2.15,-1.37,3.22,1
4.82,-0.48,21.04,-4.2,-3.37,-0.44,1.34,18.76,5.5,-2.15,0.54,0.54,1
4.44,-0.85,20.58,-0.98,6.93,0.05,1.49,18.52,5.28,-2.3,0.39,1.27,1
3.42,-0.7,19.94,-1.47,7.08,0.0,1.64,19.05,5.53,-1.17,0.78,-1.9,1
3.79,-0.78,20.87,-2.0,5.86,0.0,1.5,19.23,5.38,0.1,0.1,-0.63,1
3.9,-1.06,21.45,-4.25,6.79,-2.78,1.48,18.83,5.38,-1.03,0.24,-1.66,1
3.16,-0.97,20.68,-0.15,1.22,0.2,1.47,19.14,5.54,-0.05,-0.34,0.24,1
3.65,-0.73,21.35,3.86,-1.66,1.9,1.25,18.91,5.31,-0.78,0.2,-0.34,1
3.04,-1.22,21.16,-5.57,20.07,-5.13,1.19,18.68,5.33,-0.98,0.73,0.54,1
2.66,-1.33,21.44,-0.78,-2.69,-0.1,1.31,19.01,5.72,-0.88,-0.29,-1.07,1
3.32,-0.55,22.99,-5.76,21.83,-4.39,1.31,18.56,5.48,-0.49,-0.39,1.03,1
1.35,-1.63,21.23,2.34,-7.28,0.54,1.2,18.6,5.35,-1.56,0.63,-1.27,1
1.38,-1.2,21.56,-2.59,7.32,-1.61,1.1,18.66,5.38,-0.24,-0.59,2.2,1
14.85,-0.52,18.84,-2.93,-82.57,11.33,-6.85,16.78,2.92,-7.08,14.65,3.22,2
14.01,-2.14,14.34,-4.69,-30.03,5.76,-6.16,17.23,4.6,-5.13,3.86,-5.18,2
15.62,-2.04,12.67,-2.15,-40.43,4.39,-5.07,17.76,5.82,-5.66,-6.98,12.21,2
19.38,0.9,17.43,-8.89,79.35,-14.21,-3.97,21.06,7.55,9.47,-6.1,-17.68,2
9.43,3.0,14.22,47.8,223.0,-47.66,-6.46,20.52,4.44,4.25,-5.96,4.15,2
1.07,-3.34,19.52,-15.28,76.95,-25.39,-6.23,17.08,4.25,-12.3,-11.33,9.72,2
-0.28,-0.09,20.44,-10.16,-4.05,-12.6,-4.91,19.14,5.42,3.22,-25.15,18.16,2
0.1,-2.2,20.78,-15.33,-2.34,-3.47,-4.12,18.35,6.15,1.9,-3.42,-1.95,2
-0.37,-1.04,20.7,-5.66,8.35,-4.39,-3.39,19.72,6.48,0.49,-24.32,6.64,2
-0.69,-1.1,21.21,-3.91,0.49,2.2,-4.13,19.45,5.37,0.78,5.08,-2.39,2
-0.0,-1.71,21.6,1.22,-0.93,3.47,-3.92,18.78,5.48,-1.56,3.56,0.2,2
-0.02,-1.81,21.26,1.17,-4.74,2.1,-3.7,18.24,5.91,-3.32,-2.49,1.42,2
0.1,-1.5,21.58,3.37,-1.17,-0.44,-3.82,18.66,5.35,-0.1,-0.63,2.64,2
-0.15,-1.72,21.05,-5.22,-1.71,1.95,-3.51,18.58,6.03,-4.3,1.32,1.46,2
0.03,-2.06,21.55,3.22,1.56,-0.63,-3.81,18.97,5.83,-7.52,-1.42,7.52,2
-0.07,-1.9,21.11,3.03,-1.37,1.51,-3.62,18.27,5.74,5.32,0.49,-3.96,2
-0.13,-1.45,21.28,2.69,-1.27,1.22,-3.9,18.6,5.45,-7.47,0.63,4.05,2
0.21,-1.98,21.31,-1.56,-1.42,0.44,-3.42,18.66,6.19,0.73,0.78,-0.68,2
0.18,-1.48,21.25,6.1,-3.17,2.0,-3.49,19.04,5.8,1.76,0.44,1.51,2
0.49,-0.98,21.2,5.52,-14.01,2.49,-3.4,19.15,5.74,2.54,3.13,-2.83,2
-14.49,-6.21,14.99,1.76,20.36,-3.96,-4.9,18.21,3.55,5.27,2.34,-9.86,3
-14.37,-6.18,15.77,7.91,-4.74,-0.05,-4.6,18.98,4.27,2.34,0.78,0.73,3
-13.39,-5.7,16.22,22.85,-40.97,1.37,-5.03,18.32,3.41,-0.49,1.12,-0.59,3
-8.41,-5.89,16.59,39.36,-172.41,34.18,-5.34,19.54,3.96,5.62,-2.64,-15.97,3
-0.12,0.0,22.4,15.67,-116.16,39.5,-4.84,20.39,5.91,9.13,-9.72,-5.22,3
3.2,-0.89,21.73,-2.78,-41.89,8.84,-6.24,18.82,3.28,2.78,-5.42,2.93,3
4.25,-1.37,21.18,-5.81,-5.52,0.68,-6.33,18.79,3.42,-10.35,2.98,-4.44,3
4.72,-1.91,21.18,0.2,-2.69,3.86,-5.53,18.33,5.37,-5.76,0.78,1.95,3
3.85,-0.51,20.08,4.69,5.71,2.44,-5.85,18.39,4.57,-4.64,-1.27,1.71,3
3.76,-1.42,20.46,-4.98,-3.22,0.34,-5.33,18.28,5.31,-1.86,-2.44,0.54,3
3.98,-0.67,20.7,1.12,-0.54,1.37,-5.74,18.89,4.65,-2.05,-3.17,2.98,3
3.92,-1.68,21.09,1.9,-1.9,4.35,-5.64,17.87,4.97,-3.08,2.59,14.36,3
3.85,-1.42,20.81,-1.66,-1.03,0.34,-4.93,18.95,5.69,-0.39,-3.27,0.0,3
4.01,-1.18,20.92,-0.68,-0.15,-1.22,-5.29,18.81,5.26,-0.54,-3.86,0.63,3
3.85,-0.9,20.7,2.49,0.2,-0.24,-5.44,18.46,4.99,-0.2,-1.76,0.54,3
3.61,-0.94,20.99,-1.47,1.61,-2.78,-5.6,18.97,4.84,1.42,-3.42,-1.22,3
3.65,-1.47,21.34,-3.96,5.03,-3.56,-5.53,18.5,5.26,-0.73,-2.0,-0.88,3
2.21,-1.81,21.17,-3.52,21.92,-4.3,-5.96,17.79,4.57,-0.54,1.71,-4.83,3
0.7,-1.78,20.61,-3.96,17.72,-3.61,-5.32,19.0,5.69,-1.22,-0.34,-1.22,3
0.18,-2.17,21.47,-1.37,14.99,-2.1,-5.62,18.48,5.37,-1.22,-0.2,-0.59,3
1.59,-1.4,20.99,1.61,-0.54,1.42,-5.2,18.48,5.2,-0.78,0.68,0.44,4
1.89,-1.7,21.14,0.49,-0.49,0.88,-5.19,18.34,5.62,-1.03,0.0,-0.54,4
1.99,-1.71,21.27,1.12,-2.25,1.51,-5.15,18.73,5.73,-0.29,1.07,0.59,4
1.97,-1.56,21.21,-0.78,-0.54,0.93,-5.13,18.61,5.66,-0.83,0.2,-0.15,4
1.89,-1.34,21.14,1.07,-0.54,0.49,-5.45,18.5,5.48,-0.78,0.34,-1.17,4
1.85,-1.44,21.18,1.03,-0.59,1.27,-5.27,18.41,5.64,-0.88,0.49,-1.71,4
1.79,-1.69,20.99,0.15,-0.68,1.56,-5.35,18.78,5.58,-0.39,-0.63,-0.1,4
1.63,-1.23,21.02,0.29,-1.32,1.32,-5.53,18.16,5.63,-1.12,0.78,0.39,4
1.89,-1.61,20.88,0.98,-1.12,1.37,-5.39,18.69,5.89,-0.93,0.29,1.71,4
2.37,-1.37,21.54,0.78,-1.22,1.07,-5.43,18.2,5.41,-1.37,0.49,-0.59,4
2.03,-1.44,21.24,0.93,-1.51,0.24,-5.41,18.41,5.68,-0.34,0.73,1.12,4
1.94,-1.46,21.35,0.24,-1.17,0.15,-5.42,18.75,5.73,-0.15,1.27,0.1,4
1.96,-1.51,21.17,0.93,-0.93,0.73,-5.43,18.26,5.84,-0.93,0.93,0.73,4
1.89,-1.25,21.27,0.1,0.44,0.63,-5.36,18.61,5.61,-1.12,0.24,0.88,4
1.9,-1.47,21.22,0.05,0.54,-0.29,-5.34,18.21,5.8,-1.07,0.39,0.2,4
1.66,-1.91,21.03,-0.68,-0.34,0.29,-5.54,18.76,5.56,-1.03,1.22,-0.68,4
1.94,-1.37,21.38,0.54,-0.1,1.22,-5.28,18.12,5.91,-1.56,0.1,0.34,4
1.69,-1.72,21.09,-0.59,1.27,0.34,-5.31,18.68,5.9,-0.98,0.05,0.78,4
1.55,-1.43,21.45,-3.22,9.18,-1.9,-5.35,18.5,5.93,-0.59,0.1,-0.1,4
0.93,-2.42,21.13,-4.39,16.11,-3.52,-5.36,18.37,5.72,-0.44,0.2,0.98,4
-13.55,-9.82,13.68,-28.27,145.31,-26.51,-4.68,19.44,1.75,-1.76,2.25,15.72,5
-16.19,-7.7,10.45,-1.07,39.11,-1.71,-4.45,20.26,1.93,-9.72,5.18,-5.32,5
-16.08,-6.51,14.33,6.3,-9.42,-0.2,-4.11,18.25,3.85,-15.38,-11.87,-4.0,5
-16.07,-6.93,14.21,10.01,-25.49,2.88,-6.64,15.85,2.97,0.73,6.35,-23.97,5
-12.24,-5.93,13.75,47.51,-155.13,21.04,-6.8,16.04,3.17,-14.11,-19.48,-18.9,5
-1.31,0.3,25.06,29.64,-78.61,26.56,-6.59,18.44,3.55,-10.25,-13.53,0.98,5
2.41,-0.63,23.82,7.62,-48.0,7.47,-6.44,18.73,4.2,-5.47,-5.37,2.0,5
3.45,-0.83,22.26,-1.71,-25.39,3.08,-6.21,18.44,5.12,-2.78,-2.54,0.83,5
2.9,-0.67,20.69,-2.05,-0.39,0.78,-5.76,18.99,5.67,-0.88,-0.78,2.15,5
2.88,-1.39,20.91,-0.49,1.12,0.93,-5.99,18.28,5.01,-1.76,-3.56,2.34,5
3.05,-1.31,20.83,-1.47,1.66,1.61,-6.03,18.55,5.07,-1.27,-1.9,0.59,5
3.17,-1.15,21.08,1.17,-0.88,0.73,-6.01,18.25,5.21,-1.32,-1.17,0.83,5
3.16,-1.25,21.06,1.22,-0.29,0.83,-5.83,18.51,5.37,-1.07,-0.54,1.12,5
2.86,-1.4,20.89,-0.68,0.44,0.0,-5.75,18.55,5.7,-0.29,-1.37,0.54,5
2.79,-1.17,20.99,0.73,1.37,0.49,-4.01,18.96,7.9,6.93,8.45,-8.35,5
2.89,-1.44,21.17,0.93,-0.83,0.83,-5.88,22.62,3.84,15.48,16.94,1.76,5
5.58,2.34,27.65,-44.82,224.32,-43.85,-8.35,15.15,1.84,10.89,17.82,11.77,5
-11.04,-6.44,17.3,-20.22,95.26,-11.04,-6.39,20.56,3.16,-3.13,3.56,21.09,5
-14.99,-7.52,12.66,-2.93,38.77,-7.23,-6.84,17.84,1.98,-5.22,2.1,1.17,5
-14.89,-7.68,16.12,5.81,-7.76,2.39,-6.29,18.87,2.67,-5.18,-13.18,1.9,5
-7.66,-4.89,16.88,-49.41,190.48,-28.81,-3.66,17.05,2.39,22.56,15.58,-3.76,6
-13.44,-7.5,14.82,-15.87,78.32,-12.99,-3.22,17.46,2.31,-9.18,6.64,0.63,6
-14.92,-7.16,11.83,-4.88,16.89,-9.72,-2.03,20.3,3.93,-7.81,0.24,-18.02,6
-14.16,-6.69,15.78,26.71,-30.47,5.03,-4.79,20.2,1.53,17.97,-35.99,-51.03,6
-5.81,-4.42,20.0,55.08,-216.36,50.49,-4.8,19.72,5.27,-0.88,-5.13,-11.87,6
2.14,3.24,24.19,33.11,-122.56,32.23,-4.55,20.08,5.74,-8.25,-12.94,4.0,6
4.66,-0.61,21.72,-4.74,-21.78,1.61,-5.24,18.34,5.21,-3.66,-4.88,-0.93,6
4.06,-1.23,21.13,-8.15,2.49,1.17,-5.1,18.53,5.48,-1.95,-2.0,0.59,6
3.69,-1.44,20.97,-0.73,1.66,2.0,-5.14,18.58,5.22,-3.86,-6.05,2.25,6
3.56,-1.04,21.14,3.32,0.44,0.78,-4.84,18.67,5.84,-0.93,-0.88,0.49,6
3.43,-1.03,21.01,-0.83,-2.25,1.9,-4.84,18.62,5.65,-1.12,-0.98,3.22,6
2.87,-1.09,20.54,-1.66,-1.12,2.54,-4.74,18.4,5.69,-1.9,-1.27,1.86,6
3.19,-1.41,20.85,-0.44,-1.56,1.81,-4.68,18.74,5.93,-1.27,-1.22,1.66,6
3.04,-1.12,20.81,-0.63,-1.03,1.71,-4.74,18.5,5.92,-2.93,-0.29,0.54,6
3.34,-1.32,21.05,-0.44,0.54,0.59,-4.79,18.71,5.84,-1.12,-0.34,0.05,6
3.19,-1.26,20.77,-1.27,0.68,0.39,-4.87,18.74,5.67,-2.64,-0.88,0.0,6
3.27,-1.26,21.22,-3.13,4.74,-1.03,-4.77,18.4,6.03,-0.49,-0.88,-1.76,6
2.85,-1.61,20.87,-1.51,6.54,-0.88,-4.84,18.57,6.08,-2.49,-0.59,-1.22,6
2.65,-1.67,21.45,-0.73,5.62,-2.25,-4.7,18.38,6.4,-1.07,0.05,1.07,6
1.93,-2.34,20.93,-2.73,4.35,-0.63,-4.86,18.41,6.0,-0.93,0.29,-0.2,6
-15.63,-7.78,13.64,-3.42,41.75,-14.5,-5.23,18.55,4.34,4.3,6.64,-3.17,7
-16.48,-8.31,12.14,-1.66,16.21,-5.57,-4.56,18.92,4.99,1.07,-2.83,-4.39,7
-14.95,-9.15,14.33,8.74,-14.6,0.34,-5.66,18.67,4.27,-2.34,0.88,-16.06,7
-12.31,-6.57,16.65,40.43,-88.48,24.61,-5.8,19.53,4.55,0.39,6.3,-9.13,7
-0.36,-0.08,28.61,94.19,-175.15,57.96,-5.14,21.06,6.33,-1.76,-24.07,-16.36,7
-2.32,-0.5,22.43,0.44,-66.6,15.97,-5.68,18.64,5.13,-10.01,-21.97,9.28,7
0.45,-2.39,21.73,-2.05,-27.29,3.56,-5.81,18.14,5.42,9.28,-4.98,10.11,7
0.99,-1.63,21.3,-6.4,2.34,1.51,-5.95,17.52,6.06,-3.91,-2.64,1.61,7
0.61,-2.06,21.73,-8.55,11.47,-2.88,-5.76,19.3,5.95,-8.01,-4.1,-2.44,7
0.24,-3.97,21.85,-7.96,7.62,-3.47,-5.89,18.46,5.74,-1.03,2.64,0.29,7
-0.61,-4.01,20.87,-9.38,6.98,-3.27,-5.57,18.73,6.67,-1.56,3.52,-3.96,7
-1.47,-3.35,20.87,0.2,-3.96,-1.51,-5.29,18.32,6.8,0.44,16.16,-6.2,7
-0.27,-3.96,21.87,-4.15,-0.83,0.68,-6.17,17.77,5.94,-2.25,8.11,-2.49,7
-0.98,-4.13,21.18,-3.91,-1.61,2.83,-6.62,18.08,6.27,-3.56,-1.71,1.9,7
-0.82,-4.77,20.95,-0.68,-0.15,2.49,-6.68,18.04,6.36,0.24,4.69,-0.54,7
-0.8,-4.42,21.08,-1.03,-0.2,1.32,-6.83,18.13,6.1,-2.59,-2.64,1.37,7
-0.96,-4.55,20.96,0.68,-1.71,1.46,-6.71,18.29,6.15,-0.34,0.44,-0.34,7
-0.76,-4.4,21.32,0.29,0.34,0.1,-6.63,17.96,6.4,-0.49,2.1,-0.93,7
-0.78,-4.76,21.19,0.05,-0.73,0.68,-6.71,17.52,6.01,-3.32,3.76,-2.15,7
-1.13,-4.48,20.93,0.24,-1.76,1.61,-7.01,18.03,6.52,-1.42,1.07,0.44,7
-5.84,-5.94,20.43,-7.67,52.83,-1.71,-7.55,17.67,6.3,1.9,4.3,6.93,8
-8.48,-5.09,19.49,-14.16,45.61,-8.11,-7.62,18.13,6.47,6.1,6.93,10.21,8
-10.21,-5.74,19.1,-8.3,49.56,-3.86,-7.21,17.77,5.69,7.18,9.86,6.4,8
-12.98,-6.68,16.24,-3.47,44.09,-9.96,-7.45,17.33,4.91,9.18,11.43,-0.05,8
-14.01,-7.64,15.44,-0.1,33.54,-7.76,-7.25,18.65,4.26,12.5,6.88,6.84,8
-14.71,-8.56,15.02,-2.49,16.21,-9.23,-7.38,17.81,3.45,3.76,7.57,-6.74,8
-14.99,-8.05,14.32,-0.34,11.72,-4.88,-7.22,18.42,3.61,-0.68,0.39,-1.27,8
-15.64,-8.44,12.07,-0.98,-0.29,-4.79,-7.15,18.33,4.01,-0.83,-1.51,-0.05,8
-15.33,-8.75,13.91,0.88,-0.59,-1.56,-7.44,18.33,4.1,-0.78,-1.12,-3.08,8
-15.58,-8.93,12.99,0.83,0.39,-0.59,-7.85,17.48,3.61,-3.22,1.42,-5.13,8
-15.42,-9.25,12.99,1.17,-1.76,-0.39,-7.55,18.55,3.91,-0.29,-0.68,-0.68,8
-15.34,-8.87,13.12,1.32,-3.03,-0.93,-7.36,18.16,4.27,-2.49,-5.42,0.0,8
-15.26,-8.78,13.21,2.0,-5.66,-1.17,-7.72,18.25,3.99,-3.27,-0.15,-0.29,8
-15.25,-8.84,13.67,0.73,-1.17,-0.29,-7.67,18.38,3.97,-1.17,2.25,0.1,8
-15.15,-8.64,13.43,1.17,-6.15,1.27,-7.78,17.89,3.9,-1.17,2.73,0.73,8
-14.72,-8.79,13.95,5.27,-17.29,5.81,-7.16,18.71,4.6,2.25,-2.93,8.54,8
-14.17,-8.43,14.76,6.88,-22.17,7.86,-7.25,18.39,3.82,-0.44,5.71,-1.22,8
-13.87,-8.53,11.33,16.45,-106.35,22.12,-6.58,20.8,4.23,4.59,0.78,-5.22,8
-5.75,-0.77,23.04,24.02,-59.72,18.9,-6.94,19.69,5.05,-0.34,-0.1,0.78,8
0.29,-0.43,24.79,23.19,-53.96,20.36,-7.84,17.61,5.16,-6.98,-0.39,-2.78,8
-14.65,-7.68,14.87,-12.65,59.33,-10.69,-8.7,17.52,3.7,14.4,11.08,1.86,9
-15.13,-9.01,14.22,0.78,20.21,-9.13,-8.4,18.69,3.19,10.69,3.22,3.71,9
-16.46,-9.04,12.12,0.78,-0.59,-4.1,-8.5,18.43,2.98,-0.83,1.27,3.03,9
-15.47,-9.35,14.16,0.24,2.69,-4.2,-8.76,17.86,2.62,-0.15,3.32,-2.1,9
-16.13,-9.22,11.37,1.76,-1.86,-1.27,-8.42,18.42,3.07,-4.44,-0.98,1.56,9
-15.92,-9.27,12.09,0.98,-2.83,-0.34,-8.61,17.93,2.92,-3.61,-1.71,1.81,9
-15.53,-9.36,13.33,0.83,-0.1,-0.15,-8.38,18.55,3.34,-0.34,-2.05,-0.34,9
-15.53,-9.29,12.33,2.98,0.29,-1.56,-8.44,18.28,3.73,0.98,-1.61,-3.27,9
-15.62,-9.34,13.15,1.81,3.27,0.59,-8.61,17.7,3.54,-0.54,-0.39,-1.81,9
-15.61,-9.58,12.83,0.59,-0.93,0.24,-8.63,17.72,3.41,-0.44,0.54,-1.61,9
-15.54,-9.72,12.69,10.2,-50.78,0.05,-8.58,18.66,3.24,-4.3,1.81,3.86,9
-9.94,-9.8,13.75,40.82,-245.65,21.88,-8.09,17.88,3.96,-4.44,-1.66,5.96,9
-4.0,-3.0,21.75,15.82,-60.55,15.87,-9.16,16.68,3.44,-9.96,-3.61,2.0,9
-2.14,-2.17,20.06,-4.05,8.74,0.68,-8.99,17.04,3.97,-7.18,-5.62,-2.0,9
0.08,-3.61,21.01,-2.69,-11.43,-0.73,-8.76,17.54,4.19,-7.91,-7.28,-3.37,9
0.61,-3.75,20.78,1.12,-7.03,2.49,-8.52,17.92,4.64,-4.74,-5.03,-1.17,9
1.79,-3.69,21.99,4.83,-6.4,2.49,-8.71,18.32,4.68,-3.13,-4.35,-3.32,9
1.01,-4.38,20.87,-3.22,-9.13,1.37,-9.25,17.51,4.8,-7.28,0.34,-9.67,9
1.53,-4.43,20.83,1.42,-2.05,1.9,-9.44,17.17,5.27,-2.1,0.2,-1.27,9
1.63,-4.01,20.98,-0.1,-2.54,0.78,-9.32,17.07,5.4,-1.66,-1.66,-0.59,9
-13.89,-8.65,14.82,-6.25,45.41,-6.93,-7.5,19.44,2.55,13.38,10.84,7.42,10
-14.54,-8.34,15.14,-0.05,45.07,-10.64,-6.76,19.52,2.44,4.15,3.96,2.93,10
-15.93,-8.68,12.67,0.29,17.19,-4.0,-7.34,18.26,2.17,5.62,1.03,-4.74,10
-16.54,-8.94,12.21,2.93,1.22,-1.86,-7.83,18.58,1.31,-2.49,0.1,-5.18,10
-15.85,-8.44,14.41,4.69,-9.23,-10.55,-7.62,19.07,2.29,-2.93,-0.1,0.34,10
-16.35,-8.91,12.31,1.71,0.59,2.29,-7.75,17.9,1.69,-3.17,-0.54,-0.59,10
-16.45,-9.06,11.23,0.44,-1.95,-0.39,-7.92,18.24,1.56,-1.27,-0.93,0.49,10
-16.12,-9.64,11.52,2.83,-4.59,0.98,-8.12,18.51,1.62,-3.86,-0.68,0.34,10
-15.96,-9.46,12.05,1.71,-3.22,1.76,-8.02,18.33,1.73,-0.24,1.07,-0.59,10
-15.71,-9.6,13.07,1.03,-3.37,-1.07,-7.95,18.56,2.14,-1.86,-1.07,0.93,10
-16.0,-9.13,11.63,-0.29,0.44,0.54,-8.13,18.42,2.03,-2.83,1.9,0.24,10
-15.8,-9.22,12.09,0.15,-2.2,1.07,-8.52,16.97,2.36,-16.26,-1.71,14.75,10
-16.02,-9.04,12.63,6.54,-20.31,4.44,-7.85,18.67,2.6,-3.42,-2.15,1.17,10
-8.77,-6.74,24.25,14.55,-81.45,19.53,-8.48,17.13,1.9,-14.89,-13.33,-17.43,10
-3.69,-7.64,18.14,65.82,-223.97,35.16,-6.74,17.51,5.49,-9.72,-10.21,-9.81,10
0.7,-5.46,21.14,-7.57,-54.39,4.3,-7.93,18.11,4.45,-2.2,-10.69,2.34,10
1.11,-4.02,20.77,-0.34,5.03,-0.29,-8.01,18.01,4.54,-3.37,-0.24,-6.98,10
1.6,-3.94,21.05,0.63,-1.86,1.71,-8.53,17.59,4.57,-1.27,1.51,-4.0,10
0.13,-4.54,19.54,-8.01,24.71,-3.66,-8.33,17.6,5.72,-3.71,0.88,-5.18,10
0.41,-3.54,21.18,-6.64,17.19,-2.29,-8.64,17.53,5.44,-3.42,-0.15,-2.15,10
-9.69,-6.73,18.46,-7.28,13.28,-0.2,-8.42,17.25,6.52,-1.95,1.76,6.2,11
-11.64,-7.29,16.95,-10.21,51.37,3.66,-8.29,17.75,6.09,-0.59,1.12,8.2,11
-12.74,-7.51,15.68,-5.91,30.42,-5.71,-7.88,17.66,5.86,1.03,-1.27,10.35,11
-13.04,-8.51,17.02,0.39,28.47,-1.61,-8.13,18.0,5.37,1.61,1.07,3.17,11
-13.68,-7.39,16.91,1.71,10.45,-4.49,-8.08,17.48,5.54,0.44,-0.05,0.15,11
-14.79,-7.77,15.08,1.12,7.13,-3.56,-8.35,17.57,5.86,-0.34,0.2,0.78,11
-15.05,-7.69,14.14,-1.61,5.91,-4.25,-8.8,17.29,6.14,-1.81,0.63,-2.0,11
-15.03,-8.45,13.42,1.12,3.08,-1.9,-7.98,17.26,6.61,-3.13,1.32,-2.15,11
-14.87,-10.26,13.61,-0.49,2.83,-2.93,-8.15,17.31,5.89,-2.3,0.15,-3.42,11
-14.19,-8.87,13.43,-1.76,1.81,-1.32,-8.15,17.46,5.4,-0.39,1.22,-0.78,11
-15.08,-8.62,13.23,-0.68,2.44,-2.93,-8.13,17.55,5.47,-0.63,0.24,-2.39,11
-15.03,-8.42,13.66,1.86,-3.52,0.68,-8.27,17.76,5.49,-0.29,0.63,-0.44,11
-14.72,-8.53,14.05,-0.59,0.15,-1.86,-8.56,17.14,5.33,-1.81,1.07,-2.93,11
-14.98,-8.59,13.85,-0.15,-0.83,-1.07,-8.71,17.31,5.87,-2.78,-1.61,-1.37,11
-14.81,-8.58,13.94,-0.24,0.2,-0.1,-8.64,17.26,5.6,-0.78,1.37,0.54,11
-14.85,-8.94,13.87,0.24,1.03,0.05,-8.43,17.34,5.83,-0.88,1.07,-0.59,11
-14.84,-8.34,13.83,3.42,-2.34,5.76,-8.93,16.53,5.51,-3.71,-3.71,-1.17,11
-14.91,-8.59,13.57,-0.1,-2.59,-1.12,-8.68,18.03,5.12,-4.59,-2.39,3.61,11
-14.53,-10.02,13.95,-3.71,-4.39,-4.88,-7.8,17.35,7.25,-0.34,2.93,-3.91,11
-14.86,-7.32,13.92,28.76,-16.21,40.97,-8.27,17.68,6.64,-3.47,-6.54,-0.98,11
-14.29,-8.58,13.75,-9.96,85.89,-4.59,-10.14,17.27,4.62,22.7,18.51,8.15,12
-16.59,-8.92,12.22,0.15,43.65,-7.62,-10.74,16.86,2.82,15.62,10.99,3.52,12
-17.15,-8.67,11.03,-1.17,14.84,-5.22,-9.63,18.03,2.52,5.91,5.42,5.08,12
-16.04,-9.03,13.32,0.15,-6.74,-1.95,-9.73,17.39,2.61,-2.98,2.44,0.68,12
-16.85,-8.65,10.51,-0.88,-3.03,-1.37,-9.91,17.0,2.44,-3.03,1.56,-3.56,12
-16.26,-9.17,12.57,0.88,-1.71,-1.66,-9.48,17.58,3.64,-1.86,-1.42,-3.81,12
-15.95,-8.63,12.1,2.54,-1.86,1.42,-9.9,16.97,2.87,-3.37,-1.95,-0.73,12
-16.05,-8.97,12.41,1.42,-5.13,0.05,-9.99,17.11,3.13,11.38,-0.98,-0.68,12
-15.91,-9.39,12.92,1.81,-6.64,1.71,-9.41,18.01,4.06,1.03,2.88,-2.54,12
-14.15,-8.54,15.62,19.53,-90.62,6.25,-9.9,18.09,3.59,-7.76,-1.81,5.81,12
-6.48,-8.9,16.3,61.77,-226.46,27.88,-9.79,17.24,3.78,-5.86,1.12,-9.77,12
-2.18,-3.82,21.82,7.86,-59.28,7.13,-10.75,16.98,3.85,-11.13,-9.23,-7.42,12
-1.14,-3.79,20.55,2.25,-11.08,4.64,-10.8,16.45,4.44,-4.98,-2.15,-4.39,12
-0.06,-3.55,20.96,-0.15,-5.08,2.1,-10.99,16.44,4.74,-4.25,-1.37,-2.25,12
0.06,-4.03,20.91,-0.73,-1.56,0.98,-11.06,16.46,5.21,-1.56,-0.49,-2.05,12
0.5,-3.64,21.63,1.66,-4.1,2.44,-11.08,16.33,5.22,-2.64,-0.98,-1.76,12
0.95,-3.91,21.01,-1.17,-2.29,-0.15,-10.82,16.62,5.14,-2.05,0.2,3.22,12
0.73,-3.38,21.05,1.61,-2.78,1.9,-10.93,16.44,5.2,-1.51,-1.27,-0.78,12
0.66,-3.94,20.91,1.61,-1.81,1.32,-11.09,16.68,5.29,-0.49,-0.24,0.29,12
0.79,-3.66,21.15,0.83,-1.66,1.17,-11.08,16.48,5.27,-1.27,-0.2,-0.2,12
-5.5,-6.9,20.64,-45.8,214.65,3.03,-9.59,16.64,2.8,-0.1,2.0,-1.86,13
-15.92,-7.68,10.53,-25.54,93.99,-21.87,-8.93,17.56,3.28,-4.54,0.39,-0.93,13
-17.02,-8.4,12.25,0.49,44.82,-15.38,-9.37,17.57,2.97,-4.2,-5.08,-2.1,13
-17.57,-8.02,10.24,4.1,25.63,-2.88,-8.38,17.71,4.92,-3.56,-20.7,-4.49,13
-17.89,-8.49,10.59,3.03,2.88,-2.59,-10.95,16.05,3.62,-8.3,-6.64,-28.22,13
-17.77,-9.03,9.76,3.37,2.05,-1.86,-10.22,15.75,4.73,-13.97,-13.13,-11.57,13
-17.75,-8.98,10.22,3.32,-10.35,2.44,-10.59,15.98,5.89,-22.17,-14.84,3.81,13
-17.88,-9.21,8.25,25.78,-37.99,6.64,-10.87,16.22,6.41,-11.43,-4.35,0.29,13
-14.25,-6.37,14.5,50.49,-117.48,38.77,-10.48,16.65,6.21,-3.76,3.03,-2.2,13
-8.31,-1.98,20.4,49.27,-128.76,40.87,-10.37,16.11,6.77,-3.66,-0.83,-0.98,13
-4.57,0.19,22.33,6.93,-54.64,20.36,-10.56,15.7,6.94,-3.42,-4.2,-1.71,13
-2.47,-0.68,21.98,3.08,-46.04,16.31,-10.66,16.29,6.6,-1.17,-7.28,0.98,13
-1.39,-0.7,22.27,-3.56,-13.87,2.1,-10.25,16.16,7.37,-2.69,-0.88,0.63,13
-2.03,-0.3,21.03,-2.54,0.93,0.63,-10.16,16.4,7.38,-2.15,-0.59,0.78,13
-2.03,-0.62,21.27,-2.49,1.56,0.63,-9.3,15.91,8.37,-3.47,-11.72,4.79,13
-2.07,-1.0,21.22,0.93,-2.05,1.17,-9.38,15.81,8.13,-1.95,-11.43,3.22,13
-1.75,-0.82,21.52,-1.32,-0.34,-1.95,-9.83,15.15,7.91,-2.3,0.05,-0.2,13
-2.09,-0.9,21.49,-0.93,1.07,0.44,-8.61,17.18,8.72,0.44,-5.66,4.54,13
-2.33,-1.1,21.2,-3.08,-2.29,1.03,-8.9,16.69,7.9,-1.47,-3.22,-1.07,13
-1.96,-1.48,21.47,-0.44,-0.63,-0.05,-8.8,16.76,9.06,-1.32,-2.98,0.49,13
-14.72,-7.96,14.28,-10.25,28.27,-2.73,-9.14,15.79,7.83,9.91,15.72,11.82,14
-14.99,-7.5,16.25,-3.17,29.39,-10.99,-9.53,16.16,5.76,4.15,10.45,9.47,14
-14.83,-8.69,15.09,-0.24,24.32,-6.88,-8.03,16.54,6.73,0.1,10.5,4.15,14
-16.1,-10.57,10.07,4.05,19.97,-6.79,-9.53,15.85,4.8,2.2,20.51,-9.23,14
-17.01,-10.76,7.49,4.49,11.67,-8.74,-9.48,16.35,4.39,2.64,3.86,-1.42,14
-17.27,-9.86,10.6,4.54,-2.73,-2.88,-9.16,18.18,5.7,-2.25,0.15,0.0,14
-17.17,-10.38,8.4,6.64,-2.15,1.61,-9.32,16.28,5.42,-2.34,1.12,-5.76,14
-17.32,-10.15,8.86,10.11,-9.23,3.96,-9.53,16.8,5.66,2.69,0.49,-7.81,14
-17.29,-8.75,9.91,47.02,-68.6,19.58,-9.85,17.35,5.0,4.2,-2.54,-4.25,14
-12.22,-4.18,17.29,60.11,-133.25,48.05,-9.83,17.09,5.0,13.23,-16.89,3.42,14
-8.53,-2.28,20.04,14.01,-54.3,20.21,-8.57,17.19,6.07,-0.39,-10.5,0.93,14
-6.26,-0.5,20.8,10.64,-60.64,22.85,-8.82,16.91,5.23,-12.5,-11.23,5.47,14
-2.68,-1.4,22.73,11.52,-62.74,21.92,-8.15,18.15,7.56,-22.8,-15.62,10.89,14
-0.43,-1.82,22.17,13.33,-46.78,18.6,-6.71,18.12,9.22,-8.64,-12.5,-0.15,14
-0.74,-0.15,21.27,7.91,-14.16,13.28,-7.42,16.81,8.61,-2.44,-5.71,-7.03,14
-0.55,-0.36,21.5,-0.98,1.07,-2.0,-7.75,16.5,8.62,-1.61,-4.69,-0.15,14
-1.19,-0.85,21.03,-9.08,24.51,-8.11,-6.68,17.75,9.82,-4.69,-9.96,2.73,14
-1.33,-1.15,21.15,-1.9,3.56,0.0,-6.51,17.16,10.09,-1.37,-6.74,2.0,14
-1.32,-0.76,21.62,-2.05,2.2,-5.18,-7.19,16.83,8.99,1.42,-6.93,-0.88,14
-1.41,-0.94,21.77,0.88,-1.81,-0.24,-6.96,16.53,9.49,-0.73,-2.98,0.63,14
-15.06,-7.43,12.54,-3.03,29.93,-13.96,-4.13,19.08,0.55,14.26,10.69,9.08,15
-15.88,-7.15,12.59,2.98,21.97,0.83,-2.46,18.6,1.2,7.52,13.67,9.62,15
-16.57,-5.69,12.42,8.35,8.15,4.0,-1.51,20.39,1.02,2.34,-1.27,7.62,15
-16.6,-7.1,13.26,4.39,0.15,-1.9,-2.69,19.41,1.17,-3.42,-1.51,-3.56,15
-16.61,-6.85,14.09,13.87,-12.45,10.25,-3.57,19.08,1.12,-3.22,8.01,-16.8,15
-14.09,-5.82,17.64,14.55,-21.04,17.14,-2.85,20.05,2.17,7.67,-3.96,-10.94,15
-12.83,-4.62,17.58,16.8,-33.01,13.23,-3.0,19.5,1.82,-3.32,-1.51,-5.52,15
-13.5,-2.16,17.46,13.38,-17.68,8.79,-3.35,19.81,1.85,0.93,-9.03,-20.12,15
-7.63,2.04,22.57,70.61,-104.69,69.97,-2.74,24.32,2.44,12.11,-35.3,-10.11,15
-8.36,-1.42,16.45,21.09,-108.74,57.62,-6.3,16.14,1.52,-20.85,-26.71,4.83,15
-3.9,-0.1,19.32,-9.33,-85.6,30.18,-5.6,16.78,4.35,-48.63,-13.09,7.18,15
-2.7,3.69,21.8,-7.47,14.5,7.32,-6.34,14.55,4.0,-26.07,2.83,-10.21,15
-1.18,2.12,21.99,7.08,-5.37,-0.83,-3.97,19.68,4.78,-0.29,-2.64,13.62,15
-1.7,1.05,21.27,-8.15,5.76,-10.64,-3.74,18.22,5.34,0.59,-2.29,3.47,15
-1.94,0.55,21.3,5.66,3.76,-0.54,-3.92,18.05,4.55,8.89,0.83,7.86,15
-1.95,1.76,21.5,2.34,1.76,0.49,-2.9,18.44,4.77,4.15,0.1,3.81,15
-2.96,1.51,20.86,1.42,4.83,-1.66,-2.59,19.17,4.82,4.69,2.88,5.57,15
-3.0,1.92,20.96,2.49,-0.29,2.15,-2.5,19.87,4.69,-2.49,7.62,0.68,15
-2.47,2.5,21.78,6.15,-1.51,6.15,-1.76,20.0,5.14,-5.91,2.0,-2.25,15
-4.16,2.38,19.9,4.0,3.76,0.54,-2.74,18.97,5.0,-0.05,1.27,3.32,15
-16.26,-5.44,11.96,-24.71,40.38,-9.67,-5.52,19.07,1.25,-1.47,-0.68,1.17,16
-17.51,-5.62,12.8,-19.73,42.33,-10.3,-5.61,18.81,1.25,-2.05,1.61,-1.81,16
-17.95,-6.22,9.07,-5.13,14.11,-7.71,-5.54,19.34,1.12,-1.86,2.69,2.2,16
-18.38,-7.35,11.5,0.05,3.08,-2.49,-5.01,19.07,1.98,-5.13,-2.39,1.37,16
-18.87,-7.05,7.34,-6.49,6.2,-6.49,-4.87,20.06,2.15,-3.86,0.39,2.98,16
-19.08,-5.73,7.45,-3.91,4.39,-5.37,-4.59,21.07,2.42,-18.07,27.73,23.29,16
-18.95,-6.59,6.71,-3.52,-3.12,-3.42,-4.64,17.7,4.4,-12.11,-17.72,-1.37,16
-18.39,-7.58,10.87,1.42,-4.88,-1.42,-6.53,18.5,0.94,-10.64,-12.11,-2.59,16
-17.94,-7.68,12.04,4.64,-3.37,-0.1,-3.96,20.04,4.56,-10.79,-13.72,2.05,16
-17.96,-8.03,10.91,4.0,-4.74,1.22,-3.94,18.36,5.58,-10.45,-18.99,-17.92,16
-18.08,-7.7,9.88,1.86,-4.54,-0.29,-4.79,19.3,4.78,3.17,-9.23,5.42,16
-17.98,-7.23,11.26,2.64,-4.54,1.76,-4.7,18.56,5.19,-1.76,-3.52,0.44,16
-17.81,-7.36,10.87,1.42,-5.86,0.68,-4.7,18.47,5.25,1.66,-4.64,-3.42,16
-17.68,-7.18,11.38,4.49,-7.52,0.2,-5.32,18.02,5.35,-3.56,-3.32,-2.59,16
-17.68,-7.38,11.26,5.66,-12.26,2.2,-5.27,18.44,5.18,-2.34,1.07,2.0,16
-13.61,-6.98,14.34,58.69,-134.18,36.57,-4.89,18.89,5.31,-0.73,-0.93,-2.73,16
-3.89,-1.78,20.15,108.25,-231.64,84.38,-5.24,18.63,5.32,-0.68,0.93,1.42,16
-2.06,6.56,21.74,21.48,-43.46,36.28,-5.21,18.22,5.78,-1.27,-0.63,0.63,16
1.73,3.29,21.77,-12.99,5.08,-15.09,-5.32,18.23,5.38,3.27,-5.52,-0.49,16
-1.35,2.99,19.67,-12.35,21.53,-23.14,-4.59,19.07,5.68,-2.78,-7.62,1.37,16
-7.52,-2.95,19.45,-47.8,92.04,-26.71,-4.77,19.57,5.45,8.5,6.45,7.03,17
-11.89,-2.62,16.14,-14.11,77.1,6.59,-4.69,17.3,7.3,-7.76,19.14,-7.08,17
-13.38,-5.1,16.81,-15.58,44.38,16.21,-4.96,19.05,5.54,5.81,26.07,-3.12,17
-14.82,-2.92,16.47,-14.16,40.77,5.37,-7.27,19.27,2.55,7.57,9.72,-3.37,17
-18.13,-4.83,11.72,-7.47,28.27,-20.85,-6.85,16.92,4.22,5.91,9.23,-8.11,17
-17.93,-7.85,10.4,-8.3,27.78,-13.62,-7.09,17.97,4.13,2.64,7.32,-5.42,17
-18.69,-7.19,7.67,-3.47,21.73,-5.76,-8.41,16.45,1.89,3.27,15.23,-5.52,17
-18.65,-7.55,7.58,-2.64,12.99,-11.72,-7.09,20.28,2.94,12.11,11.77,4.1,17
-19.44,-7.89,7.16,-3.13,13.18,0.54,-7.44,18.3,1.55,-7.37,10.79,-5.71,17
-19.08,-8.68,6.17,-4.93,0.34,-1.22,-7.03,20.36,2.59,-2.64,0.05,-7.13,17
-19.05,-8.31,5.38,-0.44,1.22,-0.29,-8.9,17.24,1.96,-6.49,0.1,1.61,17
-18.73,-8.66,6.22,0.49,-7.32,-2.69,-7.91,18.48,2.75,-1.17,-0.83,3.08,17
-18.78,-8.49,7.76,2.49,-8.01,-0.05,-8.42,17.49,2.09,-3.76,2.34,0.0,17
-18.47,-8.47,9.05,3.27,-7.96,3.52,-9.28,15.12,0.85,-3.61,-2.64,6.49,17
-18.5,-8.98,5.56,15.19,-50.24,16.65,-6.95,19.86,1.18,5.42,6.45,-7.52,17
-18.84,-4.81,10.82,16.65,-22.71,23.1,-6.31,19.98,3.29,6.2,3.17,17.77,17
-12.85,-4.65,16.79,59.81,-133.79,66.55,-8.72,16.91,1.35,-30.22,-7.13,-29.2,17
-9.52,0.68,18.97,10.06,-106.79,33.98,-7.04,18.95,4.15,-5.52,-50.0,27.05,17
-5.49,2.73,21.09,22.7,-44.68,6.05,-5.08,19.37,6.98,-20.9,-18.02,2.29,17
-1.5,1.23,22.78,-5.42,-19.34,8.01,-6.15,18.57,6.63,-5.66,-4.25,4.93,17
-16.04,-7.72,12.38,7.03,-2.93,0.15,-4.82,17.76,4.21,-5.22,-0.29,-0.24,18
-15.33,-5.78,16.53,6.79,-3.12,3.56,-4.58,18.77,3.91,-1.07,-3.52,1.03,18
-15.07,-7.07,14.81,3.76,-0.98,0.63,-4.82,18.15,3.38,-4.44,-0.54,0.44,18
-14.38,-7.12,15.81,8.35,-10.55,-1.61,-4.48,18.74,3.85,-1.9,1.12,-1.71,18
-14.76,-7.26,15.08,3.47,-5.52,-3.37,-4.38,18.78,3.97,-3.22,-1.71,-4.49,18
-14.54,-6.75,13.97,22.66,-28.91,14.01,-4.28,19.53,4.27,-2.1,1.37,-1.07,18
-13.78,-5.86,16.67,5.52,-10.64,-0.05,-4.53,19.22,4.57,-0.88,-2.49,1.42,18
-14.03,-5.89,16.0,0.63,-2.78,1.03,-4.92,18.85,4.12,-4.39,1.32,-2.69,18
-13.45,-5.26,17.32,4.44,-9.23,0.98,-4.33,18.96,4.63,-3.08,0.05,-4.44,18
-13.82,-6.32,15.45,5.86,-11.87,2.83,-4.92,18.57,4.17,0.15,-0.15,-0.93,18
-13.59,-5.82,16.23,-0.98,-0.59,0.15,-5.06,18.72,4.32,-3.52,1.17,-1.56,18
-13.42,-5.87,16.41,1.17,-2.29,-0.15,-5.22,19.15,4.28,0.98,-3.12,-1.17,18
-13.08,-5.99,16.93,-0.24,-2.83,0.2,-5.18,18.74,4.42,-2.59,0.49,-4.0,18
-13.42,-6.07,16.1,4.69,-6.3,1.86,-5.14,18.85,4.86,-2.05,-0.44,-0.49,18
-13.2,-5.51,17.0,-3.66,1.46,-1.71,-5.61,18.46,4.8,-2.2,0.24,-1.37,18
-13.03,-5.96,16.87,0.88,-2.88,0.73,-4.94,18.97,5.31,-2.93,-2.0,-0.34,18
-12.95,-6.03,16.82,2.69,-4.05,2.0,-5.19,18.76,5.23,-1.32,-0.34,1.32,18
-12.7,-5.46,17.22,2.49,-4.49,2.34,-5.37,18.15,5.53,-2.49,-1.37,-0.83,18
-12.32,-5.03,18.15,4.54,-6.4,2.49,-5.28,18.92,5.06,-0.98,-1.37,-0.34,18
-12.31,-5.93,17.45,0.49,-1.56,0.29,-5.37,18.97,4.74,0.39,-0.1,-2.39,18
-13.13,-4.76,15.88,-49.12,80.47,-13.53,-4.96,19.21,4.95,12.35,-5.03,10.25,19
-14.26,-5.99,15.58,-4.44,38.57,-9.08,-3.89,18.56,5.29,14.6,-5.86,8.79,19
-15.44,-7.85,14.34,-20.41,50.44,-5.91,-4.07,19.86,4.11,7.32,2.73,2.1,19
-15.83,-7.18,12.51,-1.27,20.26,-2.29,-4.67,18.01,3.87,4.74,7.52,-4.93,19
-16.98,-8.08,12.57,-2.2,9.42,-5.71,-5.17,19.02,3.27,-0.2,5.32,-3.61,19
-17.5,-8.77,8.38,0.59,4.05,2.93,-5.56,18.06,3.68,-1.66,9.08,-8.74,19
-17.28,-9.17,10.07,-4.74,8.2,-2.93,-5.34,18.65,2.87,-0.34,3.47,-8.74,19
-17.2,-7.26,12.45,0.05,1.71,-0.1,-4.23,20.86,4.18,1.07,0.1,-0.2,19
-17.09,-7.89,12.35,4.39,-2.93,1.76,-5.17,19.26,3.72,-0.24,0.83,3.42,19
-16.87,-8.47,11.83,2.69,-2.05,1.9,-5.21,18.88,4.06,-0.59,0.29,1.42,19
-17.05,-7.95,11.3,1.32,-4.59,0.39,-5.43,18.57,3.42,-3.71,2.73,-2.29,19
-17.06,-8.52,11.29,0.15,-1.81,0.29,-5.45,18.67,4.49,-1.81,0.68,-0.05,19
-16.94,-8.27,11.6,-0.1,1.07,0.54,-5.34,18.92,4.03,-1.37,1.22,-0.78,19
-17.01,-7.85,12.13,0.44,-0.39,1.12,-5.17,19.85,3.86,-1.17,1.32,0.88,19
-16.87,-8.12,12.64,2.2,-1.46,0.78,-5.11,19.11,4.11,-0.78,0.68,2.49,19
-16.83,-8.39,11.39,4.44,-8.4,1.32,-5.52,18.33,3.84,-0.88,0.29,0.54,19
-16.58,-7.63,11.58,9.23,-12.5,3.22,-5.22,19.51,3.76,1.9,0.29,0.0,19
-16.26,-7.76,13.78,10.35,-11.72,1.46,-5.28,18.57,3.75,0.2,1.61,8.3,19
-14.49,-6.76,15.11,31.93,-43.46,13.96,-5.27,18.49,3.9,0.05,-2.98,14.79,19
-15.75,-8.28,11.37,16.5,-32.52,9.33,-4.53,19.04,3.52,-1.27,0.63,-8.25,19
-15.56,-5.01,14.23,-7.72,49.17,-12.55,-4.68,19.32,5.11,19.19,-0.93,19.34,20
-16.34,-7.61,13.49,-18.51,44.63,-11.28,-5.31,18.29,3.82,14.16,16.5,-6.45,20
-17.34,-8.31,9.94,-11.91,25.1,-5.03,-5.46,18.15,3.58,8.4,10.11,-10.94,20
-17.52,-8.61,9.97,-1.12,6.4,-1.86,-5.53,18.65,2.61,-0.29,1.81,-2.2,20
-17.44,-8.11,11.17,2.64,-4.1,-1.66,-5.39,19.01,2.88,-2.54,1.37,-4.3,20
-16.99,-8.87,11.02,4.59,-5.71,-1.03,-5.55,18.64,3.49,-4.15,-2.59,1.51,20
-16.99,-9.51,10.41,5.71,-12.94,-0.98,-6.12,17.64,3.85,-9.28,-3.32,-0.88,20
-17.33,-9.03,9.87,4.93,-16.21,2.29,-6.31,17.76,3.2,-5.66,1.51,-2.1,20
-15.29,-7.67,11.45,71.0,-116.31,53.42,-5.1,18.71,4.11,-2.88,-5.96,26.07,20
-5.36,1.74,23.11,97.66,-174.71,78.66,-3.6,20.76,3.81,2.93,3.27,3.22,20
-4.43,0.65,20.99,6.05,-36.13,16.6,-4.97,17.74,4.72,-9.13,1.61,-8.64,20
-2.88,3.08,21.68,4.88,-10.21,7.23,-4.81,19.47,4.18,-3.32,-0.49,-0.49,20
-3.29,2.13,20.88,1.27,-0.73,1.07,-5.2,18.69,4.53,-0.73,-0.29,-1.37,20
-3.21,2.08,21.08,-1.27,-1.03,1.81,-5.24,18.59,4.81,-2.93,0.05,-3.03,20
-3.07,2.47,21.12,0.68,-1.76,1.66,-5.27,18.89,4.66,-1.86,-0.24,-0.59,20
-3.02,1.96,21.07,0.49,-1.9,1.42,-5.32,18.48,5.05,-1.86,0.29,-0.1,20
-3.08,2.13,20.96,-0.78,-1.22,0.78,-5.34,18.55,4.98,-2.59,-0.54,-0.78,20
-3.12,1.94,20.96,0.63,-1.86,1.12,-5.47,18.49,5.04,-1.81,-0.2,-0.34,20
-3.08,2.06,21.12,0.15,-2.05,0.39,-5.48,18.51,5.17,-1.81,-1.46,-0.83,20
-3.1,1.94,21.0,0.44,-1.17,0.54,-5.59,18.45,5.13,-1.66,-0.59,-1.03,20
-16.81,-7.12,11.4,-20.02,36.04,-4.44,-7.17,17.49,4.41,5.32,16.99,-1.46,21
-16.29,-6.17,13.25,-1.66,15.87,-6.15,-6.9,18.61,4.48,4.59,10.84,-0.49,21
-17.21,-8.57,11.61,-6.69,12.3,-6.35,-7.43,18.62,3.52,4.39,6.05,-3.42,21
-17.53,-8.99,10.02,1.03,2.0,0.73,-7.58,18.51,3.22,2.44,5.03,1.61,21
-17.31,-9.4,10.23,-0.39,0.39,0.34,-8.16,17.39,2.6,1.12,4.88,-2.34,21
-17.77,-8.71,9.94,-0.1,-0.49,2.2,-7.67,18.43,3.3,-2.98,3.03,-0.44,21
-17.62,-8.94,10.19,2.78,-4.25,-0.24,-7.73,18.57,3.01,-0.78,0.15,0.54,21
-17.5,-9.08,10.31,3.76,-7.47,0.83,-7.59,18.48,3.61,-3.52,-0.15,1.61,21
-17.54,-8.75,10.39,3.95,-4.64,0.0,-7.43,18.38,3.52,-3.27,-2.88,0.59,21
-17.44,-8.45,11.14,3.86,-4.93,2.69,-7.49,18.72,3.51,-2.2,0.05,-0.15,21
-17.4,-8.53,10.7,7.81,-9.03,2.78,-7.3,18.38,3.83,-2.88,-2.69,1.46,21
-16.22,-6.71,14.12,19.24,-30.03,1.03,-6.36,18.28,4.73,-0.34,-10.79,8.74,21
-13.68,-4.55,18.29,27.64,-69.92,12.5,-7.53,17.75,3.62,-0.88,1.95,2.1,21
-13.49,-6.47,15.06,28.56,-69.38,17.24,-7.73,17.18,3.58,-2.78,-1.03,7.18,21
-7.93,-3.59,17.29,82.52,-163.33,57.13,-6.76,17.14,4.48,-16.8,-11.28,12.5,21
1.66,5.15,25.67,37.4,-81.05,35.4,-3.49,21.96,5.53,-0.1,-17.33,7.13,21
-0.68,0.92,21.25,0.29,5.08,-0.39,-5.43,17.84,5.74,-5.62,-4.44,-5.71,21
-1.03,2.0,21.28,-1.27,-0.44,-1.95,-5.72,18.52,5.19,-2.83,-4.54,-2.83,21
-1.19,2.17,21.25,1.76,3.17,1.81,-5.67,18.5,5.3,-1.12,0.2,-1.03,21
-1.5,2.0,21.21,1.86,2.25,-0.39,-5.87,18.5,5.33,0.05,-4.44,-1.32,21
-10.97,-3.33,16.76,-64.89,103.37,-43.36,-5.88,19.08,5.91,2.29,2.64,12.45,22
-14.85,-6.86,12.7,-46.05,90.63,-14.5,-5.81,20.59,3.43,18.12,17.33,10.74,22
-16.57,-7.03,12.87,-27.25,53.27,-6.93,-5.38,20.28,3.51,13.13,21.73,-0.83,22
-17.23,-8.68,9.14,-17.97,21.34,-6.64,-5.68,18.5,4.27,7.08,10.16,3.56,22
-17.31,-8.38,9.69,-8.5,15.92,-2.29,-6.66,18.12,2.41,2.88,9.18,-2.88,22
-18.03,-8.72,10.23,-1.71,7.91,-1.66,-5.67,19.1,3.11,0.39,-1.51,-1.32,22
-17.91,-8.74,9.52,-3.56,6.1,1.27,-6.49,18.47,2.28,-1.42,6.59,-2.83,22
-18.52,-9.24,8.7,-4.1,8.74,-2.05,-6.03,19.28,2.56,-1.17,3.86,-1.03,22
-18.45,-9.12,7.58,-5.27,9.08,-1.71,-6.2,18.49,2.54,-4.59,3.13,-0.83,22
-18.61,-10.64,4.32,0.24,-3.08,-0.05,-7.38,17.1,2.3,-6.2,3.96,-1.71,22
-18.0,-9.16,9.42,14.01,-20.21,4.44,-7.4,17.08,2.7,-5.42,2.88,3.27,22
-19.07,-11.22,5.24,40.38,-104.54,35.45,-7.92,18.28,3.07,-16.26,3.52,15.92,22
-12.76,-4.16,15.25,76.42,-165.92,55.52,-4.42,20.35,4.49,-7.96,-10.84,0.83,22
-2.91,5.61,24.78,66.99,-149.9,72.85,-6.37,18.91,2.95,-4.3,-11.91,-0.34,22
-1.28,2.23,21.49,-1.32,-9.37,-0.59,-5.62,18.19,5.02,-15.04,-23.29,-3.42,22
-2.21,2.23,20.77,-2.44,2.83,1.37,-5.78,18.34,5.17,-4.69,-0.88,-2.1,22
-1.87,1.64,21.19,1.12,-1.66,-1.32,-5.41,17.32,6.11,-0.83,-8.84,4.3,22
-1.91,2.22,21.2,1.71,0.88,-1.81,-4.62,18.59,5.45,12.65,-7.32,9.52,22
-2.06,2.52,21.23,3.56,-0.54,-0.1,-3.9,19.16,4.24,14.94,-4.74,12.01,22
-2.4,2.84,21.19,1.51,-2.25,0.78,-3.46,20.05,4.09,-2.3,-0.88,1.32,22
1.57,-10.87,19.1,11.67,-4.64,6.05,-4.39,17.76,5.92,-0.83,5.52,0.73,23
1.56,-10.27,19.53,8.54,4.3,4.54,-4.25,18.46,6.0,-1.71,0.44,-0.93,23
2.04,-9.55,20.2,3.42,0.44,3.66,-3.83,20.2,5.42,-2.39,0.34,9.81,23
0.96,-9.86,20.45,24.02,1.9,-4.39,-3.58,19.87,7.25,-4.69,1.17,-3.17,23
0.73,-8.32,19.54,27.15,-1.22,5.71,-4.56,19.05,6.33,-8.64,13.48,-21.09,23
2.55,-9.53,21.48,46.39,-50.59,-11.18,-6.46,17.47,5.1,6.54,4.1,-0.39,23
0.28,-7.5,18.59,-42.14,27.64,4.49,-6.27,17.03,5.69,3.27,8.74,-5.27,23
1.01,-6.74,19.62,-6.1,10.06,12.45,-5.67,19.3,5.31,-11.28,1.76,10.25,23
1.55,-8.17,21.48,31.49,5.18,-1.76,-5.91,17.8,6.72,-11.47,-4.64,9.13,23
1.0,-7.87,20.86,3.37,26.71,8.01,-5.21,19.04,6.6,-2.88,-1.9,5.22,23
-0.82,-8.16,19.72,-2.34,10.79,6.3,-4.86,16.94,6.36,-0.34,0.59,10.25,23
0.88,-9.18,22.52,12.16,-13.53,4.54,-3.35,21.19,7.69,2.0,14.6,-12.4,23
-3.48,-4.62,18.48,26.56,2.29,-7.57,-6.03,17.54,5.93,7.13,7.91,-14.36,23
0.94,-7.72,22.19,-22.46,-17.72,-40.67,-5.88,17.61,6.68,9.91,-9.23,-6.2,23
0.77,-8.18,20.02,-29.59,-22.66,-34.86,-6.89,17.53,5.44,-0.63,-6.79,-4.15,23
0.71,-5.76,20.22,13.92,8.84,-22.41,-7.59,16.54,4.88,8.69,-12.21,-5.18,23
2.82,-5.23,23.18,4.83,28.37,-56.93,-6.79,18.57,4.7,22.27,-32.37,5.27,23
-1.33,-5.33,18.98,4.49,16.8,-13.04,-5.53,18.87,3.8,0.73,-21.04,-6.49,23
0.42,-6.13,19.38,12.84,-51.37,3.71,-5.28,18.49,5.32,-8.5,-5.13,7.37,23
3.24,-5.1,20.76,-0.39,4.64,-1.12,-4.29,19.41,6.01,-7.13,-17.68,1.95,23
-8.55,-6.57,15.85,-78.71,151.71,-63.04,-5.48,17.97,7.74,12.01,2.73,26.37,24
-12.52,-7.1,16.59,-21.97,96.58,-15.09,-4.57,20.89,6.78,28.12,5.62,13.43,24
-14.02,-8.19,14.03,-5.18,43.02,-4.74,-5.13,18.39,5.62,18.36,0.34,3.66,24
-15.91,-9.13,11.58,-5.57,31.49,-8.84,-5.79,18.23,4.72,7.08,3.42,-8.35,24
-16.19,-9.27,11.95,1.81,9.42,-5.91,-5.97,18.54,4.25,0.1,1.46,-5.03,24
-15.81,-9.05,12.73,4.59,-4.25,1.12,-5.84,18.65,4.36,-0.73,1.76,2.69,24
-16.9,-10.89,7.81,28.95,-56.3,9.03,-6.55,17.81,4.39,-16.31,-1.61,9.52,24
-3.74,-8.73,18.75,96.48,-274.66,34.38,-2.67,21.63,8.1,1.17,-22.27,17.14,24
5.64,5.76,27.65,38.04,-77.29,37.84,-3.52,21.06,5.82,-9.57,-13.87,-6.05,24
2.61,-1.54,20.96,-0.59,-1.86,2.2,-5.1,16.84,7.14,-5.66,-3.71,-1.46,24
2.3,0.51,21.07,-4.79,8.54,-9.23,-4.62,18.15,7.1,-8.94,-0.05,-5.81,24
1.75,-0.18,21.0,3.52,1.86,0.73,-4.94,18.69,6.7,0.15,-0.44,1.12,24
1.23,-0.51,20.94,-0.54,2.34,1.51,-5.47,17.15,6.98,-1.61,0.29,-2.88,24
1.76,-0.48,21.31,0.1,0.68,0.1,-5.06,18.4,7.11,-1.61,-0.2,-0.83,24
1.49,-0.39,21.2,1.51,-0.15,0.83,-5.23,18.24,7.01,-0.29,-0.34,-0.1,24
1.32,-0.37,21.15,-0.83,0.49,1.56,-5.45,17.86,6.99,-1.37,0.1,-2.69,24
1.54,-0.61,21.32,0.68,-0.54,0.49,-5.27,18.23,7.18,-0.59,0.2,0.1,24
1.38,-0.4,21.22,0.44,0.34,0.39,-5.27,17.89,7.29,-0.78,-0.29,-1.71,24
1.54,-0.68,21.49,-0.15,-1.22,0.24,-5.47,18.15,7.28,-0.98,-0.63,-0.68,24
0.94,-0.29,20.81,0.59,1.56,2.54,-5.72,17.34,6.89,10.89,0.15,0.15,24
-14.13,-7.03,16.0,-6.64,38.96,-6.3,-4.73,19.46,4.5,12.7,-4.49,-5.52,25
-16.26,-8.73,12.77,-6.69,29.69,-7.47,-4.41,19.72,5.23,5.32,-1.51,-5.86,25
-16.24,-9.05,12.07,-0.34,16.75,-5.86,-5.12,19.54,4.41,4.59,4.83,-3.42,25
-15.79,-10.01,13.5,3.22,4.69,-1.51,-5.16,18.47,4.93,0.54,3.76,4.54,25
-16.39,-10.13,12.95,1.07,-2.83,-5.96,-4.71,18.11,4.81,-2.73,11.04,-0.34,25
-16.36,-8.95,12.55,2.1,-4.49,-3.08,-5.74,18.81,3.37,-0.98,1.07,-3.42,25
-16.69,-8.09,12.28,4.2,0.2,-0.29,-6.01,18.54,3.45,-3.17,-0.34,-2.39,25
-17.02,-8.53,11.49,3.03,-2.0,0.15,-5.57,19.05,4.07,-1.61,0.24,2.73,25
-16.75,-8.62,11.8,4.05,-4.93,1.81,-6.08,18.6,3.78,-4.83,-0.68,2.49,25
-16.47,-8.81,11.68,5.47,-13.28,1.95,-5.96,17.58,4.04,-23.97,-0.15,15.63,25
-16.33,-7.47,9.28,44.34,-98.63,19.43,-4.72,17.87,6.25,-7.47,-2.98,-5.76,25
-1.63,-2.55,22.21,112.4,-256.2,77.73,-4.99,17.94,6.26,-14.31,-10.74,-2.39,25
2.08,1.33,23.41,14.16,-74.46,29.49,-5.2,18.59,6.25,-2.78,-5.18,8.79,25
2.27,0.57,21.16,6.15,-15.38,6.4,-5.14,17.86,6.42,-3.76,1.51,-3.32,25
3.13,0.94,21.01,-2.98,-0.83,2.98,-4.68,18.76,6.72,-1.61,1.61,-1.86,25
2.95,1.2,20.95,1.27,4.25,0.68,-5.24,17.95,6.48,-2.25,1.71,-1.61,25
2.06,0.33,20.42,-3.76,3.13,-0.59,-5.3,17.6,6.87,-2.83,-1.07,-4.44,25
1.31,0.98,21.47,-6.15,18.41,-5.13,-5.33,18.16,6.93,-1.03,0.24,0.83,25
0.59,-0.07,21.41,-0.34,2.69,-1.46,-5.77,18.37,6.74,-3.27,1.07,0.34,25
-0.36,-0.08,21.86,-5.52,16.21,-4.74,-5.38,17.53,7.1,-1.9,0.0,-1.42,25
1.38,0.49,21.19,-0.88,0.83,0.15,-4.76,17.84,7.08,-2.0,-0.49,-0.83,26
1.37,1.14,21.15,0.05,-0.24,0.0,-5.07,18.37,6.49,-0.2,-0.29,-0.78,26
1.66,1.03,21.2,0.93,-6.64,1.46,-5.0,18.6,6.51,-0.59,-0.73,0.29,26
1.47,1.36,21.27,0.93,-0.93,-0.59,-5.1,18.25,6.56,0.93,-1.61,-1.76,26
1.56,0.73,21.13,-0.05,-0.88,0.68,-4.95,18.1,6.83,-0.88,-0.68,-0.83,26
1.47,1.08,21.32,0.93,-0.34,0.59,-5.16,18.43,6.66,-0.2,-0.44,0.44,26
1.29,0.86,21.13,0.49,-0.44,0.68,-5.36,18.07,6.46,-0.98,0.1,0.49,26
1.31,0.72,21.19,0.24,0.15,1.61,-5.17,18.14,6.75,-1.32,1.03,0.0,26
1.19,0.85,21.1,-0.68,0.1,0.44,-5.21,18.35,6.48,-0.39,0.2,-1.17,26
1.28,1.19,21.28,-0.15,-0.44,1.03,-5.21,18.39,6.48,-0.59,0.54,-0.54,26
1.27,1.17,21.28,0.54,0.0,1.46,-5.34,18.15,6.43,-0.93,1.76,-0.63,26
1.46,0.68,21.26,0.73,-1.32,1.03,-5.3,18.03,6.63,-0.83,-0.05,-0.1,26
1.22,0.87,21.26,0.05,-1.03,0.88,-5.31,18.07,6.59,-1.12,0.49,-0.05,26
1.16,1.02,21.23,0.34,-0.44,1.61,-5.31,18.55,6.6,-0.93,0.93,0.63,26
1.0,0.42,21.1,-0.98,-0.34,0.2,-5.21,17.79,6.83,-1.22,-0.15,-1.61,26
1.2,1.03,21.29,0.05,-0.93,0.59,-5.35,18.42,6.44,-0.44,0.2,0.15,26
1.15,0.97,21.27,1.42,-1.32,0.59,-5.41,18.16,6.49,0.05,0.29,0.59,26
1.15,0.51,21.19,0.39,-0.78,0.78,-5.29,17.95,6.84,-1.07,0.24,0.0,26
1.17,0.58,21.23,0.29,-0.88,0.39,-5.32,18.03,6.72,-0.54,-0.29,-0.34,26
1.29,0.58,21.28,-0.15,-1.32,0.29,-5.42,18.17,6.56,-0.93,0.73,0.49,26
-5.6,-2.53,19.15,-67.19,189.16,-46.87,-5.54,18.45,7.48,1.12,6.64,-10.84,27
-13.55,-6.26,15.05,-39.55,87.99,-27.2,-6.27,17.46,7.75,-3.32,0.24,9.62,27
-16.37,-6.05,12.67,-14.99,45.65,0.24,-7.18,17.0,6.47,3.17,5.08,1.56,27
-16.73,-6.72,13.16,-2.2,34.13,-11.38,-7.15,18.26,5.39,9.67,10.84,-6.84,27
-17.27,-8.26,12.44,-3.76,28.13,-6.98,-6.3,19.78,6.17,5.57,9.96,-6.4,27
-17.91,-7.92,10.66,0.54,24.46,-6.74,-6.56,19.63,5.91,5.91,2.78,-2.98,27
-18.04,-7.36,11.88,6.84,6.49,1.95,-6.24,19.56,6.36,4.98,1.61,0.73,27
-17.77,-8.31,10.19,2.34,13.62,-2.29,-6.92,18.1,5.29,6.01,1.66,-4.83,27
-18.51,-8.28,9.33,3.17,7.08,-2.69,-7.48,17.99,5.21,3.52,0.1,-3.96,27
-18.54,-8.49,9.96,3.71,-0.49,0.63,-7.64,18.51,4.87,0.68,0.39,0.78,27
-18.6,-8.22,9.3,2.1,0.68,1.46,-7.81,18.27,4.84,0.78,2.05,-1.42,27
-18.4,-7.9,9.41,2.25,-1.17,0.44,-8.22,17.72,4.67,-0.88,1.17,-2.93,27
-18.73,-8.46,9.66,4.05,-5.66,-0.1,-8.37,18.21,4.6,0.39,-1.03,0.73,27
-18.16,-8.16,9.54,6.49,-9.28,2.69,-8.29,17.48,4.75,0.39,-1.32,1.71,27
-18.39,-7.35,10.04,5.81,-11.82,4.93,-8.37,17.64,4.58,-0.73,1.81,0.83,27
-17.65,-7.99,10.56,13.23,-30.52,8.69,-8.2,17.31,4.99,-4.05,-3.61,8.79,27
-17.18,-5.21,13.29,11.38,-25.34,8.3,-6.93,18.81,4.88,-1.76,-2.69,2.98,27
-14.64,-5.86,15.43,28.03,-69.78,23.49,-5.91,18.58,6.36,-1.51,-8.45,15.28,27
-8.45,-7.61,15.56,46.34,-204.0,43.02,-8.29,14.41,5.41,-10.84,3.47,10.5,27
-5.67,1.68,18.22,12.26,-85.45,31.35,-7.14,18.11,3.22,-9.13,-18.85,1.66,27
-2.71,-1.51,24.14,-28.32,89.79,-29.2,-5.04,19.26,6.23,2.98,-0.24,9.67,28
-8.19,-4.01,21.11,-45.17,110.16,-39.31,-5.26,17.11,5.38,6.05,1.12,1.95,28
-14.42,-4.28,15.03,-7.76,45.02,-9.08,-5.16,19.23,5.54,9.86,0.98,-12.65,28
-16.23,-7.52,13.24,-10.89,41.41,-16.21,-6.31,18.35,4.18,11.18,11.23,-12.74,28
-18.01,-8.67,10.34,-7.62,35.74,-11.04,-6.3,18.83,4.57,4.74,4.15,0.15,28
-17.88,-9.27,9.66,-0.0,17.04,-2.93,-7.4,16.89,3.59,0.24,6.15,0.34,28
-17.4,-9.37,8.67,0.54,3.13,-3.96,-6.7,17.91,3.65,-2.69,2.1,-0.68,28
-18.03,-9.05,8.34,1.37,-1.61,-1.27,-7.9,16.59,3.01,-5.91,4.98,-0.44,28
-17.85,-9.05,8.79,0.73,-4.05,-3.47,-6.6,18.48,3.93,-2.69,-0.05,-2.93,28
-17.94,-8.75,9.3,1.86,-3.56,-0.98,-6.64,18.36,4.17,-2.25,-0.24,1.22,28
-17.71,-8.44,10.85,6.35,-9.42,1.12,-7.17,17.22,3.74,-9.77,2.78,8.98,28
-17.31,-8.86,9.93,16.55,-43.55,5.62,-6.6,17.95,4.05,-7.86,1.86,-0.93,28
-16.98,-8.18,10.83,6.98,-32.18,6.1,-6.02,18.83,4.31,-2.59,1.37,-2.39,28
-16.78,-6.55,13.02,4.54,-16.46,7.08,-5.66,18.63,5.22,-1.81,-0.24,1.71,28
-14.4,-4.46,17.74,8.54,-17.68,8.01,-5.85,17.6,5.42,-3.61,-0.88,0.93,28
-14.35,-6.59,13.32,26.03,-74.95,21.39,-5.58,18.38,5.23,-3.13,-0.73,0.39,28
-8.09,-2.73,19.89,45.7,-106.54,41.06,-5.91,18.25,4.95,-4.59,-3.56,2.0,28
-5.2,-0.77,19.54,31.59,-77.05,34.03,-5.58,18.67,5.06,-0.78,-0.34,1.9,28
0.49,2.91,22.74,18.55,-59.81,28.71,-5.67,18.1,5.71,-2.93,-0.68,-1.32,28
0.84,1.39,20.91,3.86,-17.58,8.3,-5.02,18.82,6.16,-2.49,-1.66,2.05,28
-2.91,0.79,19.86,-37.7,83.98,-27.88,-5.36,19.08,5.75,7.96,2.88,4.25,29
-7.78,-1.92,19.65,-51.51,91.21,-39.89,-7.2,17.27,4.16,10.25,7.52,8.79,29
-12.85,-6.19,15.93,-29.0,88.48,-21.14,-6.3,18.1,3.21,15.14,9.33,-4.15,29
-14.59,-7.97,15.22,-5.91,48.39,-10.79,-5.95,18.22,3.73,11.62,12.65,-7.08,29
-16.84,-7.56,11.16,-12.84,44.14,-14.94,-7.28,17.63,1.91,1.42,10.35,-7.71,29
-17.75,-8.35,8.4,-9.72,31.49,-6.69,-7.27,17.78,2.32,-3.66,3.52,-0.59,29
-18.45,-9.0,5.66,-3.61,11.43,-5.32,-6.78,18.5,2.43,-3.13,0.34,-2.98,29
-18.17,-9.77,6.83,3.17,-5.22,1.22,-6.65,19.0,2.53,-3.17,-0.24,-2.2,29
-18.23,-9.38,8.17,1.27,-3.47,-2.49,-6.91,18.52,2.79,-1.37,0.05,1.22,29
-18.25,-8.31,9.79,3.42,-3.81,1.37,-7.26,17.78,3.09,-7.47,0.59,-0.05,29
-18.07,-8.77,9.24,5.13,-7.03,3.47,-6.94,18.53,2.89,-5.47,-0.68,3.17,29
-17.85,-9.33,9.52,5.76,-14.89,3.32,-6.85,18.26,3.18,-7.23,0.29,4.79,29
-17.86,-8.22,9.9,9.57,-22.02,4.54,-6.1,19.53,3.32,-6.05,-1.76,-0.1,29
-16.98,-7.44,11.54,14.94,-35.79,12.74,-5.96,19.99,3.68,-7.42,-5.03,5.42,29
-17.31,-7.46,10.79,18.21,-44.48,16.75,-6.48,17.82,4.03,-4.69,-2.93,9.08,29
-11.29,-3.54,16.76,54.3,-157.47,42.63,-4.92,19.68,5.3,-7.76,-2.34,-0.24,29
-3.58,2.72,22.12,49.32,-129.69,56.49,-5.25,18.57,5.88,-4.74,-5.27,2.05,29
0.77,3.0,22.87,13.96,-29.69,21.0,-5.21,18.53,5.72,-4.1,-3.08,-1.42,29
0.12,1.71,21.14,2.93,-0.73,3.13,-5.67,18.74,5.33,-1.17,0.05,0.63,29
0.22,1.47,21.19,-1.86,1.03,0.88,-5.69,17.97,5.66,-2.39,0.34,-1.61,29
3.7,1.05,20.59,-43.16,-19.68,60.84,-5.64,16.96,4.9,26.71,25.98,-2.0,30
5.61,-2.28,20.87,-42.68,1.07,35.6,-6.17,18.24,2.2,19.38,13.53,-6.79,30
2.95,-3.55,20.65,-27.59,5.96,27.39,-6.41,18.69,2.11,10.74,15.58,-17.09,30
3.22,-5.77,20.15,-4.93,-4.69,16.41,-7.24,18.85,0.83,3.61,11.08,-5.37,30
3.64,-7.56,19.79,-19.38,-16.02,7.71,-7.17,17.61,1.91,5.42,6.35,1.56,30
3.97,-8.48,19.87,-12.55,-8.54,6.98,-6.44,19.68,1.56,-2.15,2.0,-19.87,30
2.86,-8.76,19.87,-22.41,19.68,10.25,-7.29,19.14,2.01,-2.69,-2.44,-14.99,30
0.69,-9.34,18.19,-0.73,16.26,14.45,-7.97,19.24,1.42,-5.47,1.56,3.96,30
0.54,-11.1,18.62,-3.91,-3.03,9.18,-8.02,18.5,1.35,-3.32,-2.15,2.98,30
1.63,-8.96,19.86,-22.27,7.86,7.23,-7.62,18.4,2.5,-6.64,-5.76,6.25,30
1.27,-10.37,19.15,-11.62,-1.66,-0.73,-7.53,18.25,2.13,-7.91,-8.01,11.77,30
1.15,-11.24,18.76,-7.86,8.35,-1.42,-8.04,16.35,2.13,-3.56,-7.03,19.63,30
1.44,-11.39,18.73,6.93,7.37,-2.88,-6.43,17.14,2.53,-9.08,-2.69,18.95,30
0.29,-10.74,18.78,-2.44,6.54,-1.86,-5.49,18.0,3.2,-23.14,-8.54,9.42,30
1.49,-11.45,19.79,5.71,7.57,2.49,-1.65,20.59,5.92,-12.74,-15.04,16.16,30
1.26,-10.13,21.2,52.29,14.89,-0.05,-2.85,19.5,5.71,-3.66,-2.59,-1.66,30
-2.41,-3.42,20.76,62.45,103.81,-20.12,-4.24,18.32,5.04,-4.59,6.93,-14.84,30
-3.21,-10.28,22.25,-40.53,14.65,-43.41,-3.77,17.89,5.9,-7.37,1.17,-0.98,30
-8.28,-7.13,16.65,-28.27,57.13,-32.67,-3.91,18.9,6.09,-2.1,-4.79,1.46,30
-11.02,-12.2,13.23,-16.85,46.29,-5.42,-3.85,18.78,5.89,1.71,-6.98,-1.76,30
-0.5,-7.71,20.52,74.61,12.4,0.49,-7.48,18.26,5.27,4.74,-6.64,-1.46,31
-1.3,-4.89,20.37,22.31,4.54,-3.81,-8.34,17.66,4.52,2.34,-5.47,-4.74,31
-0.76,-5.57,20.62,-6.3,-18.85,5.91,-8.62,17.99,4.12,3.47,1.51,-6.69,31
0.07,-5.71,21.2,12.65,-2.98,11.52,-8.34,17.4,4.33,4.78,0.15,0.0,31
-0.38,-3.89,20.97,46.53,22.46,9.42,-8.57,17.14,4.18,-4.98,-0.34,5.76,31
-2.47,-1.34,20.61,19.14,24.07,6.25,-8.61,17.72,3.21,1.86,1.37,6.25,31
-3.13,-2.1,20.76,-8.11,9.62,16.31,-7.83,18.7,4.42,1.42,3.32,-1.66,31
-2.7,-1.64,21.72,27.78,0.44,14.6,-8.09,17.68,4.22,-0.98,0.39,2.59,31
-2.66,0.34,21.01,9.03,-5.66,4.64,-8.17,18.12,4.21,-2.73,-2.2,2.1,31
-2.5,-0.83,21.36,-51.32,-4.49,-24.17,-8.02,18.23,4.54,3.71,-11.91,2.2,31
-1.43,-3.44,21.31,-28.03,-0.93,-30.91,-7.72,18.37,5.16,-0.49,-4.69,-0.54,31
-1.87,-6.46,20.68,-20.8,9.86,-21.53,-8.29,17.26,4.04,2.64,-20.21,6.1,31
-1.56,-5.42,21.28,2.88,-10.35,-2.05,-7.9,17.72,3.85,4.2,-10.94,-0.39,31
-1.73,-5.81,21.28,-13.57,11.38,-12.7,-8.62,18.16,2.29,12.6,-17.04,-4.1,31
-2.99,-5.45,20.61,-5.66,11.28,-15.87,-8.28,18.75,2.57,3.03,-27.64,-2.98,31
-2.74,-6.52,20.83,-2.2,3.13,-19.82,-6.84,16.01,5.77,-2.59,-53.08,12.94,31
-2.82,-6.9,19.62,0.59,-4.69,-34.42,-5.22,18.27,6.02,-10.64,-30.91,20.56,31
-1.36,-6.05,20.12,10.6,-9.18,-20.56,-3.59,18.98,5.73,-8.84,-13.82,26.37,31
1.2,-7.95,21.2,0.78,-22.31,-16.99,-2.0,18.66,6.92,-0.98,-10.55,15.23,31
1.94,-8.1,20.77,3.37,-10.89,-10.16,-2.15,17.9,6.88,-1.03,-10.06,3.56,31
-1.1,-5.37,19.17,-36.33,123.97,4.44,-3.02,17.58,6.09,1.12,9.42,-8.25,32
-5.93,-7.91,19.45,-60.94,111.38,-15.72,-3.29,17.55,5.44,12.94,13.28,9.18,32
-11.75,-9.51,15.37,-41.26,72.56,12.16,-1.06,21.76,4.69,26.32,-1.61,7.67,32
-12.35,-9.71,14.13,-10.99,41.11,-0.15,-0.59,20.59,5.3,16.21,1.86,1.22,32
-15.54,-8.91,12.57,-12.7,49.51,0.24,-1.53,20.44,4.33,9.28,-4.88,-7.03,32
-16.23,-10.32,11.06,-2.39,22.85,2.0,-2.33,19.78,3.94,0.68,-4.88,2.64,32
-15.62,-10.39,11.39,0.39,3.22,1.37,-2.78,19.69,2.89,0.15,-1.81,-0.83,32
-16.08,-10.25,9.95,-2.54,6.15,0.73,-3.24,19.26,2.61,-0.83,-2.25,1.12,32
-15.67,-10.73,11.7,-0.59,2.15,0.83,-3.18,19.58,2.8,-1.22,-4.49,-3.52,32
-16.05,-10.59,10.3,0.73,0.29,0.73,-3.15,19.54,3.3,-3.76,-0.78,-1.42,32
-15.53,-11.06,11.36,-1.32,-0.73,1.27,-3.8,19.21,2.54,-3.13,-0.2,-1.71,32
-15.67,-11.17,11.21,0.73,1.12,0.49,-3.49,19.39,3.42,-1.12,-1.46,0.24,32
-15.42,-11.14,12.42,4.3,-4.1,-2.64,-4.33,18.13,2.79,-6.88,2.05,-4.2,32
-15.78,-10.38,10.04,8.74,-17.19,-4.64,-3.49,18.31,3.38,-1.07,3.42,2.25,32
-14.99,-10.62,13.34,11.91,-31.45,1.42,-2.7,20.44,3.89,0.83,-2.39,5.08,32
-14.01,-9.55,13.02,18.75,-40.62,3.71,-2.49,20.21,3.92,-4.39,0.78,-3.66,32
-9.44,-6.44,16.22,70.51,-137.01,10.4,-4.13,18.78,3.25,0.68,-1.51,2.39,32
1.93,-1.58,24.92,58.25,-151.56,8.89,-3.24,18.85,5.04,-10.5,-2.98,-5.42,32
1.07,-2.9,19.91,-0.49,-9.33,0.2,-3.67,19.06,4.33,-6.54,-6.45,0.29,32
2.48,-2.17,21.45,2.78,-6.01,2.39,-3.83,18.78,4.61,-4.2,-7.28,-1.9,32
-0.01,-4.18,24.4,-27.39,80.47,1.17,-2.87,20.01,4.62,16.45,-4.54,10.55,33
-5.78,-5.87,22.57,-46.88,96.48,-7.81,-2.67,20.37,3.84,11.18,-5.03,-6.59,33
-12.75,-9.12,14.79,-49.9,88.43,-2.39,-4.16,18.73,2.17,3.03,0.83,-5.57,33
-12.71,-10.6,16.36,-9.77,50.44,8.4,-4.28,17.73,3.02,-0.54,2.98,-2.15,33
-15.42,-9.6,11.4,-7.91,37.16,0.88,-4.42,18.81,2.53,-5.27,8.11,0.29,33
-16.25,-11.43,11.1,-15.72,35.69,-10.35,-4.09,19.61,3.06,-2.73,-1.12,-4.59,33
-16.99,-12.33,10.14,-4.49,13.18,-3.17,-3.61,18.47,3.74,-2.34,-0.98,-5.71,33
-15.68,-11.92,10.74,0.54,-0.88,-2.83,-3.41,20.01,3.26,-0.88,-0.78,-1.42,33
-15.53,-12.2,10.3,1.9,-7.03,-4.74,-4.03,18.38,3.84,-0.29,5.71,-1.37,33
-16.64,-11.84,8.09,5.18,-9.52,-3.17,-5.17,16.87,3.42,-10.94,3.47,7.08,33
-16.46,-11.49,10.72,0.44,0.73,0.1,-3.95,19.59,3.23,-7.62,0.59,17.09,33
-16.45,-10.69,9.98,6.3,-7.76,5.86,-2.69,19.91,3.39,-0.49,0.93,5.86,33
-15.45,-11.72,10.2,26.42,-52.15,4.54,-3.04,19.19,4.14,-6.79,-5.52,-4.93,33
-11.06,-9.16,14.04,77.83,-163.87,-14.36,-3.3,19.28,4.28,-2.3,-2.2,-2.98,33
2.47,-1.41,25.96,92.28,-180.22,20.02,-3.53,19.0,4.33,-0.93,-1.56,-3.52,33
0.29,-3.07,19.35,5.08,-5.13,3.76,-3.85,18.56,4.66,-1.81,-2.29,-3.52,33
1.62,-2.32,20.35,9.28,-13.82,5.52,-3.79,18.55,4.71,-3.81,-1.12,-2.69,33
3.6,-1.17,21.89,6.64,-6.1,2.88,-3.92,19.03,4.57,-2.78,-0.83,0.0,33
3.17,-1.27,21.17,1.66,-1.51,0.39,-3.95,19.09,4.59,-1.86,0.15,-0.63,33
2.98,-2.11,20.71,-1.71,0.1,-1.46,-4.0,18.99,4.87,-0.78,-0.54,-0.1,33
-13.71,-9.53,13.72,-6.93,34.08,-7.91,-2.89,19.65,4.82,0.73,-5.18,1.03,34
-14.49,-10.94,14.65,-3.13,38.28,-1.61,-2.94,20.53,4.15,10.69,-4.35,0.88,34
-16.04,-13.23,12.51,-8.06,27.54,-2.05,-4.51,19.42,3.77,4.88,-1.81,-2.93,34
-15.23,-11.64,13.62,-4.25,11.72,4.69,-2.9,20.6,5.46,3.81,-4.49,-2.54,34
-15.24,-13.97,11.28,6.98,-2.59,-3.27,-4.29,18.63,4.99,-3.37,-1.46,3.86,34
-16.9,-10.86,7.43,4.25,-0.73,-7.32,-5.43,18.53,3.62,-7.91,-1.32,-5.18,34
-16.53,-11.54,7.73,-0.2,-5.18,-4.1,-5.72,17.61,3.84,-8.25,2.59,-0.93,34
-16.41,-11.71,7.92,-0.0,-4.88,3.08,-5.71,18.09,4.75,-2.78,4.59,-0.83,34
-16.01,-12.19,6.99,1.03,-5.62,-5.71,-5.66,16.99,4.49,-8.64,0.63,-7.23,34
-15.73,-11.5,9.36,0.93,-2.54,-3.81,-5.05,18.36,4.35,-5.71,0.83,-6.49,34
-16.26,-11.47,9.21,2.15,-3.76,1.03,-4.94,18.75,4.83,-1.03,0.24,1.27,34
-15.6,-12.15,10.9,5.18,-3.08,-0.05,-4.99,19.07,4.84,0.15,-0.44,-0.24,34
-15.03,-12.57,10.73,4.25,-5.71,-0.15,-4.92,18.5,5.3,-0.88,0.73,2.25,34
-15.02,-12.22,10.82,2.34,-11.67,1.37,-4.99,17.96,5.12,-1.51,2.69,3.61,34
-14.39,-11.49,10.0,53.08,-82.86,24.46,-4.22,18.48,6.35,9.96,24.66,0.88,34
-8.08,-8.04,16.85,96.09,-190.92,10.01,-5.46,18.84,3.6,-4.49,15.38,2.2,34
2.13,-1.58,25.69,36.52,-86.77,11.38,-4.21,19.98,4.04,0.78,-3.81,11.91,34
0.62,-3.01,21.32,1.71,-12.06,0.0,-4.5,18.58,4.49,-4.44,-2.98,2.39,34
0.54,-2.89,21.03,-2.39,-0.78,3.47,-4.39,18.88,4.47,-0.93,8.25,0.29,34
0.6,-2.9,21.13,0.39,0.78,0.83,-4.36,19.15,4.51,-2.25,-1.66,0.68,34
-13.98,-9.35,14.92,-27.44,63.72,0.88,-5.96,17.96,3.7,-4.88,2.34,2.73,35
-14.46,-12.57,12.28,-16.85,70.95,0.88,-5.69,18.09,3.77,-10.69,14.36,3.22,35
-17.59,-9.79,4.06,-17.24,45.12,8.25,-6.02,17.89,3.13,-6.1,12.89,7.62,35
-17.34,-11.71,8.07,2.83,5.42,-2.78,-5.02,20.27,3.8,-1.71,12.84,4.15,35
-17.6,-12.76,8.83,2.98,-2.64,-1.46,-5.19,18.91,3.49,-7.13,-7.37,2.59,35
-17.63,-10.89,7.13,3.71,0.2,-1.76,-4.53,19.48,4.5,-1.42,-11.43,2.44,35
-17.3,-11.77,6.78,2.0,-1.9,1.03,-4.79,18.92,4.71,-1.12,-4.0,0.24,35
-17.24,-12.32,5.88,1.51,-4.49,-2.29,-4.77,18.74,4.68,-1.07,0.44,-1.32,35
-17.66,-11.63,6.94,1.37,-1.81,-0.54,-4.78,18.91,4.74,-1.51,-0.73,-1.12,35
-17.2,-11.42,7.47,3.56,-5.47,-3.03,-4.76,18.81,4.95,-0.49,-1.17,0.34,35
-17.46,-11.35,7.82,2.2,-4.3,4.44,-4.87,18.52,5.19,-1.71,-1.46,-1.37,35
-16.85,-11.66,8.52,7.86,-9.77,-2.2,-4.94,18.72,4.86,-1.12,0.0,-0.54,35
-16.17,-12.39,9.46,11.28,-16.99,0.88,-5.05,18.82,4.56,-0.59,1.46,-2.29,35
-16.17,-13.06,11.48,16.7,-31.05,5.57,-4.63,18.26,5.2,-1.71,0.68,2.69,35
-12.65,-9.73,14.26,76.42,-131.25,8.94,-4.91,18.84,4.61,-0.24,2.29,3.42,35
-5.1,-4.41,19.69,75.1,-189.94,14.75,-4.71,18.79,4.65,3.17,-0.44,6.79,35
1.01,-2.78,22.59,15.38,-49.27,2.98,-4.61,18.46,4.57,-1.95,0.83,-1.32,35
2.83,-1.8,22.33,0.15,-7.18,-0.29,-4.46,19.05,4.61,-0.98,1.66,2.2,35
1.96,-2.42,21.33,0.29,-0.83,-0.34,-3.32,19.48,6.56,1.32,-8.01,1.95,35
1.58,-2.64,20.95,-0.05,1.81,1.17,-4.04,19.18,4.87,0.15,-1.37,1.46,35
-5.04,-8.53,19.63,-44.73,88.23,-11.43,-4.38,17.11,5.58,1.51,-5.96,5.47,36
-9.21,-8.05,18.56,-53.42,84.52,-2.39,-3.8,19.14,4.92,0.29,-1.27,2.64,36
-11.02,-11.71,17.27,-17.97,53.56,20.07,-2.8,20.21,4.66,1.86,-8.5,-12.3,36
-14.13,-9.38,14.46,-12.94,33.94,-0.83,-3.68,20.42,4.05,10.6,-7.18,-1.37,36
-15.53,-12.06,11.67,-17.77,53.56,0.83,-5.02,19.8,3.58,8.69,1.27,-14.6,36
-17.64,-9.26,7.95,-3.52,29.3,10.21,-6.13,18.41,3.3,0.63,-1.66,-9.77,36
-17.22,-10.51,5.44,1.32,-0.49,-1.32,-6.52,16.81,2.77,0.68,9.91,7.03,36
-17.57,-10.84,6.07,-4.69,5.76,-7.37,-5.72,17.66,3.55,-7.42,0.29,-1.37,36
-16.92,-12.68,7.37,4.69,-7.03,-5.42,-5.83,18.02,3.44,-13.62,-5.52,3.37,36
-16.85,-12.44,8.44,4.15,-5.96,-2.64,-5.92,17.76,4.41,-5.76,-3.47,-2.0,36
-16.58,-12.05,9.85,4.44,-4.64,1.9,-5.3,19.91,4.12,1.37,-1.86,3.61,36
-16.27,-12.1,9.59,6.64,-8.11,3.52,-5.3,18.54,4.49,-0.39,-0.44,0.68,36
-16.44,-11.11,9.97,3.91,-6.98,0.68,-5.45,18.76,4.23,-1.81,1.27,-0.44,36
-16.48,-11.06,10.08,9.37,-21.48,-3.37,-5.49,18.59,3.93,-0.93,1.66,0.63,36
-15.15,-12.18,11.71,14.5,-29.49,-5.86,-5.12,19.1,4.62,-4.1,0.73,3.17,36
-11.28,-10.6,16.43,81.15,-126.46,-5.96,-5.16,19.13,4.62,-0.39,4.69,18.8,36
-6.1,-6.98,20.82,53.37,-114.75,2.78,-4.55,19.41,3.93,-3.27,3.96,5.66,36
-4.16,-5.32,22.76,9.67,-19.29,-2.69,-5.31,19.71,4.43,-5.91,-6.2,7.18,36
-4.06,-6.7,20.54,-0.68,-6.74,3.71,-4.24,18.42,4.9,-2.93,5.57,1.42,36
-3.21,-6.27,20.89,9.18,-29.49,2.54,-4.2,18.68,5.22,-0.63,0.78,5.13,36
-5.47,-6.42,19.12,-25.93,46.19,-1.27,-4.37,18.5,5.21,-0.39,-0.39,1.42,37
-6.7,-8.14,19.36,-38.92,65.09,0.15,-4.54,17.97,4.92,-0.78,0.98,-0.24,37
-9.32,-11.41,20.17,-39.84,65.82,-0.24,-4.12,20.04,4.9,8.54,-5.52,2.1,37
-14.82,-12.22,12.44,-33.98,52.78,-4.98,-5.82,19.59,2.74,16.55,3.86,4.49,37
-14.99,-11.11,10.21,-8.98,40.87,1.42,-6.0,17.39,3.02,7.03,9.33,-2.44,37
-15.9,-11.17,7.63,-13.97,28.71,3.71,-7.04,16.61,1.19,20.26,7.37,3.96,37
-16.96,-11.77,9.26,-0.29,12.5,2.59,-4.29,19.85,2.89,10.55,0.15,-1.07,37
-18.08,-10.71,5.11,-1.07,3.66,0.93,-5.95,17.87,1.03,-2.78,2.59,-2.49,37
-18.11,-10.59,5.34,-1.71,2.59,0.2,-5.76,16.71,1.44,-5.66,4.05,-4.54,37
-17.46,-10.76,8.2,2.64,-3.37,-1.95,-5.35,19.22,2.04,-6.69,-1.86,-2.64,37
-17.53,-11.23,7.88,3.03,-1.17,0.88,-5.07,18.85,2.86,-4.59,-1.71,-1.9,37
-17.33,-11.31,8.17,0.83,-2.54,1.03,-5.44,18.43,2.73,-3.96,0.15,-1.51,37
-17.48,-10.96,8.11,2.44,-1.61,-1.56,-5.5,19.23,2.4,0.1,-0.98,-2.0,37
-17.04,-11.63,8.34,4.88,-7.52,-0.39,-5.69,18.37,2.36,-1.37,0.68,0.54,37
-17.45,-10.83,8.15,15.53,-32.67,-0.44,-5.55,17.87,2.54,-2.15,0.49,4.3,37
-13.91,-10.24,10.56,73.78,-138.04,7.57,-3.44,20.77,4.66,-16.06,-3.03,22.07,37
2.28,-3.86,23.45,109.72,-300.05,16.65,-5.7,17.58,1.99,-11.38,-1.22,1.86,37
1.9,-3.65,21.23,-5.57,-7.96,-0.1,-5.14,17.72,4.62,-8.98,-4.59,-5.03,37
2.21,-2.65,21.18,-5.37,5.62,8.45,-5.51,18.79,3.88,-16.99,6.88,-10.69,37
1.82,-3.12,21.15,0.24,2.05,-1.27,-4.56,18.78,5.54,-3.37,-4.1,-5.71,37
-8.53,-11.15,16.55,-22.17,21.63,0.2,-5.12,18.32,5.41,-0.0,-2.29,2.05,38
-9.43,-12.31,15.34,-21.92,30.13,0.1,-5.04,18.66,5.31,1.17,-0.54,4.05,38
-10.59,-12.95,14.08,-14.11,27.05,-0.1,-4.84,18.15,5.32,1.66,-0.93,0.29,38
-11.11,-13.61,14.86,-12.89,18.21,-1.03,-4.97,18.56,4.91,-2.39,0.83,-0.24,38
-11.84,-13.51,13.29,-1.22,4.83,0.59,-4.73,18.02,5.39,-1.22,0.73,-1.95,38
-11.29,-14.21,14.0,-2.88,4.54,-0.34,-4.55,19.19,5.44,-2.59,-0.78,-0.73,38
-12.01,-13.81,12.48,-0.39,2.98,-0.05,-5.04,19.56,4.92,-1.12,-0.2,-0.05,38
-11.45,-14.13,13.36,0.78,-2.05,-3.17,-5.03,18.51,5.24,-1.47,-0.05,-0.2,38
-11.61,-13.64,13.18,-0.83,-1.61,-2.88,-5.02,18.85,5.4,-0.34,-0.1,0.15,38
-11.33,-13.76,13.31,-0.1,-0.93,-1.07,-4.87,18.72,5.63,-0.0,-0.88,0.63,38
-11.88,-13.66,13.15,-5.08,5.62,0.73,-5.15,18.59,5.76,-1.22,-0.29,-2.05,38
-11.87,-13.88,12.78,-4.74,12.35,2.73,-5.52,17.88,5.04,-1.07,1.32,-0.1,38
-11.89,-14.31,11.41,-2.34,5.32,2.39,-5.3,19.07,5.17,-0.73,0.68,1.76,38
-12.54,-13.94,11.93,-1.71,2.73,0.34,-5.4,17.31,5.34,-1.71,1.95,1.86,38
-12.11,-13.88,13.12,-2.98,3.52,1.03,-5.68,18.21,5.2,-0.93,2.29,1.86,38
-11.98,-14.37,13.54,2.93,-2.44,1.37,-5.72,18.02,5.04,-0.59,1.37,-0.68,38
-12.61,-13.71,11.64,4.93,-6.3,0.05,-5.18,18.3,5.58,-0.78,-0.29,-0.34,38
-12.54,-14.16,11.48,3.42,-4.83,0.05,-5.09,18.63,5.67,-1.71,0.63,-0.98,38
-12.28,-14.2,11.98,1.86,-1.86,-0.05,-5.18,18.0,5.81,-2.34,-0.1,-1.76,38
-11.9,-14.13,12.08,-0.15,0.78,1.66,-5.24,19.24,5.34,-0.05,-0.24,-1.07,38
-8.08,-12.46,15.91,-23.83,16.02,2.59,-6.18,18.16,6.11,-1.22,0.98,0.68,39
-8.01,-13.27,15.85,-18.31,12.11,-4.44,-6.3,18.37,5.61,-0.05,1.37,0.93,39
-8.47,-14.48,14.28,-23.73,25.1,0.44,-6.38,18.25,5.48,-1.17,1.07,0.15,39
-9.87,-15.06,13.38,-21.83,35.6,-0.83,-6.21,18.18,5.9,-0.2,0.83,1.07,39
-11.95,-15.0,10.46,-11.52,15.48,0.68,-6.26,18.19,5.81,-0.49,0.88,1.71,39
-11.06,-14.96,11.7,1.12,3.08,1.46,-6.12,18.13,5.85,1.07,0.98,1.22,39
-11.38,-15.1,11.78,-1.42,1.9,2.0,-5.95,18.95,5.68,1.07,0.54,0.68,39
-11.66,-14.64,11.17,-4.64,5.96,0.44,-5.89,17.98,6.05,-0.68,0.49,-0.63,39
-11.29,-15.1,12.08,0.59,-1.27,0.83,-6.12,18.4,5.51,-0.15,1.03,0.88,39
-11.51,-15.29,11.35,0.98,-1.37,-0.39,-6.08,18.25,5.69,-0.1,0.39,0.05,39
-11.57,-15.01,11.44,3.03,-2.93,0.98,-6.11,18.31,5.51,-0.24,0.73,0.05,39
-11.36,-15.23,11.29,-0.24,1.51,2.83,-6.05,18.25,5.6,-0.2,0.59,0.29,39
-11.42,-15.11,11.35,1.27,-0.05,2.64,-5.96,18.24,5.76,-0.88,0.24,0.1,39
-11.64,-14.88,11.54,1.27,-2.39,0.15,-6.1,18.41,5.49,-0.39,0.93,0.2,39
-11.56,-14.88,11.67,1.42,-1.03,2.29,-5.91,18.59,5.89,-0.73,-0.24,0.68,39
-11.51,-15.05,11.57,0.83,-0.44,0.34,-6.06,18.0,5.53,-0.63,0.24,-0.05,39
-11.6,-14.83,11.67,3.17,-2.78,2.05,-6.01,18.56,5.62,0.1,-0.24,0.05,39
-11.35,-14.96,11.87,3.08,-3.22,1.03,-6.07,18.57,5.58,-0.24,0.83,0.05,39
-11.33,-14.97,11.47,3.76,-4.54,0.39,-6.35,18.39,5.15,-0.54,0.63,-0.63,39
-11.37,-14.75,12.03,2.88,-4.1,0.73,-6.18,18.5,5.48,-0.63,0.59,-0.2,39
-0.36,-4.2,22.86,-73.14,114.7,-14.65,-6.73,17.92,5.48,-5.81,1.12,7.18,40
-8.62,-13.83,13.24,-166.75,172.51,-1.9,-6.6,16.89,6.22,-11.13,3.32,8.11,40
-13.05,-12.61,10.26,-46.19,58.25,-26.17,-6.67,17.6,5.09,-3.37,7.47,-7.47,40
-13.0,-15.11,9.41,-7.86,18.8,1.42,-6.33,19.52,5.08,1.95,2.2,-2.93,40
-12.42,-14.99,12.12,2.39,-1.71,-0.44,-6.16,18.29,5.58,-1.51,0.73,-3.96,40
-12.31,-14.65,11.7,7.37,-7.37,2.78,-5.64,20.25,6.09,1.07,-2.05,-0.93,40
-12.15,-15.11,10.96,7.08,-8.64,1.22,-5.91,19.39,6.15,2.1,-0.34,2.1,40
-12.71,-14.8,10.28,2.25,-3.66,1.51,-6.37,18.59,6.13,2.34,-0.15,2.59,40
-12.71,-14.63,10.94,2.59,-3.47,0.34,-6.36,18.02,6.4,-0.24,0.15,-0.68,40
-12.76,-14.44,11.33,0.34,-0.88,0.73,-6.41,17.97,6.33,-2.2,0.54,-0.34,40
-12.88,-14.24,11.24,2.25,-2.73,0.68,-6.52,17.92,6.11,-1.12,1.27,-0.83,40
-12.53,-14.56,11.78,-0.05,-0.34,-0.24,-6.25,18.49,6.2,-0.2,0.0,0.49,40
-12.26,-14.53,12.04,3.52,-4.83,0.83,-6.22,18.58,6.36,-0.83,0.24,-0.68,40
-12.61,-14.06,11.57,1.17,-1.07,1.46,-6.63,17.9,5.8,-0.39,0.83,-0.05,40
-12.51,-14.44,11.97,2.93,-2.49,1.03,-6.56,17.52,5.95,-1.07,1.32,-1.71,40
-12.51,-14.19,11.55,4.05,-4.69,-0.2,-6.58,18.17,6.03,-0.44,0.83,0.54,40
-12.5,-14.26,11.35,4.98,-5.52,0.73,-6.52,17.43,6.23,-0.54,1.12,0.24,40
-12.67,-14.45,10.78,5.91,-9.37,1.95,-6.64,16.99,6.5,0.2,2.29,5.66,40
-10.29,-12.92,15.98,61.77,-64.36,10.84,-5.95,19.1,5.88,5.96,4.15,1.9,40
-5.55,-5.24,17.23,148.49,-182.91,31.1,-5.94,19.02,5.7,6.25,3.61,2.49,40
-12.26,-13.57,12.34,-37.74,59.42,-13.33,-5.26,19.14,5.35,4.74,-1.9,-6.64,41
-13.76,-13.3,11.15,-9.86,22.61,-1.03,-6.22,18.29,5.15,1.42,-2.1,-4.0,41
-13.42,-14.69,12.02,3.03,2.49,0.63,-6.65,17.96,4.91,-1.61,-0.54,4.59,41
-13.78,-13.81,10.95,-1.61,0.1,1.86,-6.49,17.73,4.98,-3.56,0.1,-1.17,41
-14.38,-13.22,10.09,-0.49,-3.37,0.68,-6.21,17.88,5.15,-3.56,1.42,-2.44,41
-14.1,-13.36,10.66,1.51,-2.44,-0.2,-6.36,18.47,4.99,-1.42,-0.1,-0.1,41
-13.78,-13.12,11.15,1.37,-3.03,0.83,-6.35,18.48,4.93,-1.32,0.39,-1.03,41
-13.7,-13.79,11.04,4.2,-6.79,-1.66,-6.31,18.42,5.22,-1.86,1.22,1.51,41
-13.52,-13.49,11.66,4.54,-10.45,-0.59,-6.28,18.58,5.22,-2.15,0.68,0.93,41
-12.45,-13.45,12.97,7.37,-13.87,-2.69,-6.36,18.46,5.2,-2.54,1.66,0.1,41
-12.53,-12.94,12.57,11.91,-14.4,4.44,-6.24,18.68,5.51,-0.49,0.49,1.86,41
-12.04,-12.62,14.51,5.76,-9.33,0.78,-6.3,17.98,5.52,-2.3,1.12,0.63,41
-12.28,-12.59,13.93,2.49,-3.71,0.78,-6.3,18.28,5.54,-0.98,0.39,0.34,41
-12.43,-12.56,13.6,0.2,-0.73,0.59,-6.44,18.07,5.3,-0.83,0.2,-0.1,41
-12.42,-12.64,13.39,0.34,-0.34,1.51,-6.33,18.27,5.82,-1.07,-0.24,0.39,41
-12.41,-12.69,13.38,0.44,-1.22,0.24,-6.39,18.1,5.6,-1.22,0.29,-0.2,41
-12.24,-12.51,14.02,0.15,0.0,1.32,-6.4,18.07,5.58,-0.98,0.29,-0.54,41
-12.66,-12.42,12.9,34.57,-22.51,22.12,-6.23,18.01,6.09,-2.78,-0.73,0.44,41
-7.92,-7.93,15.77,130.76,-164.79,3.52,-6.1,19.4,5.81,3.95,3.91,4.83,41
3.67,-0.43,26.43,45.75,-102.73,25.24,-6.94,18.67,4.59,0.49,5.91,-2.73,41
-10.06,-12.38,13.15,-127.3,96.29,6.25,-5.93,18.09,6.37,11.72,1.32,-11.13,42
-11.92,-15.16,10.97,-28.61,55.66,7.28,-6.92,18.28,4.99,3.32,-4.64,2.39,42
-13.92,-14.47,7.52,0.93,17.72,9.62,-6.63,19.21,3.88,-0.63,1.81,-3.52,42
-12.93,-14.68,9.51,0.2,0.63,0.98,-6.1,20.03,4.99,-0.29,-0.88,2.54,42
-12.93,-14.9,10.91,-2.34,2.15,1.46,-6.71,19.18,4.59,0.34,-0.88,-0.93,42
-13.63,-14.47,9.24,-0.39,-1.17,2.88,-6.99,18.27,4.7,-2.44,0.93,1.76,42
-12.78,-14.64,10.33,5.62,-8.59,1.37,-6.98,18.49,5.07,-1.66,-0.15,0.15,42
-13.47,-14.67,8.7,2.88,-3.71,2.34,-6.88,18.16,5.01,-1.47,-1.61,-1.32,42
-13.14,-14.85,9.62,4.15,-5.71,-1.37,-6.69,18.3,4.98,-0.59,0.24,-0.93,42
-12.99,-14.91,10.08,0.59,-0.88,0.49,-6.79,17.99,5.08,-1.47,1.37,0.1,42
-12.95,-14.94,10.09,1.51,-2.0,0.29,-6.56,18.44,5.53,-1.27,-1.03,-1.22,42
-13.16,-14.87,9.59,-0.24,-1.76,-0.15,-6.76,18.18,5.15,-1.51,0.39,-0.1,42
-12.99,-14.92,10.28,-0.2,-1.51,-0.24,-6.68,18.47,5.23,-0.88,0.83,-1.71,42
-13.23,-14.56,9.94,-0.44,-0.39,0.83,-6.9,18.51,4.86,0.44,0.39,0.59,42
-13.14,-14.46,10.7,1.22,-0.24,1.27,-6.62,18.59,5.4,0.2,0.0,2.25,42
-12.76,-14.69,10.94,3.08,-4.15,-0.05,-6.84,17.98,5.33,-1.66,1.42,0.49,42
-12.99,-14.65,10.45,3.12,-4.15,0.98,-6.63,18.18,5.39,-1.03,-0.05,0.15,42
-12.9,-14.53,10.51,2.05,-2.2,1.46,-6.63,18.48,5.45,-0.05,-0.54,1.07,42
-13.04,-14.5,10.51,4.88,-6.15,1.66,-6.68,17.96,5.35,-1.12,0.54,3.27,42
-12.62,-14.69,11.33,13.09,-21.73,0.98,-6.92,17.34,5.12,-0.0,-2.54,6.64,42
-5.26,-7.06,15.57,-68.85,127.15,5.91,-7.13,18.16,5.87,6.69,-7.08,-2.49,43
-10.28,-7.63,16.08,-97.85,156.74,14.26,-6.67,19.57,5.44,1.03,-1.03,2.15,43
-14.37,-11.72,10.28,-34.96,78.66,-2.0,-7.41,18.03,4.96,-1.76,0.2,1.07,43
-16.07,-13.31,6.87,-7.47,11.62,-2.93,-7.74,17.23,5.38,-5.66,-0.15,0.39,43
-15.46,-12.26,8.84,-0.68,1.17,-1.42,-7.21,17.81,5.77,-3.52,0.39,0.15,43
-15.22,-13.24,9.81,2.88,-4.79,0.24,-7.41,17.91,5.23,-1.76,1.03,0.34,43
-14.41,-13.69,10.39,6.54,-11.18,5.52,-7.24,18.12,5.69,-1.51,0.63,-0.15,43
-14.57,-13.19,10.3,3.32,-8.94,-0.15,-7.44,17.58,5.58,-1.56,0.49,1.17,43
-14.95,-13.08,10.45,1.95,-4.25,-0.39,-7.43,17.51,5.46,-1.76,1.07,1.17,43
-14.73,-12.96,10.62,2.64,-7.08,-1.22,-7.18,17.92,5.91,-0.59,0.24,1.9,43
-14.75,-12.77,10.48,0.78,-4.59,-0.15,-7.15,17.98,5.95,-0.54,0.15,1.51,43
-14.69,-12.29,11.19,1.95,-3.27,1.32,-7.22,17.89,5.67,-0.59,0.29,0.39,43
-14.32,-12.66,11.73,0.83,-1.12,-0.54,-7.13,18.22,5.76,-0.15,0.54,0.83,43
-14.58,-12.34,11.63,2.05,-3.27,1.03,-7.26,17.3,5.7,0.88,8.69,-2.05,43
-14.49,-12.56,11.48,0.98,-0.78,1.07,-6.35,18.53,6.04,5.37,14.99,17.29,43
-14.47,-12.57,11.1,1.07,-2.34,1.03,-6.66,17.46,5.27,-2.34,2.1,-8.79,43
-16.48,-14.68,3.56,60.89,-94.87,30.91,-7.25,17.49,4.95,-2.59,-3.61,2.39,43
5.47,0.97,22.89,162.3,-365.67,47.85,-7.13,17.76,5.59,-4.15,-2.29,-2.39,43
2.9,-3.76,19.52,-26.22,12.55,-17.63,-7.16,17.85,5.54,-3.27,-0.54,0.05,43
3.36,-2.54,20.73,3.37,-0.05,0.05,-7.11,17.65,5.5,-0.93,-0.29,0.39,43
2.4,-4.85,20.15,0.98,-0.68,5.47,-4.19,17.46,7.39,-0.63,7.96,1.76,44
3.51,-3.97,20.51,5.42,-2.39,10.25,-2.93,18.3,7.01,0.68,12.94,3.71,44
3.74,-2.76,20.2,4.69,-3.27,5.32,-2.5,18.34,6.27,2.54,6.25,4.88,44
3.36,-3.37,20.07,8.94,-3.71,5.91,-2.79,17.47,6.33,1.12,7.52,4.64,44
4.8,-2.36,21.93,17.48,-5.66,5.76,-1.58,19.85,6.53,6.49,5.91,14.94,44
2.02,0.84,19.63,-1.71,1.95,3.96,-1.19,20.24,5.73,-5.96,8.64,9.62,44
2.35,-0.64,20.37,13.57,-2.15,-4.3,-1.96,19.9,6.79,3.37,-2.83,8.59,44
2.35,-0.9,20.38,1.61,1.37,13.53,-2.98,18.19,5.87,-0.1,12.26,3.81,44
2.76,-2.81,21.11,-3.86,2.59,7.03,-3.25,18.1,5.86,2.0,10.64,-2.34,44
1.56,-2.8,19.47,-24.02,34.18,8.64,-3.2,18.13,5.57,-3.08,12.01,-0.93,44
0.92,-1.54,19.92,-9.62,-0.29,7.13,-1.81,19.14,5.34,-2.25,9.28,-3.27,44
2.99,-1.99,21.96,6.35,-22.9,1.81,-0.9,21.33,6.38,0.24,0.15,15.09,44
3.58,-2.71,21.36,19.78,-20.36,-17.77,-0.12,18.59,4.94,16.5,-23.14,17.87,44
5.67,-2.27,20.56,11.96,-12.79,-12.6,1.19,19.11,4.95,2.54,-10.64,14.01,44
4.99,-0.64,19.34,11.08,7.71,-14.01,0.7,17.61,3.59,4.2,-4.83,2.44,44
3.3,1.62,19.08,-2.54,25.83,-2.88,1.22,17.26,1.89,14.94,5.32,-22.56,44
4.27,1.94,20.36,-3.71,25.15,1.07,1.89,18.62,2.22,1.81,-2.1,0.59,44
4.61,0.52,25.21,-37.6,64.11,-1.12,1.8,19.26,3.16,-4.0,0.78,-22.46,44
-8.13,-3.32,15.58,-73.0,140.53,10.89,-1.28,20.62,3.35,4.54,8.45,-8.4,44
-11.17,-5.59,19.34,-29.39,55.96,1.81,-1.97,20.19,0.6,17.19,32.62,2.69,44
4.77,2.36,20.45,0.05,-2.25,0.44,6.34,18.04,1.92,-3.86,-1.17,0.15,45
4.62,2.23,20.03,-0.98,-2.2,0.44,6.34,18.2,1.91,2.25,1.9,0.73,45
4.65,2.33,20.1,1.22,-1.37,1.03,6.48,18.0,1.73,-0.78,0.39,0.34,45
4.83,2.44,20.5,0.39,0.44,0.59,6.47,17.86,1.71,-0.88,-0.1,0.2,45
5.36,3.21,25.86,-61.57,151.56,-54.49,6.47,17.78,1.88,0.88,0.49,0.54,45
-5.6,-4.02,18.12,-47.17,59.33,-20.51,6.29,17.85,1.54,7.57,1.9,1.76,45
-6.67,-4.47,21.75,-14.8,46.92,-8.45,6.71,18.44,0.57,18.55,0.88,2.29,45
-9.54,-3.91,18.24,1.12,27.15,0.93,6.87,16.63,-0.17,30.13,-0.98,2.15,45
-10.91,-4.59,16.36,-3.66,15.14,-2.34,6.97,17.73,-1.9,23.93,0.49,-0.59,45
-11.26,-4.92,18.26,4.25,1.9,2.49,6.8,17.32,-2.55,-0.68,-0.2,0.83,45
-11.21,-4.52,17.64,3.76,-11.28,1.71,6.49,17.45,-2.32,-1.95,-1.03,0.63,45
-11.12,-5.16,17.72,0.15,-9.08,0.98,6.7,17.49,-2.85,-7.96,2.44,-0.88,45
-10.89,-5.57,18.32,0.98,-0.44,0.29,6.93,17.45,-2.07,-6.35,2.15,-0.93,45
-11.16,-5.06,17.87,-0.98,-3.12,1.27,6.75,17.7,-1.57,-2.3,0.49,0.24,45
-10.87,-5.67,18.38,-1.12,-1.12,-1.51,6.7,17.82,-2.1,-1.32,1.37,-0.59,45
-10.54,-5.02,18.23,1.56,-7.13,-0.2,6.47,18.02,-1.73,-2.05,1.12,0.44,45
-10.62,-5.53,18.28,2.0,-3.32,1.03,6.74,17.77,-1.72,-3.96,0.88,-0.68,45
-10.65,-5.44,18.68,0.44,-2.1,0.63,6.69,17.66,-1.56,-2.78,0.54,0.0,45
-10.57,-5.11,18.47,3.08,-6.15,2.2,6.57,18.01,-1.77,-0.68,0.68,0.24,45
-10.38,-5.48,18.52,0.73,-0.98,0.54,6.62,17.88,-1.68,-2.34,0.83,0.2,45
-7.81,-3.82,11.65,-119.53,166.94,-44.19,6.42,19.21,-1.36,16.31,-1.42,0.44,46
-7.8,-6.55,18.71,-19.43,36.43,-10.5,6.79,17.62,-1.54,3.76,-1.37,2.44,46
-9.35,-6.09,19.26,-17.14,26.17,-3.32,6.99,17.87,-1.57,-2.83,0.0,-0.1,46
-10.48,-6.19,18.48,-4.3,2.54,-0.2,6.56,17.78,-1.25,-2.83,1.07,-0.34,46
-10.0,-6.16,17.86,3.03,-3.71,0.59,6.82,17.95,-1.57,-3.22,0.98,-0.2,46
-10.31,-6.36,19.1,2.44,-9.91,2.29,6.61,17.94,-1.36,-3.81,0.05,-0.29,46
-10.29,-7.0,18.15,-0.54,-4.54,0.29,6.55,17.91,-0.88,-0.34,0.63,0.44,46
-9.91,-7.49,18.07,1.22,0.0,-0.68,6.91,17.77,-0.47,-2.49,0.24,0.0,46
-10.04,-6.99,17.9,1.9,-3.47,-0.39,6.62,17.8,-1.12,-3.22,0.34,0.15,46
-10.1,-6.43,18.3,0.39,-1.66,0.2,6.79,17.89,-0.82,-1.07,0.63,0.24,46
-10.01,-6.55,18.94,0.49,-1.71,0.63,6.87,17.73,-0.18,-2.39,0.59,-0.1,46
-9.87,-6.66,18.41,2.39,-2.93,-0.98,6.58,17.94,-0.72,-1.42,0.63,0.1,46
-9.87,-6.59,18.33,1.86,-0.63,-0.68,6.7,18.12,-0.74,-6.88,0.44,-0.1,46
-10.12,-6.74,17.05,7.57,-15.87,1.07,6.65,18.2,0.88,-39.8,-4.93,-3.52,46
-5.35,-4.42,20.59,72.41,-110.84,27.93,6.38,18.07,1.93,-9.47,-1.95,-1.27,46
2.65,0.63,21.21,63.28,-140.62,29.69,6.83,18.87,2.72,-31.64,3.71,-10.89,46
5.16,2.05,21.16,-9.72,0.15,3.81,5.84,18.14,4.07,-10.79,-0.44,-2.44,46
4.52,-0.01,20.33,-3.66,1.42,1.22,5.63,18.03,3.91,-5.32,0.05,-0.24,46
4.52,0.54,20.42,-1.66,-2.64,1.95,5.8,17.13,4.16,6.54,-1.95,5.62,46
4.77,-0.27,20.46,2.54,-0.15,0.59,6.24,17.37,2.7,14.7,-1.07,10.89,46
-2.72,-1.62,26.51,-91.31,148.24,-44.48,7.32,17.64,-2.28,14.26,-3.27,1.27,47
-8.91,-7.86,19.13,-21.19,69.24,-17.48,7.16,17.48,-1.53,0.2,1.17,-1.22,47
-10.36,-5.47,17.13,-5.62,14.06,-3.91,7.28,17.37,-1.34,-2.93,0.68,0.34,47
-10.08,-7.63,16.81,-1.32,4.69,1.37,7.17,17.71,-1.46,-5.42,1.37,0.0,47
-10.31,-6.95,18.67,-0.34,-5.57,0.63,7.14,17.69,-1.4,-2.64,1.17,0.0,47
-9.76,-7.18,18.06,0.44,-4.74,-0.2,7.14,17.61,-1.15,-3.91,0.88,-0.15,47
-9.92,-6.93,18.46,-0.15,-3.47,-0.34,7.25,17.81,-0.93,-3.52,0.93,0.0,47
-9.64,-7.24,18.14,0.1,-3.22,0.39,7.17,17.79,-1.05,-2.15,0.98,0.05,47
-9.39,-7.15,19.08,2.25,-6.98,0.15,7.14,17.9,-0.83,-1.47,0.59,0.15,47
-9.33,-7.22,18.9,1.22,-4.2,-1.66,7.12,17.79,-0.6,-1.9,0.59,0.0,47
-9.45,-6.9,18.61,0.44,-2.1,-0.24,7.18,17.63,-0.54,-2.39,0.59,0.05,47
-9.23,-7.1,18.73,1.27,-3.37,0.59,7.16,17.94,-0.54,-1.56,0.93,-0.29,47
-9.23,-7.02,18.32,-0.0,-3.12,0.59,7.09,17.8,-0.32,-3.08,0.78,-0.15,47
-9.01,-7.34,18.66,1.07,-3.61,0.39,7.02,17.84,-0.12,-4.88,1.56,0.05,47
-8.86,-6.89,18.37,4.64,-15.28,2.73,6.86,18.08,0.57,-20.12,0.93,-1.95,47
-8.34,-7.37,17.94,11.38,-25.39,8.15,7.09,18.13,1.09,-7.96,-2.34,-1.12,47
-4.15,-4.26,21.21,73.1,-106.93,25.63,6.86,18.23,1.15,-6.3,-1.66,-0.68,47
4.08,-1.37,20.78,63.92,-167.04,34.28,6.69,17.91,1.35,-5.37,-0.2,0.1,47
6.32,0.61,20.14,-0.93,-4.05,1.61,6.61,17.85,1.85,-5.57,-0.78,-0.24,47
5.26,0.38,19.41,-4.88,11.62,-0.1,6.75,17.95,1.95,0.54,1.61,0.44,47
-5.85,-4.15,16.96,-58.2,96.53,-28.27,6.86,18.02,2.01,-1.71,0.78,0.29,48
-6.43,-5.52,19.43,-21.05,47.51,-14.01,6.89,17.84,1.7,-0.63,-0.29,0.98,48
-10.35,-4.4,15.67,-2.54,37.16,16.85,6.78,17.68,1.95,-3.96,1.66,-0.29,48
-10.87,-6.56,17.18,-4.15,7.37,-4.59,6.82,17.94,2.18,-2.2,0.68,0.1,48
-10.66,-5.77,18.82,1.71,-8.06,-2.25,6.73,17.95,2.0,-1.03,0.63,0.44,48
-10.88,-6.46,17.44,0.83,1.51,4.3,6.85,17.82,2.12,-1.95,-0.83,-0.34,48
-10.8,-6.49,17.61,0.59,-2.73,-0.93,6.83,18.15,2.24,-0.54,0.1,0.44,48
-10.84,-5.66,17.85,0.24,-0.63,-0.88,6.82,18.03,2.39,-2.2,0.63,0.24,48
-10.38,-6.49,18.35,-0.88,-2.29,-5.71,6.74,18.08,2.27,-0.54,0.24,0.49,48
-10.23,-6.17,18.31,0.78,-3.03,0.44,6.73,17.95,2.38,-0.39,0.34,0.29,48
-10.19,-6.32,18.24,0.05,-4.83,-0.24,6.82,17.74,2.41,-1.95,0.68,-0.1,48
-9.9,-6.95,19.03,-0.68,-0.05,-0.63,6.75,17.78,2.35,-0.98,0.54,0.15,48
-10.17,-6.08,18.31,0.68,-2.54,-1.32,6.92,17.91,2.55,-1.71,0.49,0.05,48
-10.3,-5.88,18.27,1.61,-4.83,2.2,6.81,17.73,2.49,-0.15,0.15,0.49,48
-7.67,-5.78,15.23,75.1,-136.08,33.89,6.53,17.29,2.21,-0.93,0.39,0.0,48
7.17,4.28,26.18,72.31,-193.51,45.51,6.69,17.85,2.48,-0.34,0.2,0.54,48
7.12,1.96,20.28,-0.88,-16.26,4.59,6.72,17.99,2.21,-1.03,0.39,0.49,48
5.58,0.86,18.89,-9.08,15.67,-2.29,6.67,17.93,2.32,0.2,0.34,0.83,48
5.67,1.06,19.82,-7.96,11.38,-3.47,6.82,17.96,2.22,-0.49,0.49,0.49,48
5.46,0.66,20.03,-3.13,4.1,-0.29,6.77,17.91,2.16,1.07,0.59,0.88,48
-4.3,-5.28,20.23,-87.11,113.38,-56.84,7.6,17.52,-0.53,9.08,-2.49,2.44,49
-8.63,-6.84,17.69,-9.91,40.53,1.46,7.62,17.32,-1.61,5.22,-1.07,1.76,49
-10.21,-7.7,16.88,-3.42,20.51,-1.22,7.26,17.54,-1.41,0.59,2.0,0.1,49
-9.57,-7.71,18.2,-0.24,0.29,0.15,7.56,17.7,-1.27,-1.9,-0.63,0.29,49
-9.5,-8.13,18.4,-2.0,0.78,0.24,7.61,17.45,-1.24,-2.3,0.54,0.0,49
-9.73,-7.43,18.02,4.25,-8.84,-0.05,8.01,17.69,-0.51,-5.37,0.49,-0.34,49
-9.76,-7.43,17.65,0.88,-5.42,0.59,7.6,17.49,-0.97,-2.2,-0.2,-0.44,49
-9.29,-7.38,18.39,2.88,-2.88,-0.1,7.43,17.71,-0.85,-1.95,0.0,0.05,49
-9.27,-7.67,18.39,1.37,-2.44,-0.34,7.35,17.69,-0.93,-1.07,0.29,0.39,49
-9.37,-7.57,18.94,1.46,-3.56,2.05,7.35,17.66,-1.01,-0.78,0.93,0.29,49
-9.17,-7.89,18.15,0.49,-1.42,1.12,7.41,17.54,-0.99,-1.32,0.68,0.34,49
-9.12,-7.89,18.39,-0.2,-1.42,0.2,7.47,17.6,-0.94,-2.34,0.68,0.24,49
-9.16,-7.79,18.12,-0.49,-0.15,0.29,7.47,17.82,-0.81,-1.03,0.49,0.1,49
-9.05,-7.88,18.67,2.15,-1.66,-0.78,7.52,17.55,-0.5,-1.56,0.29,-0.1,49
-8.86,-7.68,18.58,0.2,-2.1,0.15,7.41,17.65,-0.66,-1.76,0.29,0.0,49
-9.05,-7.72,18.77,0.15,-1.07,0.73,7.39,17.56,-0.69,-1.76,0.59,0.39,49
-9.14,-7.83,18.3,0.15,-1.32,0.05,7.42,17.5,-0.65,-0.54,0.29,0.0,49
-9.07,-7.76,18.59,-0.68,1.81,-0.54,7.29,17.67,-0.76,-1.71,0.49,-0.49,49
-9.48,-8.19,17.14,1.46,2.39,-0.34,7.45,17.91,0.3,-25.78,2.88,-4.44,49
-8.07,-7.8,13.46,108.4,-141.46,23.0,7.15,17.57,0.21,-14.36,-4.88,-2.44,49
6.34,0.39,19.78,-1.81,5.37,1.03,7.02,17.79,1.83,-4.88,2.83,-0.73,50
5.92,0.49,19.77,-3.37,8.35,0.34,6.79,17.91,1.57,-3.13,2.29,0.15,50
5.94,0.09,20.2,-1.51,2.78,0.39,7.0,17.98,2.22,-3.96,1.03,-0.39,50
5.71,-0.01,20.21,-0.24,0.98,0.83,6.91,17.96,2.16,-1.9,0.39,0.29,50
5.62,0.02,20.18,0.63,-0.15,0.29,6.83,17.55,2.0,-0.93,0.34,0.2,50
5.59,-0.04,20.21,0.54,-0.78,0.73,6.91,17.9,2.33,-0.98,0.29,0.34,50
5.53,-0.06,20.1,-0.63,-0.34,0.83,6.88,17.86,2.08,-0.83,0.98,0.49,50
5.6,-0.12,20.28,0.34,-1.07,1.12,6.96,17.89,2.2,-0.68,0.39,0.49,50
5.55,-0.11,20.32,-0.15,-1.46,1.42,6.83,17.96,2.06,-1.9,0.88,0.68,50
5.36,-0.2,19.99,0.1,-0.34,1.42,6.9,17.93,2.15,-1.37,0.88,0.78,50
5.4,-0.09,19.98,-0.24,0.24,1.03,6.91,17.83,2.31,-1.47,0.54,0.2,50
5.54,-0.27,20.25,0.29,-1.22,0.83,6.83,17.85,1.97,0.15,0.44,0.73,50
5.63,-0.43,20.34,0.68,-2.0,0.93,6.87,17.89,2.35,-0.78,0.39,0.49,50
5.54,-0.29,20.24,0.29,-1.32,1.22,6.84,17.78,2.15,-0.54,0.73,0.88,50
5.4,-0.24,19.95,-0.78,-0.39,1.17,6.85,17.82,2.14,-1.42,1.56,0.54,50
5.53,-0.26,20.18,0.98,-0.88,1.12,7.02,17.88,2.3,-0.63,0.49,0.29,50
5.44,-0.46,19.99,0.34,-0.83,0.73,6.88,17.8,2.44,-0.49,0.44,0.44,50
5.61,-0.34,20.37,0.83,-1.03,0.88,6.91,17.8,2.47,0.1,0.44,0.59,50
5.29,-0.16,19.85,6.15,0.1,14.26,6.97,17.89,2.54,-1.76,0.29,0.59,50
5.49,-0.15,20.17,-0.98,-1.12,-3.27,6.92,17.73,2.45,0.39,0.29,0.29,50
